{
  "resourceType": "Bundle",
  "id": "abeb123f-4cb4-4fa5-bc54-3da02300300b",
  "meta": {
    "profile": [
      "http://hl7.eu/fhir/laboratory/StructureDefinition/Bundle-eu-lab"
    ]
  },
  "identifier": {
    "assigner": {
      "display": "HL7 Europe"
    },
    "system": "urn:oid:2.16.840.1.113883.2.51.999",
    "value": "f5576ef5-94fe-422f-ac52-f57f3e6a9f18"
  },
  "entry": [
    {
      "fullUrl": "urn:uuid:38781a73-e87e-4440-bb5f-bd26863ec5cb",
      "resource": {
        "resourceType": "Composition",
        "id": "38781a73-e87e-4440-bb5f-bd26863ec5cb",
        "meta": {
          "profile": [
            "http://hl7.eu/fhir/laboratory/StructureDefinition/Composition-eu-lab"
          ]
        },
        "identifier": {
          "assigner": {
            "display": "HL7 Europe"
          },
          "system": "urn:oid:2.16.840.1.113883.2.51.999",
          "value": "d096cfd8-158b-4f26-8f57-24cb337ba2ae"
        },
        "author": [
          {
            "reference": "urn:uuid:288ce5c6-d4a9-41fa-8e80-52d02f38ef65"
          }
        ],
        "category": [
          {
            "coding": [
              {
                "code": "26436-6",
                "system": "http://loinc.org",
                "display": "Laboratory studies (set)"
              }
            ]
          }
        ],
        "type": {
          "coding": [
            {
              "code": "11502-2",
              "system": "http://loinc.org",
              "display": "Laboratory report"
            }
          ],
          "text": "Laboratory Report"
        },
        "section": [
          {
            "code": {
              "coding": [
                {
                  "code": "26436-6",
                  "system": "http://loinc.org",
                  "display": "Laboratory studies (set)"
                }
              ],
              "text": "Laboratory studies"
            },
            "section": [
              {
                "code": {
                  "coding": [
                    {
                      "code": "$18719-5",
                      "system": "http://loinc.org",
                      "display": "Chemistry studies (set)"
                    }
                  ],
                  "text": "Chemistry"
                },
                "entry": [
                  {
                    "reference": "urn:uuid:742d49df-c77f-430f-a11c-b94014ec4c37"
                  },
                  {
                    "reference": "urn:uuid:6491e0d8-7c84-4759-ba85-30839579717c"
                  },
                  {
                    "reference": "urn:uuid:f21d7293-d43f-4af8-a51b-eb5eeeac0ec5"
                  },
                  {
                    "reference": "urn:uuid:77095b04-af61-4b52-a1c5-342c96acd2aa"
                  },
                  {
                    "reference": "urn:uuid:466325a0-f311-452e-9d83-b8749f94968f"
                  },
                  {
                    "reference": "urn:uuid:53fa1cb4-d1a0-4606-af18-f9ad31aabb5a"
                  },
                  {
                    "reference": "urn:uuid:d9015fa4-1d4a-4675-af2c-f4ae7eed5f00"
                  },
                  {
                    "reference": "urn:uuid:6dfa8ce3-0790-46e6-84c3-c4b58144f341"
                  },
                  {
                    "reference": "urn:uuid:7bf5aab2-a028-4f8a-8cd1-288deee888c2"
                  },
                  {
                    "reference": "urn:uuid:90e001a5-8835-4d8e-933f-ecee4baadc3e"
                  },
                  {
                    "reference": "urn:uuid:ad91f271-d65f-42b6-ba0e-067a2df7d308"
                  },
                  {
                    "reference": "urn:uuid:7cdf58a6-6c06-4bbf-aad6-ff0adea2427d"
                  },
                  {
                    "reference": "urn:uuid:dd2a558e-b58e-4f57-9307-5cfd4f3cbe72"
                  },
                  {
                    "reference": "urn:uuid:60763568-fea6-430b-b9b0-1aad0b020005"
                  },
                  {
                    "reference": "urn:uuid:f7ff84a1-161b-411d-a5d6-ea263e1da210"
                  },
                  {
                    "reference": "urn:uuid:bcfac129-a770-4783-a134-2992fa3f4bf3"
                  },
                  {
                    "reference": "urn:uuid:efc1d099-062d-41c1-83b9-a4027488e88a"
                  },
                  {
                    "reference": "urn:uuid:ba7ce0d7-4588-4fd8-a25b-fd96084bba68"
                  },
                  {
                    "reference": "urn:uuid:ea3dd67b-2c36-433c-bb46-67a0478a5291"
                  },
                  {
                    "reference": "urn:uuid:6566217b-73a4-49be-9418-c4e14f83a799"
                  },
                  {
                    "reference": "urn:uuid:07fd4088-90a7-4a2e-9172-caa0e68abee3"
                  },
                  {
                    "reference": "urn:uuid:c1afddbf-49d4-4b6b-9d24-8c9997f1316f"
                  }
                ],
                "text": {
                  "status": "generated",
                  "div": "<div xmlns=\"http://www.w3.org/1999/xhtml\"><h3>Chemistry</h3><table class=\"hl7__eu__lab__report\"><thead><tr><th>Test</th><th>08-SEP-2020</th><th>Reference&#xA0;Range</th><th>Unit</th></tr></thead><tbody><tr><td>Glucose [Mass/volume] in Serum or Plasma</td><td>97.0</td><td>70 - 99</td><td>mg/dL</td></tr><tr><td>Urea nitrogen [Mass/volume] in Serum or Plasma</td><td>10.3</td><td>7 - 50</td><td>mg/dL</td></tr><tr><td>Creatinine [Mass/volume] in Serum or Plasma</td><td><strong>2.0 H</strong></td><td>0.6 - 1.1</td><td>mg/dL</td></tr><tr><td>Calcium [Mass/volume] in Serum or Plasma</td><td>9.2</td><td>8.6 - 10.4</td><td>mg/dL</td></tr><tr><td>Sodium [Moles/volume] in Serum or Plasma</td><td>141.8</td><td>135 - 145</td><td>mmol/L</td></tr><tr><td>Potassium [Moles/volume] in Serum or Plasma</td><td>5.0</td><td>3.5 - 5.1</td><td>mmol/L</td></tr><tr><td>Chloride [Moles/volume] in Serum or Plasma</td><td>104.8</td><td>98 - 108</td><td>mmol/L</td></tr><tr><td>Carbon dioxide, total [Moles/volume] in Serum or Plasma</td><td>26.4</td><td>22 - 32</td><td>mmol/L</td></tr><tr><td>Ketones [Presence] in Urine by Test strip</td><td>Urine ketone test = ++</td><td></td><td></td></tr><tr><td>Hemoglobin A1c/Hemoglobin.total in Blood</td><td><strong>3.3 L</strong></td><td>4 - 6.4</td><td>%</td></tr><tr><td>Glucose [Mass/volume] in Blood</td><td>97.0</td><td>70 - 100</td><td>mg/dL</td></tr><tr><td>Urea nitrogen [Mass/volume] in Blood</td><td>10.3</td><td>7 - 43</td><td>mg/dL</td></tr><tr><td>Creatinine [Mass/volume] in Blood</td><td><strong>3.5 H</strong></td><td>0.6 - 1.1</td><td>mg/dL</td></tr><tr><td>Calcium [Mass/volume] in Blood</td><td>9.2</td><td>8.5 - 10.5</td><td>mg/dL</td></tr><tr><td>Sodium [Moles/volume] in Blood</td><td>141.8</td><td>135 - 145</td><td>mmol/L</td></tr><tr><td>Potassium [Moles/volume] in Blood</td><td>5.0</td><td>3.5 - 5.1</td><td>mmol/L</td></tr><tr><td>Chloride [Moles/volume] in Blood</td><td>104.8</td><td>98 - 108</td><td>mmol/L</td></tr><tr><td>Carbon dioxide, total [Moles/volume] in Blood</td><td>26.4</td><td>22 - 29</td><td>mmol/L</td></tr><tr><td>Cholesterol [Mass/volume] in Serum or Plasma</td><td><strong>287.1 H</strong></td><td>125 - 239</td><td>mg/dL</td></tr><tr><td>Triglyceride [Mass/volume] in Serum or Plasma</td><td>118.0</td><td></td><td>mg/dL</td></tr><tr><td>Cholesterol in LDL [Mass/volume] in Serum or Plasma by Direct assay</td><td><strong>202.2 H</strong></td><td>0 - 130</td><td>mg/dL</td></tr><tr><td>Cholesterol in HDL [Mass/volume] in Serum or Plasma</td><td>61.3</td><td>50 - 100</td><td>mg/dL</td></tr></tbody></table></div>"
                },
                "title": "Chemistry"
              },
              {
                "code": {
                  "coding": [
                    {
                      "code": "$18729-4",
                      "system": "http://loinc.org",
                      "display": "Urinalysis studies (set)"
                    }
                  ],
                  "text": "Urinalysis"
                },
                "entry": [
                  {
                    "reference": "urn:uuid:bf5ae0dc-9122-4b0c-8614-0aab4630b90b"
                  },
                  {
                    "reference": "urn:uuid:f1df5778-5504-4403-b479-fb07a5845acd"
                  },
                  {
                    "reference": "urn:uuid:68f5b165-c270-45d1-853f-dfae7365f579"
                  },
                  {
                    "reference": "urn:uuid:6a4e7887-92a1-4305-8dbf-4d486910cf05"
                  },
                  {
                    "reference": "urn:uuid:63225421-2849-4c3d-838a-b95f011914d0"
                  },
                  {
                    "reference": "urn:uuid:ba535bcb-9a74-47d9-92ed-21988832a63c"
                  },
                  {
                    "reference": "urn:uuid:9c63ad7e-1203-4694-92e7-165adfdd1aec"
                  },
                  {
                    "reference": "urn:uuid:e561b43a-5280-4efa-be53-6b33fe2283fc"
                  },
                  {
                    "reference": "urn:uuid:ebf2d67b-b373-4d29-8f7e-eeb5a99b81aa"
                  },
                  {
                    "reference": "urn:uuid:adde72e5-a2a1-4c34-817b-11f18ef2732e"
                  },
                  {
                    "reference": "urn:uuid:34cc05cd-a526-4a58-816a-afe10aa69bac"
                  },
                  {
                    "reference": "urn:uuid:f7ac4f72-1d2e-4456-97e7-8c44d9a6b42b"
                  }
                ],
                "text": {
                  "status": "generated",
                  "div": "<div xmlns=\"http://www.w3.org/1999/xhtml\"><h3>Urinalysis</h3><table class=\"hl7__eu__lab__report\"><thead><tr><th>Test</th><th>08-SEP-2020</th><th>Reference&#xA0;Range</th><th>Unit</th></tr></thead><tbody><tr><td>Glucose [Mass/volume] in Urine by Test strip</td><td><strong>1.3 H</strong></td><td>0.8 - 0</td><td>mg/dL</td></tr><tr><td>Glucose [Presence] in Urine by Test strip</td><td>++</td><td></td><td></td></tr><tr><td>Bilirubin.total [Mass/volume] in Urine by Test strip</td><td><strong>1.1 H</strong></td><td>0 - 1</td><td>mg/dL</td></tr><tr><td>Bilirubin.total [Presence] in Urine by Test strip</td><td>Finding of bilirubin in urine</td><td></td><td></td></tr><tr><td>Ketones [Mass/volume] in Urine by Test strip</td><td><strong>8.7 H</strong></td><td>0 - 4</td><td>mg/dL</td></tr><tr><td>Specific gravity of Urine by Test strip</td><td><strong>1.0 L</strong></td><td>1.005 - 1.03</td><td>{nominal}</td></tr><tr><td>pH of Urine by Test strip</td><td>6.1</td><td>4.6 - 7</td><td>pH</td></tr><tr><td>Protein [Mass/volume] in Urine by Test strip</td><td><strong>302.3 H</strong></td><td>0 - 14</td><td>mg/dL</td></tr><tr><td>Protein [Presence] in Urine by Test strip</td><td>Urine protein test = ++</td><td></td><td></td></tr><tr><td>Nitrite [Presence] in Urine by Test strip</td><td>Urine nitrite negative</td><td></td><td></td></tr><tr><td>Hemoglobin [Presence] in Urine by Test strip</td><td>Urine blood test = negative</td><td></td><td></td></tr><tr><td>Leukocyte esterase [Presence] in Urine by Test strip</td><td>Urine leukocyte test negative</td><td></td><td></td></tr></tbody></table></div>"
                },
                "title": "Urinalysis"
              },
              {
                "code": {
                  "coding": [
                    {
                      "code": "$LP7846-1",
                      "system": "http://loinc.org",
                      "display": "Specimen information"
                    }
                  ],
                  "text": "Specimen information"
                },
                "entry": [
                  {
                    "reference": "urn:uuid:6539ef14-ee2a-4cac-8362-061283f426ee"
                  },
                  {
                    "reference": "urn:uuid:232419da-b549-43ba-acd2-78b8fa3a8b07"
                  },
                  {
                    "reference": "urn:uuid:beb3bb7d-86e0-4432-b7af-389e37c9e864"
                  },
                  {
                    "reference": "urn:uuid:d528ac4d-9191-4016-be3b-657cc4d1e388"
                  }
                ],
                "text": {
                  "status": "generated",
                  "div": "<div xmlns=\"http://www.w3.org/1999/xhtml\"><h3>Specimen information</h3><table class=\"hl7__eu__lab__report\"><thead><tr><th>Test</th><th>08-SEP-2020</th><th>Specimen</th><th></th></tr></thead><tbody><tr><td>Appearance of Urine</td><td>Cloudy urine</td><td>Urine</td><td></td></tr><tr><td>Odor of Urine</td><td>Urine smell ammoniacal</td><td>Urine</td><td></td></tr><tr><td>Clarity of Urine</td><td>Translucent</td><td>Urine</td><td></td></tr><tr><td>Color of Urine</td><td>Brown color</td><td>Urine</td><td></td></tr></tbody></table></div>"
                },
                "title": "Specimen information"
              }
            ],
            "title": "Laboratory Report"
          },
          {
            "text": {
              "status": "generated",
              "div": "<div xmlns=\"http://www.w3.org/1999/xhtml\"><h3>Annotation</h3><table class=\"hl7__eu__lab__report\"><tr><th>Conclusion and Recommendations based on this report and previous findings known to us</th></tr><tr><td>The patient shows markedly elevated creatinine, proteinuria, and abnormal urine findings (cloudy, brown, low specific gravity, ketones, bilirubin), indicating significant renal dysfunction, likely acute or chronic kidney disease. Blood glucose is normal, but HbA1c is low, possibly due to anemia or recent changes in glycemic control. Lipid profile reveals hypercholesterolemia and high LDL. No evidence of urinary tract infection. Recommend urgent nephrology evaluation and further assessment of renal function and underlying etiology.</td></tr></table></div>"
            },
            "code": {
              "coding": [
                {
                  "system": "http://loinc.org",
                  "code": "48767-8",
                  "display": "Annotation comment"
                }
              ]
            },
            "title": "Annotation comment"
          }
        ],
        "status": "final",
        "subject": {
          "reference": "urn:uuid:e93038a8-3a20-4da2-b1cd-1920fb859f5b",
          "display": "Meaghan Neary"
        },
        "date": "2020-09-08T00:11:04Z",
        "title": "Laboratory Report",
        "confidentiality": "N"
      }
    },
    {
      "fullUrl": "urn:uuid:a5bce59b-9a2c-41dd-94d1-0bd0fbd861e2",
      "resource": {
        "resourceType": "DiagnosticReport",
        "id": "a5bce59b-9a2c-41dd-94d1-0bd0fbd861e2",
        "meta": {
          "profile": [
            "http://hl7.eu/fhir/laboratory/StructureDefinition/DiagnosticReport-eu-lab"
          ]
        },
        "identifier": [
          {
            "assigner": {
              "display": "HL7 Europe"
            },
            "system": "urn:oid:2.16.840.1.113883.2.51.999",
            "value": "8610abf3-90b3-4c5b-b349-c5e9feffd7b7"
          }
        ],
        "extension": [
          {
            "url": "http://hl7.org/fhir/5.0/StructureDefinition/extension-DiagnosticReport.composition",
            "valueReference": {
              "reference": "urn:uuid:d096cfd8-158b-4f26-8f57-24cb337ba2ae"
            }
          }
        ],
        "category": [
          {
            "coding": [
              {
                "code": "26436-6",
                "system": "http://loinc.org",
                "display": "Laboratory studies (set)"
              }
            ]
          }
        ],
        "specimen": [
          {
            "reference": "urn:uuid:7c44e055-9e2f-4c5a-95c9-b430db4b0c06"
          },
          {
            "reference": "urn:uuid:61661e68-c2fd-4dd7-9656-2a3961b65946"
          },
          {
            "reference": "urn:uuid:2bfbd77f-12cd-4622-8f81-68fd7e6150e3"
          }
        ],
        "result": [
          {
            "reference": "urn:uuid:742d49df-c77f-430f-a11c-b94014ec4c37"
          },
          {
            "reference": "urn:uuid:6491e0d8-7c84-4759-ba85-30839579717c"
          },
          {
            "reference": "urn:uuid:f21d7293-d43f-4af8-a51b-eb5eeeac0ec5"
          },
          {
            "reference": "urn:uuid:77095b04-af61-4b52-a1c5-342c96acd2aa"
          },
          {
            "reference": "urn:uuid:466325a0-f311-452e-9d83-b8749f94968f"
          },
          {
            "reference": "urn:uuid:53fa1cb4-d1a0-4606-af18-f9ad31aabb5a"
          },
          {
            "reference": "urn:uuid:d9015fa4-1d4a-4675-af2c-f4ae7eed5f00"
          },
          {
            "reference": "urn:uuid:6dfa8ce3-0790-46e6-84c3-c4b58144f341"
          },
          {
            "reference": "urn:uuid:6539ef14-ee2a-4cac-8362-061283f426ee"
          },
          {
            "reference": "urn:uuid:232419da-b549-43ba-acd2-78b8fa3a8b07"
          },
          {
            "reference": "urn:uuid:beb3bb7d-86e0-4432-b7af-389e37c9e864"
          },
          {
            "reference": "urn:uuid:d528ac4d-9191-4016-be3b-657cc4d1e388"
          },
          {
            "reference": "urn:uuid:bf5ae0dc-9122-4b0c-8614-0aab4630b90b"
          },
          {
            "reference": "urn:uuid:f1df5778-5504-4403-b479-fb07a5845acd"
          },
          {
            "reference": "urn:uuid:68f5b165-c270-45d1-853f-dfae7365f579"
          },
          {
            "reference": "urn:uuid:6a4e7887-92a1-4305-8dbf-4d486910cf05"
          },
          {
            "reference": "urn:uuid:63225421-2849-4c3d-838a-b95f011914d0"
          },
          {
            "reference": "urn:uuid:7bf5aab2-a028-4f8a-8cd1-288deee888c2"
          },
          {
            "reference": "urn:uuid:ba535bcb-9a74-47d9-92ed-21988832a63c"
          },
          {
            "reference": "urn:uuid:9c63ad7e-1203-4694-92e7-165adfdd1aec"
          },
          {
            "reference": "urn:uuid:e561b43a-5280-4efa-be53-6b33fe2283fc"
          },
          {
            "reference": "urn:uuid:ebf2d67b-b373-4d29-8f7e-eeb5a99b81aa"
          },
          {
            "reference": "urn:uuid:adde72e5-a2a1-4c34-817b-11f18ef2732e"
          },
          {
            "reference": "urn:uuid:34cc05cd-a526-4a58-816a-afe10aa69bac"
          },
          {
            "reference": "urn:uuid:f7ac4f72-1d2e-4456-97e7-8c44d9a6b42b"
          },
          {
            "reference": "urn:uuid:90e001a5-8835-4d8e-933f-ecee4baadc3e"
          },
          {
            "reference": "urn:uuid:ad91f271-d65f-42b6-ba0e-067a2df7d308"
          },
          {
            "reference": "urn:uuid:7cdf58a6-6c06-4bbf-aad6-ff0adea2427d"
          },
          {
            "reference": "urn:uuid:dd2a558e-b58e-4f57-9307-5cfd4f3cbe72"
          },
          {
            "reference": "urn:uuid:60763568-fea6-430b-b9b0-1aad0b020005"
          },
          {
            "reference": "urn:uuid:f7ff84a1-161b-411d-a5d6-ea263e1da210"
          },
          {
            "reference": "urn:uuid:bcfac129-a770-4783-a134-2992fa3f4bf3"
          },
          {
            "reference": "urn:uuid:efc1d099-062d-41c1-83b9-a4027488e88a"
          },
          {
            "reference": "urn:uuid:ba7ce0d7-4588-4fd8-a25b-fd96084bba68"
          },
          {
            "reference": "urn:uuid:ea3dd67b-2c36-433c-bb46-67a0478a5291"
          },
          {
            "reference": "urn:uuid:6566217b-73a4-49be-9418-c4e14f83a799"
          },
          {
            "reference": "urn:uuid:07fd4088-90a7-4a2e-9172-caa0e68abee3"
          },
          {
            "reference": "urn:uuid:c1afddbf-49d4-4b6b-9d24-8c9997f1316f"
          }
        ],
        "status": "registered",
        "code": {
          "coding": [
            {
              "code": "11502-2",
              "system": "http://loinc.org",
              "display": "Laboratory report"
            }
          ]
        },
        "subject": {
          "reference": "urn:uuid:e93038a8-3a20-4da2-b1cd-1920fb859f5b",
          "display": "Meaghan Neary"
        }
      }
    },
    {
      "fullUrl": "urn:uuid:e93038a8-3a20-4da2-b1cd-1920fb859f5b",
      "resource": {
        "resourceType": "Patient",
        "id": "e93038a8-3a20-4da2-b1cd-1920fb859f5b",
        "meta": {
          "security": [
            {
              "system": "http://terminology.hl7.org/CodeSystem/v3-ActReason",
              "code": "HTEST"
            },
            {
              "system": "http://terminology.hl7.org/CodeSystem/v3-ActReason",
              "code": "TRAIN"
            }
          ],
          "tag": [
            {
              "system": "https://synderai.net/fhir/CodeSystem/tags",
              "code": "synthetic",
              "display": "SYNDERAI Synthetic data"
            }
          ],
          "profile": [
            "http://hl7.eu/fhir/base/StructureDefinition/patient-eu-core"
          ]
        },
        "identifier": [
          {
            "type": {
              "coding": [
                {
                  "code": "PT",
                  "system": "http://terminology.hl7.org/CodeSystem/v2-0203"
                }
              ]
            },
            "system": "http://ec.europa.eu/identifier/eci",
            "value": "1586-567257-8"
          },
          {
            "type": {
              "coding": [
                {
                  "code": "MR",
                  "system": "http://terminology.hl7.org/CodeSystem/v2-0203"
                }
              ]
            },
            "system": "http://local.setting.eu/identifier",
            "value": "443e6379-f231-b364-3ccb-644740a1aa2a"
          }
        ],
        "name": [
          {
            "family": "Neary"
          },
          {
            "given": [
              "Meaghan"
            ]
          },
          {
            "text": "Meaghan Neary"
          }
        ],
        "address": [
          {
            "line": [
              "64 Linskey Street"
            ],
            "use": "home",
            "type": "physical",
            "postalCode": "D02",
            "city": "Dublin",
            "country": "Ireland"
          }
        ],
        "telecom": [
          {
            "system": "phone",
            "value": "001-967-573-0911x465"
          }
        ],
        "extension": [
          {
            "url": "http://hl7.org/fhir/StructureDefinition/patient-nationality",
            "valueCodeableConcept": {
              "coding": [
                {
                  "code": "IE",
                  "system": "http://hl7.org/fhir/ValueSet/country"
                }
              ]
            }
          }
        ],
        "text": {
          "status": "generated",
          "div": "<div xmlns=\"http://www.w3.org/1999/xhtml\"><table class=\"hl7__ips\"><tr><td>Meaghan Neary</td><td>female</td><td>19-Dec-1960</td></tr></table></div>"
        },
        "gender": "female",
        "birthDate": "1960-12-19"
      }
    },
    {
      "fullUrl": "urn:uuid:d5567d54-c5f8-457e-9e52-eb224f1dd65f",
      "resource": {
        "resourceType": "ServiceRequest",
        "id": "d5567d54-c5f8-457e-9e52-eb224f1dd65f",
        "meta": {
          "profile": [
            "http://hl7.eu/fhir/laboratory/StructureDefinition/ServiceRequest-eu-lab"
          ]
        },
        "identifier": [
          {
            "system": "http://example.org",
            "value": "817e0900-80a0-44f8-a146-5d4a903cec44"
          }
        ],
        "specimen": [
          {
            "reference": "urn:uuid:7c44e055-9e2f-4c5a-95c9-b430db4b0c06"
          },
          {
            "reference": "urn:uuid:61661e68-c2fd-4dd7-9656-2a3961b65946"
          },
          {
            "reference": "urn:uuid:2bfbd77f-12cd-4622-8f81-68fd7e6150e3"
          }
        ],
        "reasonCode": [
          {
            "coding": [
              {
                "code": "55822004",
                "system": "http://snomed.info/sct",
                "display": "Hyperlipidemia"
              }
            ]
          },
          {
            "coding": [
              {
                "code": "433144002",
                "system": "http://snomed.info/sct",
                "display": "Chronic kidney disease stage 3"
              }
            ]
          },
          {
            "coding": [
              {
                "code": "157141000119108",
                "system": "http://snomed.info/sct",
                "display": "Proteinuria due to type 2 diabetes mellitus"
              }
            ]
          },
          {
            "coding": [
              {
                "code": "431856006",
                "system": "http://snomed.info/sct",
                "display": "Chronic kidney disease stage 2"
              }
            ]
          },
          {
            "coding": [
              {
                "code": "90781000119102",
                "system": "http://snomed.info/sct",
                "display": "Microalbuminuria due to type 2 diabetes mellitus"
              }
            ]
          },
          {
            "coding": [
              {
                "code": "127013003",
                "system": "http://snomed.info/sct",
                "display": "Disorder of kidney due to diabetes mellitus"
              }
            ]
          },
          {
            "coding": [
              {
                "code": "431855005",
                "system": "http://snomed.info/sct",
                "display": "Chronic kidney disease stage 1"
              }
            ]
          },
          {
            "coding": [
              {
                "code": "237602007",
                "system": "http://snomed.info/sct",
                "display": "Metabolic syndrome X"
              }
            ]
          },
          {
            "coding": [
              {
                "code": "271737000",
                "system": "http://snomed.info/sct",
                "display": "Anemia"
              }
            ]
          },
          {
            "coding": [
              {
                "code": "15777000",
                "system": "http://snomed.info/sct",
                "display": "Prediabetes"
              }
            ]
          },
          {
            "coding": [
              {
                "code": "59621000",
                "system": "http://snomed.info/sct",
                "display": "Essential hypertension"
              }
            ]
          }
        ],
        "status": "active",
        "intent": "order",
        "code": {
          "coding": [
            {
              "code": "108252007",
              "system": "http://snomed.info/sct",
              "display": "Laboratory procedure"
            }
          ]
        },
        "subject": {
          "reference": "urn:uuid:e93038a8-3a20-4da2-b1cd-1920fb859f5b",
          "display": "Meaghan Neary"
        },
        "requester": {
          "reference": "urn:uuid:cd626a0c-f31e-4665-b84a-e42668348fb9"
        }
      }
    },
    {
      "fullUrl": "urn:uuid:cd626a0c-f31e-4665-b84a-e42668348fb9",
      "resource": {
        "resourceType": "PractitionerRole",
        "id": "cd626a0c-f31e-4665-b84a-e42668348fb9",
        "meta": {
          "profile": [
            "http://hl7.eu/fhir/base/StructureDefinition/practitionerRole-eu"
          ]
        },
        "text": {
          "status": "generated",
          "div": "<div xmlns=\"http://www.w3.org/1999/xhtml\">Provider Role Id: cd626a0c-f31e-4665-b84a-e42668348fb9</div>"
        },
        "organization": {
          "reference": "urn:uuid:a90fa69b-fe3b-42ab-bc0f-0be988b66b36"
        }
      }
    },
    {
      "fullUrl": "urn:uuid:a90fa69b-fe3b-42ab-bc0f-0be988b66b36",
      "resource": {
        "resourceType": "Organization",
        "id": "a90fa69b-fe3b-42ab-bc0f-0be988b66b36",
        "meta": {
          "profile": [
            "http://hl7.eu/fhir/base/StructureDefinition/organization-eu"
          ]
        },
        "identifier": [
          {
            "assigner": {
              "display": "HL7 Europe"
            },
            "system": "urn:oid:2.16.840.1.113883.2.51.999",
            "value": "6bc3a8c9-5929-416d-88f0-5989d88ffbc5"
          }
        ],
        "address": [
          {
            "line": [
              "Parnell Square West nan"
            ],
            "city": "Dublin",
            "postalCode": "D01",
            "country": "Ireland"
          }
        ],
        "text": {
          "status": "generated",
          "div": "<div xmlns=\"http://www.w3.org/1999/xhtml\">Provider Organization: Rotunda Hospital</div>"
        },
        "name": "Rotunda Hospital"
      }
    },
    {
      "fullUrl": "urn:uuid:7c44e055-9e2f-4c5a-95c9-b430db4b0c06",
      "resource": {
        "resourceType": "Specimen",
        "id": "7c44e055-9e2f-4c5a-95c9-b430db4b0c06",
        "meta": {
          "profile": [
            "http://hl7.eu/fhir/laboratory/StructureDefinition/Specimen-eu-lab"
          ]
        },
        "collection": {
          "collectedDateTime": "2020-09-07"
        },
        "text": {
          "status": "generated",
          "div": "<div xmlns=\"http://www.w3.org/1999/xhtml\"><table class=\"hl7__eu__lab__report\"><tr><th>Specimen</th><th>Collection Date</th></tr><tr><td>Acellular blood (serum or plasma) specimen</td><td><span class=\"nb\">07-Sep-2020</span></td></tr></table></div>"
        },
        "type": {
          "coding": [
            {
              "code": "122592007",
              "system": "http://snomed.info/sct",
              "display": "Acellular blood (serum or plasma) specimen"
            }
          ]
        }
      }
    },
    {
      "fullUrl": "urn:uuid:61661e68-c2fd-4dd7-9656-2a3961b65946",
      "resource": {
        "resourceType": "Specimen",
        "id": "61661e68-c2fd-4dd7-9656-2a3961b65946",
        "meta": {
          "profile": [
            "http://hl7.eu/fhir/laboratory/StructureDefinition/Specimen-eu-lab"
          ]
        },
        "collection": {
          "collectedDateTime": "2020-09-07"
        },
        "text": {
          "status": "generated",
          "div": "<div xmlns=\"http://www.w3.org/1999/xhtml\"><table class=\"hl7__eu__lab__report\"><tr><th>Specimen</th><th>Collection Date</th></tr><tr><td>Urine specimen</td><td><span class=\"nb\">07-Sep-2020</span></td></tr></table></div>"
        },
        "type": {
          "coding": [
            {
              "code": "122575003",
              "system": "http://snomed.info/sct",
              "display": "Urine specimen"
            }
          ]
        }
      }
    },
    {
      "fullUrl": "urn:uuid:2bfbd77f-12cd-4622-8f81-68fd7e6150e3",
      "resource": {
        "resourceType": "Specimen",
        "id": "2bfbd77f-12cd-4622-8f81-68fd7e6150e3",
        "meta": {
          "profile": [
            "http://hl7.eu/fhir/laboratory/StructureDefinition/Specimen-eu-lab"
          ]
        },
        "collection": {
          "collectedDateTime": "2020-09-07"
        },
        "text": {
          "status": "generated",
          "div": "<div xmlns=\"http://www.w3.org/1999/xhtml\"><table class=\"hl7__eu__lab__report\"><tr><th>Specimen</th><th>Collection Date</th></tr><tr><td>Whole blood specimen (specimen)</td><td><span class=\"nb\">07-Sep-2020</span></td></tr></table></div>"
        },
        "type": {
          "coding": [
            {
              "code": "258580003",
              "system": "http://snomed.info/sct",
              "display": "Whole blood specimen (specimen)"
            }
          ]
        }
      }
    },
    {
      "fullUrl": "urn:uuid:742d49df-c77f-430f-a11c-b94014ec4c37",
      "resource": {
        "resourceType": "Observation",
        "id": "742d49df-c77f-430f-a11c-b94014ec4c37",
        "meta": {
          "profile": [
            "http://hl7.eu/fhir/laboratory/StructureDefinition/Observation-resultslab-eu-lab"
          ]
        },
        "performer": [
          {
            "display": "The Central European Lab"
          }
        ],
        "category": [
          {
            "coding": [
              {
                "system": "http://terminology.hl7.org/CodeSystem/observation-category",
                "code": "laboratory"
              }
            ]
          }
        ],
        "code": {
          "coding": [
            {
              "code": "2345-7",
              "system": "http://loinc.org",
              "display": "Glucose [Mass/volume] in Serum or Plasma"
            }
          ],
          "text": "Glucose [Mass/volume] in Serum or Plasma"
        },
        "valueQuantity": {
          "system": "http://unitsofmeasure.org",
          "value": 97,
          "unit": "mg/dL",
          "code": "mg/dL"
        },
        "referenceRange": [
          {
            "low": {
              "value": 70,
              "code": "mg/dL",
              "system": "http://unitsofmeasure.org"
            }
          },
          {
            "high": {
              "value": 99,
              "code": "mg/dL",
              "system": "http://unitsofmeasure.org"
            }
          }
        ],
        "text": {
          "status": "generated",
          "div": "<div xmlns=\"http://www.w3.org/1999/xhtml\"><table class=\"hl7__eu__lab__report\"><tr><th>Test</th><th>08-Sep-2020</th><th>Reference&#xA0;Range</th><th>Unit</th></tr><tr><td>Glucose [Mass/volume] in Serum or Plasma</td><td>97.0</td><td>70 - 99</td><td></td><td>mg/dL</td></tr></table></div>"
        },
        "status": "final",
        "subject": {
          "reference": "urn:uuid:e93038a8-3a20-4da2-b1cd-1920fb859f5b",
          "display": "Meaghan Neary"
        },
        "effectiveDateTime": "2020-09-07T22:11:04Z",
        "specimen": {
          "reference": "urn:uuid:7c44e055-9e2f-4c5a-95c9-b430db4b0c06"
        }
      }
    },
    {
      "fullUrl": "urn:uuid:6491e0d8-7c84-4759-ba85-30839579717c",
      "resource": {
        "resourceType": "Observation",
        "id": "6491e0d8-7c84-4759-ba85-30839579717c",
        "meta": {
          "profile": [
            "http://hl7.eu/fhir/laboratory/StructureDefinition/Observation-resultslab-eu-lab"
          ]
        },
        "performer": [
          {
            "display": "The Central European Lab"
          }
        ],
        "category": [
          {
            "coding": [
              {
                "system": "http://terminology.hl7.org/CodeSystem/observation-category",
                "code": "laboratory"
              }
            ]
          }
        ],
        "code": {
          "coding": [
            {
              "code": "3094-0",
              "system": "http://loinc.org",
              "display": "Urea nitrogen [Mass/volume] in Serum or Plasma"
            }
          ],
          "text": "Urea nitrogen [Mass/volume] in Serum or Plasma"
        },
        "valueQuantity": {
          "system": "http://unitsofmeasure.org",
          "value": 10.3,
          "unit": "mg/dL",
          "code": "mg/dL"
        },
        "referenceRange": [
          {
            "low": {
              "value": 7,
              "code": "mg/dL",
              "system": "http://unitsofmeasure.org"
            }
          },
          {
            "high": {
              "value": 50,
              "code": "mg/dL",
              "system": "http://unitsofmeasure.org"
            }
          }
        ],
        "text": {
          "status": "generated",
          "div": "<div xmlns=\"http://www.w3.org/1999/xhtml\"><table class=\"hl7__eu__lab__report\"><tr><th>Test</th><th>08-Sep-2020</th><th>Reference&#xA0;Range</th><th>Unit</th></tr><tr><td>Urea nitrogen [Mass/volume] in Serum or Plasma</td><td>10.3</td><td>7 - 50</td><td></td><td>mg/dL</td></tr></table></div>"
        },
        "status": "final",
        "subject": {
          "reference": "urn:uuid:e93038a8-3a20-4da2-b1cd-1920fb859f5b",
          "display": "Meaghan Neary"
        },
        "effectiveDateTime": "2020-09-07T22:11:04Z",
        "specimen": {
          "reference": "urn:uuid:7c44e055-9e2f-4c5a-95c9-b430db4b0c06"
        }
      }
    },
    {
      "fullUrl": "urn:uuid:f21d7293-d43f-4af8-a51b-eb5eeeac0ec5",
      "resource": {
        "resourceType": "Observation",
        "id": "f21d7293-d43f-4af8-a51b-eb5eeeac0ec5",
        "meta": {
          "profile": [
            "http://hl7.eu/fhir/laboratory/StructureDefinition/Observation-resultslab-eu-lab"
          ]
        },
        "performer": [
          {
            "display": "The Central European Lab"
          }
        ],
        "category": [
          {
            "coding": [
              {
                "system": "http://terminology.hl7.org/CodeSystem/observation-category",
                "code": "laboratory"
              }
            ]
          }
        ],
        "code": {
          "coding": [
            {
              "code": "2160-0",
              "system": "http://loinc.org",
              "display": "Creatinine [Mass/volume] in Serum or Plasma"
            }
          ],
          "text": "Creatinine [Mass/volume] in Serum or Plasma"
        },
        "valueQuantity": {
          "system": "http://unitsofmeasure.org",
          "value": 2,
          "unit": "mg/dL",
          "code": "mg/dL"
        },
        "referenceRange": [
          {
            "low": {
              "value": 0.6,
              "code": "mg/dL",
              "system": "http://unitsofmeasure.org"
            }
          },
          {
            "high": {
              "value": 1.1,
              "code": "mg/dL",
              "system": "http://unitsofmeasure.org"
            }
          }
        ],
        "interpretation": [
          {
            "coding": [
              {
                "code": "H",
                "system": "http://terminology.hl7.org/CodeSystem/v3-ObservationInterpretation",
                "display": "High"
              }
            ]
          }
        ],
        "text": {
          "status": "generated",
          "div": "<div xmlns=\"http://www.w3.org/1999/xhtml\"><table class=\"hl7__eu__lab__report\"><tr><th>Test</th><th>08-Sep-2020</th><th>Reference&#xA0;Range</th><th>Unit</th></tr><tr><td>Creatinine [Mass/volume] in Serum or Plasma</td><td>2.0</td><td>0.6 - 1.1</td><td>H</td><td>mg/dL</td></tr></table></div>"
        },
        "status": "final",
        "subject": {
          "reference": "urn:uuid:e93038a8-3a20-4da2-b1cd-1920fb859f5b",
          "display": "Meaghan Neary"
        },
        "effectiveDateTime": "2020-09-07T22:11:04Z",
        "specimen": {
          "reference": "urn:uuid:7c44e055-9e2f-4c5a-95c9-b430db4b0c06"
        }
      }
    },
    {
      "fullUrl": "urn:uuid:77095b04-af61-4b52-a1c5-342c96acd2aa",
      "resource": {
        "resourceType": "Observation",
        "id": "77095b04-af61-4b52-a1c5-342c96acd2aa",
        "meta": {
          "profile": [
            "http://hl7.eu/fhir/laboratory/StructureDefinition/Observation-resultslab-eu-lab"
          ]
        },
        "performer": [
          {
            "display": "The Central European Lab"
          }
        ],
        "category": [
          {
            "coding": [
              {
                "system": "http://terminology.hl7.org/CodeSystem/observation-category",
                "code": "laboratory"
              }
            ]
          }
        ],
        "code": {
          "coding": [
            {
              "code": "17861-6",
              "system": "http://loinc.org",
              "display": "Calcium [Mass/volume] in Serum or Plasma"
            }
          ],
          "text": "Calcium [Mass/volume] in Serum or Plasma"
        },
        "valueQuantity": {
          "system": "http://unitsofmeasure.org",
          "value": 9.2,
          "unit": "mg/dL",
          "code": "mg/dL"
        },
        "referenceRange": [
          {
            "low": {
              "value": 8.6,
              "code": "mg/dL",
              "system": "http://unitsofmeasure.org"
            }
          },
          {
            "high": {
              "value": 10.4,
              "code": "mg/dL",
              "system": "http://unitsofmeasure.org"
            }
          }
        ],
        "text": {
          "status": "generated",
          "div": "<div xmlns=\"http://www.w3.org/1999/xhtml\"><table class=\"hl7__eu__lab__report\"><tr><th>Test</th><th>08-Sep-2020</th><th>Reference&#xA0;Range</th><th>Unit</th></tr><tr><td>Calcium [Mass/volume] in Serum or Plasma</td><td>9.2</td><td>8.6 - 10.4</td><td></td><td>mg/dL</td></tr></table></div>"
        },
        "status": "final",
        "subject": {
          "reference": "urn:uuid:e93038a8-3a20-4da2-b1cd-1920fb859f5b",
          "display": "Meaghan Neary"
        },
        "effectiveDateTime": "2020-09-07T22:11:04Z",
        "specimen": {
          "reference": "urn:uuid:7c44e055-9e2f-4c5a-95c9-b430db4b0c06"
        }
      }
    },
    {
      "fullUrl": "urn:uuid:466325a0-f311-452e-9d83-b8749f94968f",
      "resource": {
        "resourceType": "Observation",
        "id": "466325a0-f311-452e-9d83-b8749f94968f",
        "meta": {
          "profile": [
            "http://hl7.eu/fhir/laboratory/StructureDefinition/Observation-resultslab-eu-lab"
          ]
        },
        "performer": [
          {
            "display": "The Central European Lab"
          }
        ],
        "category": [
          {
            "coding": [
              {
                "system": "http://terminology.hl7.org/CodeSystem/observation-category",
                "code": "laboratory"
              }
            ]
          }
        ],
        "code": {
          "coding": [
            {
              "code": "2951-2",
              "system": "http://loinc.org",
              "display": "Sodium [Moles/volume] in Serum or Plasma"
            }
          ],
          "text": "Sodium [Moles/volume] in Serum or Plasma"
        },
        "valueQuantity": {
          "system": "http://unitsofmeasure.org",
          "value": 141.8,
          "unit": "mmol/L",
          "code": "mmol/L"
        },
        "referenceRange": [
          {
            "low": {
              "value": 135,
              "code": "mmol/L",
              "system": "http://unitsofmeasure.org"
            }
          },
          {
            "high": {
              "value": 145,
              "code": "mmol/L",
              "system": "http://unitsofmeasure.org"
            }
          }
        ],
        "text": {
          "status": "generated",
          "div": "<div xmlns=\"http://www.w3.org/1999/xhtml\"><table class=\"hl7__eu__lab__report\"><tr><th>Test</th><th>08-Sep-2020</th><th>Reference&#xA0;Range</th><th>Unit</th></tr><tr><td>Sodium [Moles/volume] in Serum or Plasma</td><td>141.8</td><td>135 - 145</td><td></td><td>mmol/L</td></tr></table></div>"
        },
        "status": "final",
        "subject": {
          "reference": "urn:uuid:e93038a8-3a20-4da2-b1cd-1920fb859f5b",
          "display": "Meaghan Neary"
        },
        "effectiveDateTime": "2020-09-07T22:11:04Z",
        "specimen": {
          "reference": "urn:uuid:7c44e055-9e2f-4c5a-95c9-b430db4b0c06"
        }
      }
    },
    {
      "fullUrl": "urn:uuid:53fa1cb4-d1a0-4606-af18-f9ad31aabb5a",
      "resource": {
        "resourceType": "Observation",
        "id": "53fa1cb4-d1a0-4606-af18-f9ad31aabb5a",
        "meta": {
          "profile": [
            "http://hl7.eu/fhir/laboratory/StructureDefinition/Observation-resultslab-eu-lab"
          ]
        },
        "performer": [
          {
            "display": "The Central European Lab"
          }
        ],
        "category": [
          {
            "coding": [
              {
                "system": "http://terminology.hl7.org/CodeSystem/observation-category",
                "code": "laboratory"
              }
            ]
          }
        ],
        "code": {
          "coding": [
            {
              "code": "2823-3",
              "system": "http://loinc.org",
              "display": "Potassium [Moles/volume] in Serum or Plasma"
            }
          ],
          "text": "Potassium [Moles/volume] in Serum or Plasma"
        },
        "valueQuantity": {
          "system": "http://unitsofmeasure.org",
          "value": 5,
          "unit": "mmol/L",
          "code": "mmol/L"
        },
        "referenceRange": [
          {
            "low": {
              "value": 3.5,
              "code": "mmol/L",
              "system": "http://unitsofmeasure.org"
            }
          },
          {
            "high": {
              "value": 5.1,
              "code": "mmol/L",
              "system": "http://unitsofmeasure.org"
            }
          }
        ],
        "text": {
          "status": "generated",
          "div": "<div xmlns=\"http://www.w3.org/1999/xhtml\"><table class=\"hl7__eu__lab__report\"><tr><th>Test</th><th>08-Sep-2020</th><th>Reference&#xA0;Range</th><th>Unit</th></tr><tr><td>Potassium [Moles/volume] in Serum or Plasma</td><td>5.0</td><td>3.5 - 5.1</td><td></td><td>mmol/L</td></tr></table></div>"
        },
        "status": "final",
        "subject": {
          "reference": "urn:uuid:e93038a8-3a20-4da2-b1cd-1920fb859f5b",
          "display": "Meaghan Neary"
        },
        "effectiveDateTime": "2020-09-07T22:11:04Z",
        "specimen": {
          "reference": "urn:uuid:7c44e055-9e2f-4c5a-95c9-b430db4b0c06"
        }
      }
    },
    {
      "fullUrl": "urn:uuid:d9015fa4-1d4a-4675-af2c-f4ae7eed5f00",
      "resource": {
        "resourceType": "Observation",
        "id": "d9015fa4-1d4a-4675-af2c-f4ae7eed5f00",
        "meta": {
          "profile": [
            "http://hl7.eu/fhir/laboratory/StructureDefinition/Observation-resultslab-eu-lab"
          ]
        },
        "performer": [
          {
            "display": "The Central European Lab"
          }
        ],
        "category": [
          {
            "coding": [
              {
                "system": "http://terminology.hl7.org/CodeSystem/observation-category",
                "code": "laboratory"
              }
            ]
          }
        ],
        "code": {
          "coding": [
            {
              "code": "2075-0",
              "system": "http://loinc.org",
              "display": "Chloride [Moles/volume] in Serum or Plasma"
            }
          ],
          "text": "Chloride [Moles/volume] in Serum or Plasma"
        },
        "valueQuantity": {
          "system": "http://unitsofmeasure.org",
          "value": 104.8,
          "unit": "mmol/L",
          "code": "mmol/L"
        },
        "referenceRange": [
          {
            "low": {
              "value": 98,
              "code": "mmol/L",
              "system": "http://unitsofmeasure.org"
            }
          },
          {
            "high": {
              "value": 108,
              "code": "mmol/L",
              "system": "http://unitsofmeasure.org"
            }
          }
        ],
        "text": {
          "status": "generated",
          "div": "<div xmlns=\"http://www.w3.org/1999/xhtml\"><table class=\"hl7__eu__lab__report\"><tr><th>Test</th><th>08-Sep-2020</th><th>Reference&#xA0;Range</th><th>Unit</th></tr><tr><td>Chloride [Moles/volume] in Serum or Plasma</td><td>104.8</td><td>98 - 108</td><td></td><td>mmol/L</td></tr></table></div>"
        },
        "status": "final",
        "subject": {
          "reference": "urn:uuid:e93038a8-3a20-4da2-b1cd-1920fb859f5b",
          "display": "Meaghan Neary"
        },
        "effectiveDateTime": "2020-09-07T22:11:04Z",
        "specimen": {
          "reference": "urn:uuid:7c44e055-9e2f-4c5a-95c9-b430db4b0c06"
        }
      }
    },
    {
      "fullUrl": "urn:uuid:6dfa8ce3-0790-46e6-84c3-c4b58144f341",
      "resource": {
        "resourceType": "Observation",
        "id": "6dfa8ce3-0790-46e6-84c3-c4b58144f341",
        "meta": {
          "profile": [
            "http://hl7.eu/fhir/laboratory/StructureDefinition/Observation-resultslab-eu-lab"
          ]
        },
        "performer": [
          {
            "display": "The Central European Lab"
          }
        ],
        "category": [
          {
            "coding": [
              {
                "system": "http://terminology.hl7.org/CodeSystem/observation-category",
                "code": "laboratory"
              }
            ]
          }
        ],
        "code": {
          "coding": [
            {
              "code": "2028-9",
              "system": "http://loinc.org",
              "display": "Carbon dioxide, total [Moles/volume] in Serum or Plasma"
            }
          ],
          "text": "Carbon dioxide, total [Moles/volume] in Serum or Plasma"
        },
        "valueQuantity": {
          "system": "http://unitsofmeasure.org",
          "value": 26.4,
          "unit": "mmol/L",
          "code": "mmol/L"
        },
        "referenceRange": [
          {
            "low": {
              "value": 22,
              "code": "mmol/L",
              "system": "http://unitsofmeasure.org"
            }
          },
          {
            "high": {
              "value": 32,
              "code": "mmol/L",
              "system": "http://unitsofmeasure.org"
            }
          }
        ],
        "text": {
          "status": "generated",
          "div": "<div xmlns=\"http://www.w3.org/1999/xhtml\"><table class=\"hl7__eu__lab__report\"><tr><th>Test</th><th>08-Sep-2020</th><th>Reference&#xA0;Range</th><th>Unit</th></tr><tr><td>Carbon dioxide, total [Moles/volume] in Serum or Plasma</td><td>26.4</td><td>22 - 32</td><td></td><td>mmol/L</td></tr></table></div>"
        },
        "status": "final",
        "subject": {
          "reference": "urn:uuid:e93038a8-3a20-4da2-b1cd-1920fb859f5b",
          "display": "Meaghan Neary"
        },
        "effectiveDateTime": "2020-09-07T22:11:04Z",
        "specimen": {
          "reference": "urn:uuid:7c44e055-9e2f-4c5a-95c9-b430db4b0c06"
        }
      }
    },
    {
      "fullUrl": "urn:uuid:6539ef14-ee2a-4cac-8362-061283f426ee",
      "resource": {
        "resourceType": "Observation",
        "id": "6539ef14-ee2a-4cac-8362-061283f426ee",
        "meta": {
          "profile": [
            "http://hl7.eu/fhir/laboratory/StructureDefinition/Observation-resultslab-eu-lab"
          ]
        },
        "performer": [
          {
            "display": "The Central European Lab"
          }
        ],
        "category": [
          {
            "coding": [
              {
                "system": "http://terminology.hl7.org/CodeSystem/observation-category",
                "code": "laboratory"
              }
            ]
          }
        ],
        "code": {
          "coding": [
            {
              "code": "5767-9",
              "system": "http://loinc.org",
              "display": "Appearance of Urine"
            }
          ],
          "text": "Appearance of Urine"
        },
        "text": {
          "status": "generated",
          "div": "<div xmlns=\"http://www.w3.org/1999/xhtml\"><table class=\"hl7__eu__lab__report\"><tr><th>Test</th><th>08-Sep-2020</th><th>Reference&#xA0;Range</th><th>Unit</th></tr><tr><td>Appearance of Urine</td></tr></table></div>"
        },
        "status": "final",
        "subject": {
          "reference": "urn:uuid:e93038a8-3a20-4da2-b1cd-1920fb859f5b",
          "display": "Meaghan Neary"
        },
        "effectiveDateTime": "2020-09-07T22:11:04Z",
        "specimen": {
          "reference": "urn:uuid:61661e68-c2fd-4dd7-9656-2a3961b65946"
        }
      }
    },
    {
      "fullUrl": "urn:uuid:232419da-b549-43ba-acd2-78b8fa3a8b07",
      "resource": {
        "resourceType": "Observation",
        "id": "232419da-b549-43ba-acd2-78b8fa3a8b07",
        "meta": {
          "profile": [
            "http://hl7.eu/fhir/laboratory/StructureDefinition/Observation-resultslab-eu-lab"
          ]
        },
        "performer": [
          {
            "display": "The Central European Lab"
          }
        ],
        "category": [
          {
            "coding": [
              {
                "system": "http://terminology.hl7.org/CodeSystem/observation-category",
                "code": "laboratory"
              }
            ]
          }
        ],
        "code": {
          "coding": [
            {
              "code": "34533-0",
              "system": "http://loinc.org",
              "display": "Odor of Urine"
            }
          ],
          "text": "Odor of Urine"
        },
        "text": {
          "status": "generated",
          "div": "<div xmlns=\"http://www.w3.org/1999/xhtml\"><table class=\"hl7__eu__lab__report\"><tr><th>Test</th><th>08-Sep-2020</th><th>Reference&#xA0;Range</th><th>Unit</th></tr><tr><td>Odor of Urine</td></tr></table></div>"
        },
        "status": "final",
        "subject": {
          "reference": "urn:uuid:e93038a8-3a20-4da2-b1cd-1920fb859f5b",
          "display": "Meaghan Neary"
        },
        "effectiveDateTime": "2020-09-07T22:11:04Z",
        "specimen": {
          "reference": "urn:uuid:61661e68-c2fd-4dd7-9656-2a3961b65946"
        }
      }
    },
    {
      "fullUrl": "urn:uuid:beb3bb7d-86e0-4432-b7af-389e37c9e864",
      "resource": {
        "resourceType": "Observation",
        "id": "beb3bb7d-86e0-4432-b7af-389e37c9e864",
        "meta": {
          "profile": [
            "http://hl7.eu/fhir/laboratory/StructureDefinition/Observation-resultslab-eu-lab"
          ]
        },
        "performer": [
          {
            "display": "The Central European Lab"
          }
        ],
        "category": [
          {
            "coding": [
              {
                "system": "http://terminology.hl7.org/CodeSystem/observation-category",
                "code": "laboratory"
              }
            ]
          }
        ],
        "code": {
          "coding": [
            {
              "code": "32167-9",
              "system": "http://loinc.org",
              "display": "Clarity of Urine"
            }
          ],
          "text": "Clarity of Urine"
        },
        "text": {
          "status": "generated",
          "div": "<div xmlns=\"http://www.w3.org/1999/xhtml\"><table class=\"hl7__eu__lab__report\"><tr><th>Test</th><th>08-Sep-2020</th><th>Reference&#xA0;Range</th><th>Unit</th></tr><tr><td>Clarity of Urine</td></tr></table></div>"
        },
        "status": "final",
        "subject": {
          "reference": "urn:uuid:e93038a8-3a20-4da2-b1cd-1920fb859f5b",
          "display": "Meaghan Neary"
        },
        "effectiveDateTime": "2020-09-07T22:11:04Z",
        "specimen": {
          "reference": "urn:uuid:61661e68-c2fd-4dd7-9656-2a3961b65946"
        }
      }
    },
    {
      "fullUrl": "urn:uuid:d528ac4d-9191-4016-be3b-657cc4d1e388",
      "resource": {
        "resourceType": "Observation",
        "id": "d528ac4d-9191-4016-be3b-657cc4d1e388",
        "meta": {
          "profile": [
            "http://hl7.eu/fhir/laboratory/StructureDefinition/Observation-resultslab-eu-lab"
          ]
        },
        "performer": [
          {
            "display": "The Central European Lab"
          }
        ],
        "category": [
          {
            "coding": [
              {
                "system": "http://terminology.hl7.org/CodeSystem/observation-category",
                "code": "laboratory"
              }
            ]
          }
        ],
        "code": {
          "coding": [
            {
              "code": "5778-6",
              "system": "http://loinc.org",
              "display": "Color of Urine"
            }
          ],
          "text": "Color of Urine"
        },
        "text": {
          "status": "generated",
          "div": "<div xmlns=\"http://www.w3.org/1999/xhtml\"><table class=\"hl7__eu__lab__report\"><tr><th>Test</th><th>08-Sep-2020</th><th>Reference&#xA0;Range</th><th>Unit</th></tr><tr><td>Color of Urine</td></tr></table></div>"
        },
        "status": "final",
        "subject": {
          "reference": "urn:uuid:e93038a8-3a20-4da2-b1cd-1920fb859f5b",
          "display": "Meaghan Neary"
        },
        "effectiveDateTime": "2020-09-07T22:11:04Z",
        "specimen": {
          "reference": "urn:uuid:61661e68-c2fd-4dd7-9656-2a3961b65946"
        }
      }
    },
    {
      "fullUrl": "urn:uuid:bf5ae0dc-9122-4b0c-8614-0aab4630b90b",
      "resource": {
        "resourceType": "Observation",
        "id": "bf5ae0dc-9122-4b0c-8614-0aab4630b90b",
        "meta": {
          "profile": [
            "http://hl7.eu/fhir/laboratory/StructureDefinition/Observation-resultslab-eu-lab"
          ]
        },
        "performer": [
          {
            "display": "The Central European Lab"
          }
        ],
        "category": [
          {
            "coding": [
              {
                "system": "http://terminology.hl7.org/CodeSystem/observation-category",
                "code": "laboratory"
              }
            ]
          }
        ],
        "code": {
          "coding": [
            {
              "code": "5792-7",
              "system": "http://loinc.org",
              "display": "Glucose [Mass/volume] in Urine by Test strip"
            }
          ],
          "text": "Glucose [Mass/volume] in Urine by Test strip"
        },
        "valueQuantity": {
          "system": "http://unitsofmeasure.org",
          "value": 1.3,
          "unit": "mg/dL",
          "code": "mg/dL"
        },
        "referenceRange": [
          {
            "low": {
              "value": 0.8,
              "code": "mg/dL",
              "system": "http://unitsofmeasure.org"
            }
          },
          {
            "high": {
              "value": 0,
              "code": "mg/dL",
              "system": "http://unitsofmeasure.org"
            }
          }
        ],
        "interpretation": [
          {
            "coding": [
              {
                "code": "H",
                "system": "http://terminology.hl7.org/CodeSystem/v3-ObservationInterpretation",
                "display": "High"
              }
            ]
          }
        ],
        "text": {
          "status": "generated",
          "div": "<div xmlns=\"http://www.w3.org/1999/xhtml\"><table class=\"hl7__eu__lab__report\"><tr><th>Test</th><th>08-Sep-2020</th><th>Reference&#xA0;Range</th><th>Unit</th></tr><tr><td>Glucose [Mass/volume] in Urine by Test strip</td><td>1.3</td><td>0.8 - 0</td><td>H</td><td>mg/dL</td></tr></table></div>"
        },
        "status": "final",
        "subject": {
          "reference": "urn:uuid:e93038a8-3a20-4da2-b1cd-1920fb859f5b",
          "display": "Meaghan Neary"
        },
        "effectiveDateTime": "2020-09-07T22:11:04Z",
        "specimen": {
          "reference": "urn:uuid:61661e68-c2fd-4dd7-9656-2a3961b65946"
        }
      }
    },
    {
      "fullUrl": "urn:uuid:f1df5778-5504-4403-b479-fb07a5845acd",
      "resource": {
        "resourceType": "Observation",
        "id": "f1df5778-5504-4403-b479-fb07a5845acd",
        "meta": {
          "profile": [
            "http://hl7.eu/fhir/laboratory/StructureDefinition/Observation-resultslab-eu-lab"
          ]
        },
        "performer": [
          {
            "display": "The Central European Lab"
          }
        ],
        "category": [
          {
            "coding": [
              {
                "system": "http://terminology.hl7.org/CodeSystem/observation-category",
                "code": "laboratory"
              }
            ]
          }
        ],
        "code": {
          "coding": [
            {
              "code": "25428-4",
              "system": "http://loinc.org",
              "display": "Glucose [Presence] in Urine by Test strip"
            }
          ],
          "text": "Glucose [Presence] in Urine by Test strip"
        },
        "text": {
          "status": "generated",
          "div": "<div xmlns=\"http://www.w3.org/1999/xhtml\"><table class=\"hl7__eu__lab__report\"><tr><th>Test</th><th>08-Sep-2020</th><th>Reference&#xA0;Range</th><th>Unit</th></tr><tr><td>Glucose [Presence] in Urine by Test strip</td></tr></table></div>"
        },
        "status": "final",
        "subject": {
          "reference": "urn:uuid:e93038a8-3a20-4da2-b1cd-1920fb859f5b",
          "display": "Meaghan Neary"
        },
        "effectiveDateTime": "2020-09-07T22:11:04Z",
        "specimen": {
          "reference": "urn:uuid:61661e68-c2fd-4dd7-9656-2a3961b65946"
        }
      }
    },
    {
      "fullUrl": "urn:uuid:68f5b165-c270-45d1-853f-dfae7365f579",
      "resource": {
        "resourceType": "Observation",
        "id": "68f5b165-c270-45d1-853f-dfae7365f579",
        "meta": {
          "profile": [
            "http://hl7.eu/fhir/laboratory/StructureDefinition/Observation-resultslab-eu-lab"
          ]
        },
        "performer": [
          {
            "display": "The Central European Lab"
          }
        ],
        "category": [
          {
            "coding": [
              {
                "system": "http://terminology.hl7.org/CodeSystem/observation-category",
                "code": "laboratory"
              }
            ]
          }
        ],
        "code": {
          "coding": [
            {
              "code": "20505-4",
              "system": "http://loinc.org",
              "display": "Bilirubin.total [Mass/volume] in Urine by Test strip"
            }
          ],
          "text": "Bilirubin.total [Mass/volume] in Urine by Test strip"
        },
        "valueQuantity": {
          "system": "http://unitsofmeasure.org",
          "value": 1.1,
          "unit": "mg/dL",
          "code": "mg/dL"
        },
        "referenceRange": [
          {
            "low": {
              "value": 0,
              "code": "mg/dL",
              "system": "http://unitsofmeasure.org"
            }
          },
          {
            "high": {
              "value": 1,
              "code": "mg/dL",
              "system": "http://unitsofmeasure.org"
            }
          }
        ],
        "interpretation": [
          {
            "coding": [
              {
                "code": "H",
                "system": "http://terminology.hl7.org/CodeSystem/v3-ObservationInterpretation",
                "display": "High"
              }
            ]
          }
        ],
        "text": {
          "status": "generated",
          "div": "<div xmlns=\"http://www.w3.org/1999/xhtml\"><table class=\"hl7__eu__lab__report\"><tr><th>Test</th><th>08-Sep-2020</th><th>Reference&#xA0;Range</th><th>Unit</th></tr><tr><td>Bilirubin.total [Mass/volume] in Urine by Test strip</td><td>1.1</td><td>0 - 1</td><td>H</td><td>mg/dL</td></tr></table></div>"
        },
        "status": "final",
        "subject": {
          "reference": "urn:uuid:e93038a8-3a20-4da2-b1cd-1920fb859f5b",
          "display": "Meaghan Neary"
        },
        "effectiveDateTime": "2020-09-07T22:11:04Z",
        "specimen": {
          "reference": "urn:uuid:61661e68-c2fd-4dd7-9656-2a3961b65946"
        }
      }
    },
    {
      "fullUrl": "urn:uuid:6a4e7887-92a1-4305-8dbf-4d486910cf05",
      "resource": {
        "resourceType": "Observation",
        "id": "6a4e7887-92a1-4305-8dbf-4d486910cf05",
        "meta": {
          "profile": [
            "http://hl7.eu/fhir/laboratory/StructureDefinition/Observation-resultslab-eu-lab"
          ]
        },
        "performer": [
          {
            "display": "The Central European Lab"
          }
        ],
        "category": [
          {
            "coding": [
              {
                "system": "http://terminology.hl7.org/CodeSystem/observation-category",
                "code": "laboratory"
              }
            ]
          }
        ],
        "code": {
          "coding": [
            {
              "code": "5770-3",
              "system": "http://loinc.org",
              "display": "Bilirubin.total [Presence] in Urine by Test strip"
            }
          ],
          "text": "Bilirubin.total [Presence] in Urine by Test strip"
        },
        "text": {
          "status": "generated",
          "div": "<div xmlns=\"http://www.w3.org/1999/xhtml\"><table class=\"hl7__eu__lab__report\"><tr><th>Test</th><th>08-Sep-2020</th><th>Reference&#xA0;Range</th><th>Unit</th></tr><tr><td>Bilirubin.total [Presence] in Urine by Test strip</td></tr></table></div>"
        },
        "status": "final",
        "subject": {
          "reference": "urn:uuid:e93038a8-3a20-4da2-b1cd-1920fb859f5b",
          "display": "Meaghan Neary"
        },
        "effectiveDateTime": "2020-09-07T22:11:04Z",
        "specimen": {
          "reference": "urn:uuid:61661e68-c2fd-4dd7-9656-2a3961b65946"
        }
      }
    },
    {
      "fullUrl": "urn:uuid:63225421-2849-4c3d-838a-b95f011914d0",
      "resource": {
        "resourceType": "Observation",
        "id": "63225421-2849-4c3d-838a-b95f011914d0",
        "meta": {
          "profile": [
            "http://hl7.eu/fhir/laboratory/StructureDefinition/Observation-resultslab-eu-lab"
          ]
        },
        "performer": [
          {
            "display": "The Central European Lab"
          }
        ],
        "category": [
          {
            "coding": [
              {
                "system": "http://terminology.hl7.org/CodeSystem/observation-category",
                "code": "laboratory"
              }
            ]
          }
        ],
        "code": {
          "coding": [
            {
              "code": "5797-6",
              "system": "http://loinc.org",
              "display": "Ketones [Mass/volume] in Urine by Test strip"
            }
          ],
          "text": "Ketones [Mass/volume] in Urine by Test strip"
        },
        "valueQuantity": {
          "system": "http://unitsofmeasure.org",
          "value": 8.7,
          "unit": "mg/dL",
          "code": "mg/dL"
        },
        "referenceRange": [
          {
            "low": {
              "value": 0,
              "code": "mg/dL",
              "system": "http://unitsofmeasure.org"
            }
          },
          {
            "high": {
              "value": 4,
              "code": "mg/dL",
              "system": "http://unitsofmeasure.org"
            }
          }
        ],
        "interpretation": [
          {
            "coding": [
              {
                "code": "H",
                "system": "http://terminology.hl7.org/CodeSystem/v3-ObservationInterpretation",
                "display": "High"
              }
            ]
          }
        ],
        "text": {
          "status": "generated",
          "div": "<div xmlns=\"http://www.w3.org/1999/xhtml\"><table class=\"hl7__eu__lab__report\"><tr><th>Test</th><th>08-Sep-2020</th><th>Reference&#xA0;Range</th><th>Unit</th></tr><tr><td>Ketones [Mass/volume] in Urine by Test strip</td><td>8.7</td><td>0 - 4</td><td>H</td><td>mg/dL</td></tr></table></div>"
        },
        "status": "final",
        "subject": {
          "reference": "urn:uuid:e93038a8-3a20-4da2-b1cd-1920fb859f5b",
          "display": "Meaghan Neary"
        },
        "effectiveDateTime": "2020-09-07T22:11:04Z",
        "specimen": {
          "reference": "urn:uuid:61661e68-c2fd-4dd7-9656-2a3961b65946"
        }
      }
    },
    {
      "fullUrl": "urn:uuid:7bf5aab2-a028-4f8a-8cd1-288deee888c2",
      "resource": {
        "resourceType": "Observation",
        "id": "7bf5aab2-a028-4f8a-8cd1-288deee888c2",
        "meta": {
          "profile": [
            "http://hl7.eu/fhir/laboratory/StructureDefinition/Observation-resultslab-eu-lab"
          ]
        },
        "performer": [
          {
            "display": "The Central European Lab"
          }
        ],
        "category": [
          {
            "coding": [
              {
                "system": "http://terminology.hl7.org/CodeSystem/observation-category",
                "code": "laboratory"
              }
            ]
          }
        ],
        "code": {
          "coding": [
            {
              "code": "2514-8",
              "system": "http://loinc.org",
              "display": "Ketones [Presence] in Urine by Test strip"
            }
          ],
          "text": "Ketones [Presence] in Urine by Test strip"
        },
        "text": {
          "status": "generated",
          "div": "<div xmlns=\"http://www.w3.org/1999/xhtml\"><table class=\"hl7__eu__lab__report\"><tr><th>Test</th><th>08-Sep-2020</th><th>Reference&#xA0;Range</th><th>Unit</th></tr><tr><td>Ketones [Presence] in Urine by Test strip</td></tr></table></div>"
        },
        "status": "final",
        "subject": {
          "reference": "urn:uuid:e93038a8-3a20-4da2-b1cd-1920fb859f5b",
          "display": "Meaghan Neary"
        },
        "effectiveDateTime": "2020-09-07T22:11:04Z",
        "specimen": {
          "reference": "urn:uuid:61661e68-c2fd-4dd7-9656-2a3961b65946"
        }
      }
    },
    {
      "fullUrl": "urn:uuid:ba535bcb-9a74-47d9-92ed-21988832a63c",
      "resource": {
        "resourceType": "Observation",
        "id": "ba535bcb-9a74-47d9-92ed-21988832a63c",
        "meta": {
          "profile": [
            "http://hl7.eu/fhir/laboratory/StructureDefinition/Observation-resultslab-eu-lab"
          ]
        },
        "performer": [
          {
            "display": "The Central European Lab"
          }
        ],
        "category": [
          {
            "coding": [
              {
                "system": "http://terminology.hl7.org/CodeSystem/observation-category",
                "code": "laboratory"
              }
            ]
          }
        ],
        "code": {
          "coding": [
            {
              "code": "5811-5",
              "system": "http://loinc.org",
              "display": "Specific gravity of Urine by Test strip"
            }
          ],
          "text": "Specific gravity of Urine by Test strip"
        },
        "valueQuantity": {
          "system": "http://unitsofmeasure.org",
          "value": 1,
          "unit": "{nominal}",
          "code": "{nominal}"
        },
        "referenceRange": [
          {
            "low": {
              "value": 1.005,
              "code": "g/mL",
              "system": "http://unitsofmeasure.org"
            }
          },
          {
            "high": {
              "value": 1.03,
              "code": "g/mL",
              "system": "http://unitsofmeasure.org"
            }
          }
        ],
        "interpretation": [
          {
            "coding": [
              {
                "code": "L",
                "system": "http://terminology.hl7.org/CodeSystem/v3-ObservationInterpretation",
                "display": "Low"
              }
            ]
          }
        ],
        "text": {
          "status": "generated",
          "div": "<div xmlns=\"http://www.w3.org/1999/xhtml\"><table class=\"hl7__eu__lab__report\"><tr><th>Test</th><th>08-Sep-2020</th><th>Reference&#xA0;Range</th><th>Unit</th></tr><tr><td>Specific gravity of Urine by Test strip</td><td>1.0</td><td>1.005 - 1.03</td><td>L</td><td>{nominal}</td></tr></table></div>"
        },
        "status": "final",
        "subject": {
          "reference": "urn:uuid:e93038a8-3a20-4da2-b1cd-1920fb859f5b",
          "display": "Meaghan Neary"
        },
        "effectiveDateTime": "2020-09-07T22:11:04Z",
        "specimen": {
          "reference": "urn:uuid:61661e68-c2fd-4dd7-9656-2a3961b65946"
        }
      }
    },
    {
      "fullUrl": "urn:uuid:9c63ad7e-1203-4694-92e7-165adfdd1aec",
      "resource": {
        "resourceType": "Observation",
        "id": "9c63ad7e-1203-4694-92e7-165adfdd1aec",
        "meta": {
          "profile": [
            "http://hl7.eu/fhir/laboratory/StructureDefinition/Observation-resultslab-eu-lab"
          ]
        },
        "performer": [
          {
            "display": "The Central European Lab"
          }
        ],
        "category": [
          {
            "coding": [
              {
                "system": "http://terminology.hl7.org/CodeSystem/observation-category",
                "code": "laboratory"
              }
            ]
          }
        ],
        "code": {
          "coding": [
            {
              "code": "5803-2",
              "system": "http://loinc.org",
              "display": "pH of Urine by Test strip"
            }
          ],
          "text": "pH of Urine by Test strip"
        },
        "valueQuantity": {
          "system": "http://unitsofmeasure.org",
          "value": 6.1,
          "unit": "pH",
          "code": "pH"
        },
        "referenceRange": [
          {
            "low": {
              "value": 4.6,
              "code": "pH",
              "system": "http://unitsofmeasure.org"
            }
          },
          {
            "high": {
              "value": 7,
              "code": "pH",
              "system": "http://unitsofmeasure.org"
            }
          }
        ],
        "text": {
          "status": "generated",
          "div": "<div xmlns=\"http://www.w3.org/1999/xhtml\"><table class=\"hl7__eu__lab__report\"><tr><th>Test</th><th>08-Sep-2020</th><th>Reference&#xA0;Range</th><th>Unit</th></tr><tr><td>pH of Urine by Test strip</td><td>6.1</td><td>4.6 - 7</td><td></td><td>pH</td></tr></table></div>"
        },
        "status": "final",
        "subject": {
          "reference": "urn:uuid:e93038a8-3a20-4da2-b1cd-1920fb859f5b",
          "display": "Meaghan Neary"
        },
        "effectiveDateTime": "2020-09-07T22:11:04Z",
        "specimen": {
          "reference": "urn:uuid:61661e68-c2fd-4dd7-9656-2a3961b65946"
        }
      }
    },
    {
      "fullUrl": "urn:uuid:e561b43a-5280-4efa-be53-6b33fe2283fc",
      "resource": {
        "resourceType": "Observation",
        "id": "e561b43a-5280-4efa-be53-6b33fe2283fc",
        "meta": {
          "profile": [
            "http://hl7.eu/fhir/laboratory/StructureDefinition/Observation-resultslab-eu-lab"
          ]
        },
        "performer": [
          {
            "display": "The Central European Lab"
          }
        ],
        "category": [
          {
            "coding": [
              {
                "system": "http://terminology.hl7.org/CodeSystem/observation-category",
                "code": "laboratory"
              }
            ]
          }
        ],
        "code": {
          "coding": [
            {
              "code": "5804-0",
              "system": "http://loinc.org",
              "display": "Protein [Mass/volume] in Urine by Test strip"
            }
          ],
          "text": "Protein [Mass/volume] in Urine by Test strip"
        },
        "valueQuantity": {
          "system": "http://unitsofmeasure.org",
          "value": 302.3,
          "unit": "mg/dL",
          "code": "mg/dL"
        },
        "referenceRange": [
          {
            "low": {
              "value": 0,
              "code": "mg/dL",
              "system": "http://unitsofmeasure.org"
            }
          },
          {
            "high": {
              "value": 14,
              "code": "mg/dL",
              "system": "http://unitsofmeasure.org"
            }
          }
        ],
        "interpretation": [
          {
            "coding": [
              {
                "code": "H",
                "system": "http://terminology.hl7.org/CodeSystem/v3-ObservationInterpretation",
                "display": "High"
              }
            ]
          }
        ],
        "text": {
          "status": "generated",
          "div": "<div xmlns=\"http://www.w3.org/1999/xhtml\"><table class=\"hl7__eu__lab__report\"><tr><th>Test</th><th>08-Sep-2020</th><th>Reference&#xA0;Range</th><th>Unit</th></tr><tr><td>Protein [Mass/volume] in Urine by Test strip</td><td>302.3</td><td>0 - 14</td><td>H</td><td>mg/dL</td></tr></table></div>"
        },
        "status": "final",
        "subject": {
          "reference": "urn:uuid:e93038a8-3a20-4da2-b1cd-1920fb859f5b",
          "display": "Meaghan Neary"
        },
        "effectiveDateTime": "2020-09-07T22:11:04Z",
        "specimen": {
          "reference": "urn:uuid:61661e68-c2fd-4dd7-9656-2a3961b65946"
        }
      }
    },
    {
      "fullUrl": "urn:uuid:ebf2d67b-b373-4d29-8f7e-eeb5a99b81aa",
      "resource": {
        "resourceType": "Observation",
        "id": "ebf2d67b-b373-4d29-8f7e-eeb5a99b81aa",
        "meta": {
          "profile": [
            "http://hl7.eu/fhir/laboratory/StructureDefinition/Observation-resultslab-eu-lab"
          ]
        },
        "performer": [
          {
            "display": "The Central European Lab"
          }
        ],
        "category": [
          {
            "coding": [
              {
                "system": "http://terminology.hl7.org/CodeSystem/observation-category",
                "code": "laboratory"
              }
            ]
          }
        ],
        "code": {
          "coding": [
            {
              "code": "20454-5",
              "system": "http://loinc.org",
              "display": "Protein [Presence] in Urine by Test strip"
            }
          ],
          "text": "Protein [Presence] in Urine by Test strip"
        },
        "text": {
          "status": "generated",
          "div": "<div xmlns=\"http://www.w3.org/1999/xhtml\"><table class=\"hl7__eu__lab__report\"><tr><th>Test</th><th>08-Sep-2020</th><th>Reference&#xA0;Range</th><th>Unit</th></tr><tr><td>Protein [Presence] in Urine by Test strip</td></tr></table></div>"
        },
        "status": "final",
        "subject": {
          "reference": "urn:uuid:e93038a8-3a20-4da2-b1cd-1920fb859f5b",
          "display": "Meaghan Neary"
        },
        "effectiveDateTime": "2020-09-07T22:11:04Z",
        "specimen": {
          "reference": "urn:uuid:61661e68-c2fd-4dd7-9656-2a3961b65946"
        }
      }
    },
    {
      "fullUrl": "urn:uuid:adde72e5-a2a1-4c34-817b-11f18ef2732e",
      "resource": {
        "resourceType": "Observation",
        "id": "adde72e5-a2a1-4c34-817b-11f18ef2732e",
        "meta": {
          "profile": [
            "http://hl7.eu/fhir/laboratory/StructureDefinition/Observation-resultslab-eu-lab"
          ]
        },
        "performer": [
          {
            "display": "The Central European Lab"
          }
        ],
        "category": [
          {
            "coding": [
              {
                "system": "http://terminology.hl7.org/CodeSystem/observation-category",
                "code": "laboratory"
              }
            ]
          }
        ],
        "code": {
          "coding": [
            {
              "code": "5802-4",
              "system": "http://loinc.org",
              "display": "Nitrite [Presence] in Urine by Test strip"
            }
          ],
          "text": "Nitrite [Presence] in Urine by Test strip"
        },
        "text": {
          "status": "generated",
          "div": "<div xmlns=\"http://www.w3.org/1999/xhtml\"><table class=\"hl7__eu__lab__report\"><tr><th>Test</th><th>08-Sep-2020</th><th>Reference&#xA0;Range</th><th>Unit</th></tr><tr><td>Nitrite [Presence] in Urine by Test strip</td></tr></table></div>"
        },
        "status": "final",
        "subject": {
          "reference": "urn:uuid:e93038a8-3a20-4da2-b1cd-1920fb859f5b",
          "display": "Meaghan Neary"
        },
        "effectiveDateTime": "2020-09-07T22:11:04Z",
        "specimen": {
          "reference": "urn:uuid:61661e68-c2fd-4dd7-9656-2a3961b65946"
        }
      }
    },
    {
      "fullUrl": "urn:uuid:34cc05cd-a526-4a58-816a-afe10aa69bac",
      "resource": {
        "resourceType": "Observation",
        "id": "34cc05cd-a526-4a58-816a-afe10aa69bac",
        "meta": {
          "profile": [
            "http://hl7.eu/fhir/laboratory/StructureDefinition/Observation-resultslab-eu-lab"
          ]
        },
        "performer": [
          {
            "display": "The Central European Lab"
          }
        ],
        "category": [
          {
            "coding": [
              {
                "system": "http://terminology.hl7.org/CodeSystem/observation-category",
                "code": "laboratory"
              }
            ]
          }
        ],
        "code": {
          "coding": [
            {
              "code": "5794-3",
              "system": "http://loinc.org",
              "display": "Hemoglobin [Presence] in Urine by Test strip"
            }
          ],
          "text": "Hemoglobin [Presence] in Urine by Test strip"
        },
        "text": {
          "status": "generated",
          "div": "<div xmlns=\"http://www.w3.org/1999/xhtml\"><table class=\"hl7__eu__lab__report\"><tr><th>Test</th><th>08-Sep-2020</th><th>Reference&#xA0;Range</th><th>Unit</th></tr><tr><td>Hemoglobin [Presence] in Urine by Test strip</td></tr></table></div>"
        },
        "status": "final",
        "subject": {
          "reference": "urn:uuid:e93038a8-3a20-4da2-b1cd-1920fb859f5b",
          "display": "Meaghan Neary"
        },
        "effectiveDateTime": "2020-09-07T22:11:04Z",
        "specimen": {
          "reference": "urn:uuid:61661e68-c2fd-4dd7-9656-2a3961b65946"
        }
      }
    },
    {
      "fullUrl": "urn:uuid:f7ac4f72-1d2e-4456-97e7-8c44d9a6b42b",
      "resource": {
        "resourceType": "Observation",
        "id": "f7ac4f72-1d2e-4456-97e7-8c44d9a6b42b",
        "meta": {
          "profile": [
            "http://hl7.eu/fhir/laboratory/StructureDefinition/Observation-resultslab-eu-lab"
          ]
        },
        "performer": [
          {
            "display": "The Central European Lab"
          }
        ],
        "category": [
          {
            "coding": [
              {
                "system": "http://terminology.hl7.org/CodeSystem/observation-category",
                "code": "laboratory"
              }
            ]
          }
        ],
        "code": {
          "coding": [
            {
              "code": "5799-2",
              "system": "http://loinc.org",
              "display": "Leukocyte esterase [Presence] in Urine by Test strip"
            }
          ],
          "text": "Leukocyte esterase [Presence] in Urine by Test strip"
        },
        "text": {
          "status": "generated",
          "div": "<div xmlns=\"http://www.w3.org/1999/xhtml\"><table class=\"hl7__eu__lab__report\"><tr><th>Test</th><th>08-Sep-2020</th><th>Reference&#xA0;Range</th><th>Unit</th></tr><tr><td>Leukocyte esterase [Presence] in Urine by Test strip</td></tr></table></div>"
        },
        "status": "final",
        "subject": {
          "reference": "urn:uuid:e93038a8-3a20-4da2-b1cd-1920fb859f5b",
          "display": "Meaghan Neary"
        },
        "effectiveDateTime": "2020-09-07T22:11:04Z",
        "specimen": {
          "reference": "urn:uuid:61661e68-c2fd-4dd7-9656-2a3961b65946"
        }
      }
    },
    {
      "fullUrl": "urn:uuid:90e001a5-8835-4d8e-933f-ecee4baadc3e",
      "resource": {
        "resourceType": "Observation",
        "id": "90e001a5-8835-4d8e-933f-ecee4baadc3e",
        "meta": {
          "profile": [
            "http://hl7.eu/fhir/laboratory/StructureDefinition/Observation-resultslab-eu-lab"
          ]
        },
        "performer": [
          {
            "display": "The Central European Lab"
          }
        ],
        "category": [
          {
            "coding": [
              {
                "system": "http://terminology.hl7.org/CodeSystem/observation-category",
                "code": "laboratory"
              }
            ]
          }
        ],
        "code": {
          "coding": [
            {
              "code": "4548-4",
              "system": "http://loinc.org",
              "display": "Hemoglobin A1c/Hemoglobin.total in Blood"
            }
          ],
          "text": "Hemoglobin A1c/Hemoglobin.total in Blood"
        },
        "valueQuantity": {
          "system": "http://unitsofmeasure.org",
          "value": 3.3,
          "unit": "%",
          "code": "%"
        },
        "referenceRange": [
          {
            "low": {
              "value": 4,
              "code": "%",
              "system": "http://unitsofmeasure.org"
            }
          },
          {
            "high": {
              "value": 6.4,
              "code": "%",
              "system": "http://unitsofmeasure.org"
            }
          }
        ],
        "interpretation": [
          {
            "coding": [
              {
                "code": "L",
                "system": "http://terminology.hl7.org/CodeSystem/v3-ObservationInterpretation",
                "display": "Low"
              }
            ]
          }
        ],
        "text": {
          "status": "generated",
          "div": "<div xmlns=\"http://www.w3.org/1999/xhtml\"><table class=\"hl7__eu__lab__report\"><tr><th>Test</th><th>08-Sep-2020</th><th>Reference&#xA0;Range</th><th>Unit</th></tr><tr><td>Hemoglobin A1c/Hemoglobin.total in Blood</td><td>3.3</td><td>4 - 6.4</td><td>L</td><td>%</td></tr></table></div>"
        },
        "status": "final",
        "subject": {
          "reference": "urn:uuid:e93038a8-3a20-4da2-b1cd-1920fb859f5b",
          "display": "Meaghan Neary"
        },
        "effectiveDateTime": "2020-09-07T22:11:04Z",
        "specimen": {
          "reference": "urn:uuid:2bfbd77f-12cd-4622-8f81-68fd7e6150e3"
        }
      }
    },
    {
      "fullUrl": "urn:uuid:ad91f271-d65f-42b6-ba0e-067a2df7d308",
      "resource": {
        "resourceType": "Observation",
        "id": "ad91f271-d65f-42b6-ba0e-067a2df7d308",
        "meta": {
          "profile": [
            "http://hl7.eu/fhir/laboratory/StructureDefinition/Observation-resultslab-eu-lab"
          ]
        },
        "performer": [
          {
            "display": "The Central European Lab"
          }
        ],
        "category": [
          {
            "coding": [
              {
                "system": "http://terminology.hl7.org/CodeSystem/observation-category",
                "code": "laboratory"
              }
            ]
          }
        ],
        "code": {
          "coding": [
            {
              "code": "2339-0",
              "system": "http://loinc.org",
              "display": "Glucose [Mass/volume] in Blood"
            }
          ],
          "text": "Glucose [Mass/volume] in Blood"
        },
        "valueQuantity": {
          "system": "http://unitsofmeasure.org",
          "value": 97,
          "unit": "mg/dL",
          "code": "mg/dL"
        },
        "referenceRange": [
          {
            "low": {
              "value": 70,
              "code": "mg/dL",
              "system": "http://unitsofmeasure.org"
            }
          },
          {
            "high": {
              "value": 100,
              "code": "mg/dL",
              "system": "http://unitsofmeasure.org"
            }
          }
        ],
        "text": {
          "status": "generated",
          "div": "<div xmlns=\"http://www.w3.org/1999/xhtml\"><table class=\"hl7__eu__lab__report\"><tr><th>Test</th><th>08-Sep-2020</th><th>Reference&#xA0;Range</th><th>Unit</th></tr><tr><td>Glucose [Mass/volume] in Blood</td><td>97.0</td><td>70 - 100</td><td></td><td>mg/dL</td></tr></table></div>"
        },
        "status": "final",
        "subject": {
          "reference": "urn:uuid:e93038a8-3a20-4da2-b1cd-1920fb859f5b",
          "display": "Meaghan Neary"
        },
        "effectiveDateTime": "2020-09-07T22:11:04Z",
        "specimen": {
          "reference": "urn:uuid:2bfbd77f-12cd-4622-8f81-68fd7e6150e3"
        }
      }
    },
    {
      "fullUrl": "urn:uuid:7cdf58a6-6c06-4bbf-aad6-ff0adea2427d",
      "resource": {
        "resourceType": "Observation",
        "id": "7cdf58a6-6c06-4bbf-aad6-ff0adea2427d",
        "meta": {
          "profile": [
            "http://hl7.eu/fhir/laboratory/StructureDefinition/Observation-resultslab-eu-lab"
          ]
        },
        "performer": [
          {
            "display": "The Central European Lab"
          }
        ],
        "category": [
          {
            "coding": [
              {
                "system": "http://terminology.hl7.org/CodeSystem/observation-category",
                "code": "laboratory"
              }
            ]
          }
        ],
        "code": {
          "coding": [
            {
              "code": "6299-2",
              "system": "http://loinc.org",
              "display": "Urea nitrogen [Mass/volume] in Blood"
            }
          ],
          "text": "Urea nitrogen [Mass/volume] in Blood"
        },
        "valueQuantity": {
          "system": "http://unitsofmeasure.org",
          "value": 10.3,
          "unit": "mg/dL",
          "code": "mg/dL"
        },
        "referenceRange": [
          {
            "low": {
              "value": 7,
              "code": "mg/dL",
              "system": "http://unitsofmeasure.org"
            }
          },
          {
            "high": {
              "value": 43,
              "code": "mg/dL",
              "system": "http://unitsofmeasure.org"
            }
          }
        ],
        "text": {
          "status": "generated",
          "div": "<div xmlns=\"http://www.w3.org/1999/xhtml\"><table class=\"hl7__eu__lab__report\"><tr><th>Test</th><th>08-Sep-2020</th><th>Reference&#xA0;Range</th><th>Unit</th></tr><tr><td>Urea nitrogen [Mass/volume] in Blood</td><td>10.3</td><td>7 - 43</td><td></td><td>mg/dL</td></tr></table></div>"
        },
        "status": "final",
        "subject": {
          "reference": "urn:uuid:e93038a8-3a20-4da2-b1cd-1920fb859f5b",
          "display": "Meaghan Neary"
        },
        "effectiveDateTime": "2020-09-07T22:11:04Z",
        "specimen": {
          "reference": "urn:uuid:2bfbd77f-12cd-4622-8f81-68fd7e6150e3"
        }
      }
    },
    {
      "fullUrl": "urn:uuid:dd2a558e-b58e-4f57-9307-5cfd4f3cbe72",
      "resource": {
        "resourceType": "Observation",
        "id": "dd2a558e-b58e-4f57-9307-5cfd4f3cbe72",
        "meta": {
          "profile": [
            "http://hl7.eu/fhir/laboratory/StructureDefinition/Observation-resultslab-eu-lab"
          ]
        },
        "performer": [
          {
            "display": "The Central European Lab"
          }
        ],
        "category": [
          {
            "coding": [
              {
                "system": "http://terminology.hl7.org/CodeSystem/observation-category",
                "code": "laboratory"
              }
            ]
          }
        ],
        "code": {
          "coding": [
            {
              "code": "38483-4",
              "system": "http://loinc.org",
              "display": "Creatinine [Mass/volume] in Blood"
            }
          ],
          "text": "Creatinine [Mass/volume] in Blood"
        },
        "valueQuantity": {
          "system": "http://unitsofmeasure.org",
          "value": 3.5,
          "unit": "mg/dL",
          "code": "mg/dL"
        },
        "referenceRange": [
          {
            "low": {
              "value": 0.6,
              "code": "mg/dL",
              "system": "http://unitsofmeasure.org"
            }
          },
          {
            "high": {
              "value": 1.1,
              "code": "mg/dL",
              "system": "http://unitsofmeasure.org"
            }
          }
        ],
        "interpretation": [
          {
            "coding": [
              {
                "code": "H",
                "system": "http://terminology.hl7.org/CodeSystem/v3-ObservationInterpretation",
                "display": "High"
              }
            ]
          }
        ],
        "text": {
          "status": "generated",
          "div": "<div xmlns=\"http://www.w3.org/1999/xhtml\"><table class=\"hl7__eu__lab__report\"><tr><th>Test</th><th>08-Sep-2020</th><th>Reference&#xA0;Range</th><th>Unit</th></tr><tr><td>Creatinine [Mass/volume] in Blood</td><td>3.5</td><td>0.6 - 1.1</td><td>H</td><td>mg/dL</td></tr></table></div>"
        },
        "status": "final",
        "subject": {
          "reference": "urn:uuid:e93038a8-3a20-4da2-b1cd-1920fb859f5b",
          "display": "Meaghan Neary"
        },
        "effectiveDateTime": "2020-09-07T22:11:04Z",
        "specimen": {
          "reference": "urn:uuid:2bfbd77f-12cd-4622-8f81-68fd7e6150e3"
        }
      }
    },
    {
      "fullUrl": "urn:uuid:60763568-fea6-430b-b9b0-1aad0b020005",
      "resource": {
        "resourceType": "Observation",
        "id": "60763568-fea6-430b-b9b0-1aad0b020005",
        "meta": {
          "profile": [
            "http://hl7.eu/fhir/laboratory/StructureDefinition/Observation-resultslab-eu-lab"
          ]
        },
        "performer": [
          {
            "display": "The Central European Lab"
          }
        ],
        "category": [
          {
            "coding": [
              {
                "system": "http://terminology.hl7.org/CodeSystem/observation-category",
                "code": "laboratory"
              }
            ]
          }
        ],
        "code": {
          "coding": [
            {
              "code": "49765-1",
              "system": "http://loinc.org",
              "display": "Calcium [Mass/volume] in Blood"
            }
          ],
          "text": "Calcium [Mass/volume] in Blood"
        },
        "valueQuantity": {
          "system": "http://unitsofmeasure.org",
          "value": 9.2,
          "unit": "mg/dL",
          "code": "mg/dL"
        },
        "referenceRange": [
          {
            "low": {
              "value": 8.5,
              "code": "mg/dL",
              "system": "http://unitsofmeasure.org"
            }
          },
          {
            "high": {
              "value": 10.5,
              "code": "mg/dL",
              "system": "http://unitsofmeasure.org"
            }
          }
        ],
        "text": {
          "status": "generated",
          "div": "<div xmlns=\"http://www.w3.org/1999/xhtml\"><table class=\"hl7__eu__lab__report\"><tr><th>Test</th><th>08-Sep-2020</th><th>Reference&#xA0;Range</th><th>Unit</th></tr><tr><td>Calcium [Mass/volume] in Blood</td><td>9.2</td><td>8.5 - 10.5</td><td></td><td>mg/dL</td></tr></table></div>"
        },
        "status": "final",
        "subject": {
          "reference": "urn:uuid:e93038a8-3a20-4da2-b1cd-1920fb859f5b",
          "display": "Meaghan Neary"
        },
        "effectiveDateTime": "2020-09-07T22:11:04Z",
        "specimen": {
          "reference": "urn:uuid:2bfbd77f-12cd-4622-8f81-68fd7e6150e3"
        }
      }
    },
    {
      "fullUrl": "urn:uuid:f7ff84a1-161b-411d-a5d6-ea263e1da210",
      "resource": {
        "resourceType": "Observation",
        "id": "f7ff84a1-161b-411d-a5d6-ea263e1da210",
        "meta": {
          "profile": [
            "http://hl7.eu/fhir/laboratory/StructureDefinition/Observation-resultslab-eu-lab"
          ]
        },
        "performer": [
          {
            "display": "The Central European Lab"
          }
        ],
        "category": [
          {
            "coding": [
              {
                "system": "http://terminology.hl7.org/CodeSystem/observation-category",
                "code": "laboratory"
              }
            ]
          }
        ],
        "code": {
          "coding": [
            {
              "code": "2947-0",
              "system": "http://loinc.org",
              "display": "Sodium [Moles/volume] in Blood"
            }
          ],
          "text": "Sodium [Moles/volume] in Blood"
        },
        "valueQuantity": {
          "system": "http://unitsofmeasure.org",
          "value": 141.8,
          "unit": "mmol/L",
          "code": "mmol/L"
        },
        "referenceRange": [
          {
            "low": {
              "value": 135,
              "code": "mmol/L",
              "system": "http://unitsofmeasure.org"
            }
          },
          {
            "high": {
              "value": 145,
              "code": "mmol/L",
              "system": "http://unitsofmeasure.org"
            }
          }
        ],
        "text": {
          "status": "generated",
          "div": "<div xmlns=\"http://www.w3.org/1999/xhtml\"><table class=\"hl7__eu__lab__report\"><tr><th>Test</th><th>08-Sep-2020</th><th>Reference&#xA0;Range</th><th>Unit</th></tr><tr><td>Sodium [Moles/volume] in Blood</td><td>141.8</td><td>135 - 145</td><td></td><td>mmol/L</td></tr></table></div>"
        },
        "status": "final",
        "subject": {
          "reference": "urn:uuid:e93038a8-3a20-4da2-b1cd-1920fb859f5b",
          "display": "Meaghan Neary"
        },
        "effectiveDateTime": "2020-09-07T22:11:04Z",
        "specimen": {
          "reference": "urn:uuid:2bfbd77f-12cd-4622-8f81-68fd7e6150e3"
        }
      }
    },
    {
      "fullUrl": "urn:uuid:bcfac129-a770-4783-a134-2992fa3f4bf3",
      "resource": {
        "resourceType": "Observation",
        "id": "bcfac129-a770-4783-a134-2992fa3f4bf3",
        "meta": {
          "profile": [
            "http://hl7.eu/fhir/laboratory/StructureDefinition/Observation-resultslab-eu-lab"
          ]
        },
        "performer": [
          {
            "display": "The Central European Lab"
          }
        ],
        "category": [
          {
            "coding": [
              {
                "system": "http://terminology.hl7.org/CodeSystem/observation-category",
                "code": "laboratory"
              }
            ]
          }
        ],
        "code": {
          "coding": [
            {
              "code": "6298-4",
              "system": "http://loinc.org",
              "display": "Potassium [Moles/volume] in Blood"
            }
          ],
          "text": "Potassium [Moles/volume] in Blood"
        },
        "valueQuantity": {
          "system": "http://unitsofmeasure.org",
          "value": 5,
          "unit": "mmol/L",
          "code": "mmol/L"
        },
        "referenceRange": [
          {
            "low": {
              "value": 3.5,
              "code": "mmol/L",
              "system": "http://unitsofmeasure.org"
            }
          },
          {
            "high": {
              "value": 5.1,
              "code": "mmol/L",
              "system": "http://unitsofmeasure.org"
            }
          }
        ],
        "text": {
          "status": "generated",
          "div": "<div xmlns=\"http://www.w3.org/1999/xhtml\"><table class=\"hl7__eu__lab__report\"><tr><th>Test</th><th>08-Sep-2020</th><th>Reference&#xA0;Range</th><th>Unit</th></tr><tr><td>Potassium [Moles/volume] in Blood</td><td>5.0</td><td>3.5 - 5.1</td><td></td><td>mmol/L</td></tr></table></div>"
        },
        "status": "final",
        "subject": {
          "reference": "urn:uuid:e93038a8-3a20-4da2-b1cd-1920fb859f5b",
          "display": "Meaghan Neary"
        },
        "effectiveDateTime": "2020-09-07T22:11:04Z",
        "specimen": {
          "reference": "urn:uuid:2bfbd77f-12cd-4622-8f81-68fd7e6150e3"
        }
      }
    },
    {
      "fullUrl": "urn:uuid:efc1d099-062d-41c1-83b9-a4027488e88a",
      "resource": {
        "resourceType": "Observation",
        "id": "efc1d099-062d-41c1-83b9-a4027488e88a",
        "meta": {
          "profile": [
            "http://hl7.eu/fhir/laboratory/StructureDefinition/Observation-resultslab-eu-lab"
          ]
        },
        "performer": [
          {
            "display": "The Central European Lab"
          }
        ],
        "category": [
          {
            "coding": [
              {
                "system": "http://terminology.hl7.org/CodeSystem/observation-category",
                "code": "laboratory"
              }
            ]
          }
        ],
        "code": {
          "coding": [
            {
              "code": "2069-3",
              "system": "http://loinc.org",
              "display": "Chloride [Moles/volume] in Blood"
            }
          ],
          "text": "Chloride [Moles/volume] in Blood"
        },
        "valueQuantity": {
          "system": "http://unitsofmeasure.org",
          "value": 104.8,
          "unit": "mmol/L",
          "code": "mmol/L"
        },
        "referenceRange": [
          {
            "low": {
              "value": 98,
              "code": "mmol/L",
              "system": "http://unitsofmeasure.org"
            }
          },
          {
            "high": {
              "value": 108,
              "code": "mmol/L",
              "system": "http://unitsofmeasure.org"
            }
          }
        ],
        "text": {
          "status": "generated",
          "div": "<div xmlns=\"http://www.w3.org/1999/xhtml\"><table class=\"hl7__eu__lab__report\"><tr><th>Test</th><th>08-Sep-2020</th><th>Reference&#xA0;Range</th><th>Unit</th></tr><tr><td>Chloride [Moles/volume] in Blood</td><td>104.8</td><td>98 - 108</td><td></td><td>mmol/L</td></tr></table></div>"
        },
        "status": "final",
        "subject": {
          "reference": "urn:uuid:e93038a8-3a20-4da2-b1cd-1920fb859f5b",
          "display": "Meaghan Neary"
        },
        "effectiveDateTime": "2020-09-07T22:11:04Z",
        "specimen": {
          "reference": "urn:uuid:2bfbd77f-12cd-4622-8f81-68fd7e6150e3"
        }
      }
    },
    {
      "fullUrl": "urn:uuid:ba7ce0d7-4588-4fd8-a25b-fd96084bba68",
      "resource": {
        "resourceType": "Observation",
        "id": "ba7ce0d7-4588-4fd8-a25b-fd96084bba68",
        "meta": {
          "profile": [
            "http://hl7.eu/fhir/laboratory/StructureDefinition/Observation-resultslab-eu-lab"
          ]
        },
        "performer": [
          {
            "display": "The Central European Lab"
          }
        ],
        "category": [
          {
            "coding": [
              {
                "system": "http://terminology.hl7.org/CodeSystem/observation-category",
                "code": "laboratory"
              }
            ]
          }
        ],
        "code": {
          "coding": [
            {
              "code": "20565-8",
              "system": "http://loinc.org",
              "display": "Carbon dioxide, total [Moles/volume] in Blood"
            }
          ],
          "text": "Carbon dioxide, total [Moles/volume] in Blood"
        },
        "valueQuantity": {
          "system": "http://unitsofmeasure.org",
          "value": 26.4,
          "unit": "mmol/L",
          "code": "mmol/L"
        },
        "referenceRange": [
          {
            "low": {
              "value": 22,
              "code": "mmol/L",
              "system": "http://unitsofmeasure.org"
            }
          },
          {
            "high": {
              "value": 29,
              "code": "mmol/L",
              "system": "http://unitsofmeasure.org"
            }
          }
        ],
        "text": {
          "status": "generated",
          "div": "<div xmlns=\"http://www.w3.org/1999/xhtml\"><table class=\"hl7__eu__lab__report\"><tr><th>Test</th><th>08-Sep-2020</th><th>Reference&#xA0;Range</th><th>Unit</th></tr><tr><td>Carbon dioxide, total [Moles/volume] in Blood</td><td>26.4</td><td>22 - 29</td><td></td><td>mmol/L</td></tr></table></div>"
        },
        "status": "final",
        "subject": {
          "reference": "urn:uuid:e93038a8-3a20-4da2-b1cd-1920fb859f5b",
          "display": "Meaghan Neary"
        },
        "effectiveDateTime": "2020-09-07T22:11:04Z",
        "specimen": {
          "reference": "urn:uuid:2bfbd77f-12cd-4622-8f81-68fd7e6150e3"
        }
      }
    },
    {
      "fullUrl": "urn:uuid:ea3dd67b-2c36-433c-bb46-67a0478a5291",
      "resource": {
        "resourceType": "Observation",
        "id": "ea3dd67b-2c36-433c-bb46-67a0478a5291",
        "meta": {
          "profile": [
            "http://hl7.eu/fhir/laboratory/StructureDefinition/Observation-resultslab-eu-lab"
          ]
        },
        "performer": [
          {
            "display": "The Central European Lab"
          }
        ],
        "category": [
          {
            "coding": [
              {
                "system": "http://terminology.hl7.org/CodeSystem/observation-category",
                "code": "laboratory"
              }
            ]
          }
        ],
        "code": {
          "coding": [
            {
              "code": "2093-3",
              "system": "http://loinc.org",
              "display": "Cholesterol [Mass/volume] in Serum or Plasma"
            }
          ],
          "text": "Cholesterol [Mass/volume] in Serum or Plasma"
        },
        "valueQuantity": {
          "system": "http://unitsofmeasure.org",
          "value": 287.1,
          "unit": "mg/dL",
          "code": "mg/dL"
        },
        "referenceRange": [
          {
            "low": {
              "value": 125,
              "code": "mg/dL",
              "system": "http://unitsofmeasure.org"
            }
          },
          {
            "high": {
              "value": 239,
              "code": "mg/dL",
              "system": "http://unitsofmeasure.org"
            }
          }
        ],
        "interpretation": [
          {
            "coding": [
              {
                "code": "H",
                "system": "http://terminology.hl7.org/CodeSystem/v3-ObservationInterpretation",
                "display": "High"
              }
            ]
          }
        ],
        "text": {
          "status": "generated",
          "div": "<div xmlns=\"http://www.w3.org/1999/xhtml\"><table class=\"hl7__eu__lab__report\"><tr><th>Test</th><th>08-Sep-2020</th><th>Reference&#xA0;Range</th><th>Unit</th></tr><tr><td>Cholesterol [Mass/volume] in Serum or Plasma</td><td>287.1</td><td>125 - 239</td><td>H</td><td>mg/dL</td></tr></table></div>"
        },
        "status": "final",
        "subject": {
          "reference": "urn:uuid:e93038a8-3a20-4da2-b1cd-1920fb859f5b",
          "display": "Meaghan Neary"
        },
        "effectiveDateTime": "2020-09-07T22:11:04Z",
        "specimen": {
          "reference": "urn:uuid:7c44e055-9e2f-4c5a-95c9-b430db4b0c06"
        }
      }
    },
    {
      "fullUrl": "urn:uuid:6566217b-73a4-49be-9418-c4e14f83a799",
      "resource": {
        "resourceType": "Observation",
        "id": "6566217b-73a4-49be-9418-c4e14f83a799",
        "meta": {
          "profile": [
            "http://hl7.eu/fhir/laboratory/StructureDefinition/Observation-resultslab-eu-lab"
          ]
        },
        "performer": [
          {
            "display": "The Central European Lab"
          }
        ],
        "category": [
          {
            "coding": [
              {
                "system": "http://terminology.hl7.org/CodeSystem/observation-category",
                "code": "laboratory"
              }
            ]
          }
        ],
        "code": {
          "coding": [
            {
              "code": "2571-8",
              "system": "http://loinc.org",
              "display": "Triglyceride [Mass/volume] in Serum or Plasma"
            }
          ],
          "text": "Triglyceride [Mass/volume] in Serum or Plasma"
        },
        "valueQuantity": {
          "system": "http://unitsofmeasure.org",
          "value": 118,
          "unit": "mg/dL",
          "code": "mg/dL"
        },
        "text": {
          "status": "generated",
          "div": "<div xmlns=\"http://www.w3.org/1999/xhtml\"><table class=\"hl7__eu__lab__report\"><tr><th>Test</th><th>08-Sep-2020</th><th>Reference&#xA0;Range</th><th>Unit</th></tr><tr><td>Triglyceride [Mass/volume] in Serum or Plasma</td><td>118.0</td><td>mg/dL</td></tr></table></div>"
        },
        "status": "final",
        "subject": {
          "reference": "urn:uuid:e93038a8-3a20-4da2-b1cd-1920fb859f5b",
          "display": "Meaghan Neary"
        },
        "effectiveDateTime": "2020-09-07T22:11:04Z",
        "specimen": {
          "reference": "urn:uuid:7c44e055-9e2f-4c5a-95c9-b430db4b0c06"
        }
      }
    },
    {
      "fullUrl": "urn:uuid:07fd4088-90a7-4a2e-9172-caa0e68abee3",
      "resource": {
        "resourceType": "Observation",
        "id": "07fd4088-90a7-4a2e-9172-caa0e68abee3",
        "meta": {
          "profile": [
            "http://hl7.eu/fhir/laboratory/StructureDefinition/Observation-resultslab-eu-lab"
          ]
        },
        "performer": [
          {
            "display": "The Central European Lab"
          }
        ],
        "category": [
          {
            "coding": [
              {
                "system": "http://terminology.hl7.org/CodeSystem/observation-category",
                "code": "laboratory"
              }
            ]
          }
        ],
        "code": {
          "coding": [
            {
              "code": "18262-6",
              "system": "http://loinc.org",
              "display": "Cholesterol in LDL [Mass/volume] in Serum or Plasma by Direct assay"
            }
          ],
          "text": "Cholesterol in LDL [Mass/volume] in Serum or Plasma by Direct assay"
        },
        "valueQuantity": {
          "system": "http://unitsofmeasure.org",
          "value": 202.2,
          "unit": "mg/dL",
          "code": "mg/dL"
        },
        "referenceRange": [
          {
            "low": {
              "value": 0,
              "code": "mg/dL",
              "system": "http://unitsofmeasure.org"
            }
          },
          {
            "high": {
              "value": 130,
              "code": "mg/dL",
              "system": "http://unitsofmeasure.org"
            }
          }
        ],
        "interpretation": [
          {
            "coding": [
              {
                "code": "H",
                "system": "http://terminology.hl7.org/CodeSystem/v3-ObservationInterpretation",
                "display": "High"
              }
            ]
          }
        ],
        "text": {
          "status": "generated",
          "div": "<div xmlns=\"http://www.w3.org/1999/xhtml\"><table class=\"hl7__eu__lab__report\"><tr><th>Test</th><th>08-Sep-2020</th><th>Reference&#xA0;Range</th><th>Unit</th></tr><tr><td>Cholesterol in LDL [Mass/volume] in Serum or Plasma by Direct assay</td><td>202.2</td><td>0 - 130</td><td>H</td><td>mg/dL</td></tr></table></div>"
        },
        "status": "final",
        "subject": {
          "reference": "urn:uuid:e93038a8-3a20-4da2-b1cd-1920fb859f5b",
          "display": "Meaghan Neary"
        },
        "effectiveDateTime": "2020-09-07T22:11:04Z",
        "specimen": {
          "reference": "urn:uuid:7c44e055-9e2f-4c5a-95c9-b430db4b0c06"
        }
      }
    },
    {
      "fullUrl": "urn:uuid:c1afddbf-49d4-4b6b-9d24-8c9997f1316f",
      "resource": {
        "resourceType": "Observation",
        "id": "c1afddbf-49d4-4b6b-9d24-8c9997f1316f",
        "meta": {
          "profile": [
            "http://hl7.eu/fhir/laboratory/StructureDefinition/Observation-resultslab-eu-lab"
          ]
        },
        "performer": [
          {
            "display": "The Central European Lab"
          }
        ],
        "category": [
          {
            "coding": [
              {
                "system": "http://terminology.hl7.org/CodeSystem/observation-category",
                "code": "laboratory"
              }
            ]
          }
        ],
        "code": {
          "coding": [
            {
              "code": "2085-9",
              "system": "http://loinc.org",
              "display": "Cholesterol in HDL [Mass/volume] in Serum or Plasma"
            }
          ],
          "text": "Cholesterol in HDL [Mass/volume] in Serum or Plasma"
        },
        "valueQuantity": {
          "system": "http://unitsofmeasure.org",
          "value": 61.3,
          "unit": "mg/dL",
          "code": "mg/dL"
        },
        "referenceRange": [
          {
            "low": {
              "value": 50,
              "code": "mg/dL",
              "system": "http://unitsofmeasure.org"
            }
          },
          {
            "high": {
              "value": 100,
              "code": "mg/dL",
              "system": "http://unitsofmeasure.org"
            }
          }
        ],
        "text": {
          "status": "generated",
          "div": "<div xmlns=\"http://www.w3.org/1999/xhtml\"><table class=\"hl7__eu__lab__report\"><tr><th>Test</th><th>08-Sep-2020</th><th>Reference&#xA0;Range</th><th>Unit</th></tr><tr><td>Cholesterol in HDL [Mass/volume] in Serum or Plasma</td><td>61.3</td><td>50 - 100</td><td></td><td>mg/dL</td></tr></table></div>"
        },
        "status": "final",
        "subject": {
          "reference": "urn:uuid:e93038a8-3a20-4da2-b1cd-1920fb859f5b",
          "display": "Meaghan Neary"
        },
        "effectiveDateTime": "2020-09-07T22:11:04Z",
        "specimen": {
          "reference": "urn:uuid:7c44e055-9e2f-4c5a-95c9-b430db4b0c06"
        }
      }
    },
    {
      "fullUrl": "urn:uuid:72bd42cf-8b66-4df2-a941-301ca66154fc",
      "resource": {
        "resourceType": "Device",
        "id": "72bd42cf-8b66-4df2-a941-301ca66154fc",
        "deviceName": [
          {
            "name": "SYNDERAI Synthetic Generator",
            "type": "manufacturer-name"
          }
        ],
        "version": [
          {
            "value": "5.0"
          }
        ],
        "text": {
          "status": "generated",
          "div": "<div xmlns=\"http://www.w3.org/1999/xhtml\">SYNDERAI Synthetic Generator v5.0</div>"
        },
        "status": "active\"",
        "distinctIdentifier": "synderai-generator-50",
        "manufacturer": "SYNDERAI Project"
      }
    },
    {
      "fullUrl": "urn:uuid:ad6556c0-9824-4081-afdc-391d5a4026ef",
      "resource": {
        "resourceType": "Provenance",
        "id": "ad6556c0-9824-4081-afdc-391d5a4026ef",
        "target": [
          {
            "reference": "Patient/e93038a8-3a20-4da2-b1cd-1920fb859f5b"
          },
          {
            "reference": "Bundle/abeb123f-4cb4-4fa5-bc54-3da02300300b"
          },
          {
            "reference": "Composition/38781a73-e87e-4440-bb5f-bd26863ec5cb"
          },
          {
            "reference": "PractitionerRole/288ce5c6-d4a9-41fa-8e80-52d02f38ef65"
          },
          {
            "reference": "Practitioner/b85ffe2e-fdc5-428d-91a8-5346ec85a389"
          },
          {
            "reference": "PractitionerRole/cd626a0c-f31e-4665-b84a-e42668348fb9"
          },
          {
            "reference": "Organization/a90fa69b-fe3b-42ab-bc0f-0be988b66b36"
          }
        ],
        "activity": {
          "text": "Synthetic Example Data Generation"
        },
        "policy": [
          "https://synderai.net/synderai-synthetic-data-policy"
        ],
        "agent": [
          {
            "type": {
              "text": "author"
            },
            "who": {
              "reference": "Device/72bd42cf-8b66-4df2-a941-301ca66154fc"
            }
          }
        ],
        "reason": [
          {
            "text": "Interoperability Testing and Training (non-clinical use)"
          }
        ],
        "text": {
          "status": "generated",
          "div": "<div xmlns=\"http://www.w3.org/1999/xhtml\">Provenance for SYNDERAI Synthetic Example Data Resource</div>"
        },
        "recorded": "2020-09-08T00:11:04Z"
      }
    },
    {
      "fullUrl": "urn:uuid:288ce5c6-d4a9-41fa-8e80-52d02f38ef65",
      "resource": {
        "resourceType": "PractitionerRole",
        "id": "288ce5c6-d4a9-41fa-8e80-52d02f38ef65",
        "meta": {
          "profile": [
            "http://hl7.eu/fhir/base/StructureDefinition/practitionerRole-eu"
          ]
        },
        "text": {
          "status": "generated",
          "div": "<div xmlns=\"http://www.w3.org/1999/xhtml\">Laboratory Role Id: 288ce5c6-d4a9-41fa-8e80-52d02f38ef65</div>"
        },
        "practitioner": {
          "reference": "urn:uuid:b85ffe2e-fdc5-428d-91a8-5346ec85a389"
        }
      }
    },
    {
      "fullUrl": "urn:uuid:b85ffe2e-fdc5-428d-91a8-5346ec85a389",
      "resource": {
        "resourceType": "Practitioner",
        "id": "b85ffe2e-fdc5-428d-91a8-5346ec85a389",
        "meta": {
          "profile": [
            "http://hl7.eu/fhir/base/StructureDefinition/practitioner-eu"
          ]
        },
        "identifier": [
          {
            "assigner": {
              "display": "HL7 Europe"
            },
            "system": "urn:oid:2.16.840.1.113883.2.51.999",
            "value": "b9ef29ef-f1e6-4ec2-bdd2-0133af4892df"
          }
        ],
        "name": [
          {
            "prefix": [
              "dr"
            ],
            "given": [
              "Ex"
            ],
            "family": "Ample"
          }
        ],
        "address": [
          {
            "line": [
              "Laboratoire Central Europenne",
              "Boulevard du Jardin Botanique 32"
            ],
            "postalCode": "1000",
            "city": "Brussels",
            "country": "Belgium"
          }
        ],
        "text": {
          "status": "generated",
          "div": "<div xmlns=\"http://www.w3.org/1999/xhtml\">Laboratory: Laboratoire Central Europenne, 1000 Brussels, Belgium</div>"
        }
      }
    }
  ],
  "type": "document",
  "timestamp": "2020-09-08T00:11:04Z"
}
