{
  "resourceType": "Bundle",
  "id": "cfa50a0a-2707-4d6a-a374-78f741e070ee",
  "meta": {
    "profile": [
      "http://hl7.eu/fhir/laboratory/StructureDefinition/Bundle-eu-lab"
    ]
  },
  "identifier": {
    "assigner": {
      "display": "HL7 Europe"
    },
    "system": "urn:oid:2.16.840.1.113883.2.51.999",
    "value": "38de9725-0f5f-451c-96cd-8696cf2f4a73"
  },
  "entry": [
    {
      "fullUrl": "urn:uuid:9886d4bb-ca02-4ae9-ad5a-e8f6dc1b08de",
      "resource": {
        "resourceType": "Composition",
        "id": "9886d4bb-ca02-4ae9-ad5a-e8f6dc1b08de",
        "meta": {
          "profile": [
            "http://hl7.eu/fhir/laboratory/StructureDefinition/Composition-eu-lab"
          ]
        },
        "identifier": {
          "assigner": {
            "display": "HL7 Europe"
          },
          "system": "urn:oid:2.16.840.1.113883.2.51.999",
          "value": "4ab9fdb1-2c34-4e38-9bd0-badfc15c8eb2"
        },
        "author": [
          {
            "reference": "urn:uuid:1288359f-6a8a-4e25-88c6-dcc0650d5135"
          }
        ],
        "category": [
          {
            "coding": [
              {
                "code": "26436-6",
                "system": "http://loinc.org",
                "display": "Laboratory studies (set)"
              }
            ]
          }
        ],
        "type": {
          "coding": [
            {
              "code": "11502-2",
              "system": "http://loinc.org",
              "display": "Laboratory report"
            }
          ],
          "text": "Laboratory Report"
        },
        "section": [
          {
            "code": {
              "coding": [
                {
                  "code": "26436-6",
                  "system": "http://loinc.org",
                  "display": "Laboratory studies (set)"
                }
              ],
              "text": "Laboratory studies"
            },
            "section": [
              {
                "code": {
                  "coding": [
                    {
                      "code": "$18719-5",
                      "system": "http://loinc.org",
                      "display": "Chemistry studies (set)"
                    }
                  ],
                  "text": "Chemistry"
                },
                "entry": [
                  {
                    "reference": "urn:uuid:62a43af8-930b-4be7-8d7d-6f65c194b6a2"
                  },
                  {
                    "reference": "urn:uuid:aa4a0f0a-72b4-41f0-8c45-6549d5ce446d"
                  },
                  {
                    "reference": "urn:uuid:6fcef068-9569-45a6-88e2-ef31ccb30f33"
                  },
                  {
                    "reference": "urn:uuid:cb7178f1-3fef-48ec-bac7-e140a5ff248a"
                  },
                  {
                    "reference": "urn:uuid:c6dcc813-2516-4bf4-9c0a-1dc341d5d181"
                  },
                  {
                    "reference": "urn:uuid:4bc9bf48-91eb-4ab7-ae51-927f869d622a"
                  },
                  {
                    "reference": "urn:uuid:21aacf8d-2ff3-4549-a503-d6fee885a7a6"
                  },
                  {
                    "reference": "urn:uuid:c4ec2f3b-3218-4bf7-9ef8-132866aad7cd"
                  },
                  {
                    "reference": "urn:uuid:930f91a7-4227-42e4-b3ca-4e0b79cb3c6f"
                  },
                  {
                    "reference": "urn:uuid:8bbed9b6-9606-477c-b0f1-bd882ee444d7"
                  },
                  {
                    "reference": "urn:uuid:18e4b93e-1786-4cce-9ec3-21ac97f96963"
                  },
                  {
                    "reference": "urn:uuid:49db3c43-1a1e-4910-9a9d-b78779ee1fc2"
                  },
                  {
                    "reference": "urn:uuid:2c952749-b799-4aa9-9017-58654c36907f"
                  },
                  {
                    "reference": "urn:uuid:6fbb1c75-30d2-4296-84a4-6abb60d7cef1"
                  },
                  {
                    "reference": "urn:uuid:9ff5d8e5-60f1-4035-bda4-e065618b9b66"
                  },
                  {
                    "reference": "urn:uuid:05eb33f3-a11c-4f05-878d-a71192d5046a"
                  },
                  {
                    "reference": "urn:uuid:fe7e1c28-f599-4391-8d80-c2b2e2c1a9d1"
                  },
                  {
                    "reference": "urn:uuid:1fa90e53-c7d2-4a55-867b-0f55bb76608c"
                  }
                ],
                "text": {
                  "status": "generated",
                  "div": "<div xmlns=\"http://www.w3.org/1999/xhtml\"><h3>Chemistry</h3><table class=\"hl7__eu__lab__report\"><thead><tr><th>Test</th><th>06-NOV-2020</th><th>Reference&#xA0;Range</th><th>Unit</th></tr></thead><tbody><tr><td>Glucose [Mass/volume] in Serum or Plasma</td><td>84.5</td><td>70 - 140</td><td>mg/dL</td></tr><tr><td>Urea nitrogen [Mass/volume] in Serum or Plasma</td><td>16.5</td><td>7 - 20</td><td>mg/dL</td></tr><tr><td>Creatinine [Mass/volume] in Serum or Plasma</td><td><strong>2.1 H</strong></td><td>0.9 - 1.3</td><td>mg/dL</td></tr><tr><td>Calcium [Mass/volume] in Serum or Plasma</td><td>9.9</td><td>8.5 - 10.5</td><td>mg/dL</td></tr><tr><td>Sodium [Moles/volume] in Serum or Plasma</td><td>136.1</td><td>135 - 145</td><td>mmol/L</td></tr><tr><td>Potassium [Moles/volume] in Serum or Plasma</td><td>4.6</td><td>3.5 - 5.3</td><td>mmol/L</td></tr><tr><td>Chloride [Moles/volume] in Serum or Plasma</td><td>101.4</td><td>98 - 107</td><td>mmol/L</td></tr><tr><td>Carbon dioxide, total [Moles/volume] in Serum or Plasma</td><td>29.0</td><td>22 - 33</td><td>mmol/L</td></tr><tr><td>Ketones [Presence] in Urine by Test strip</td><td>Urine ketone test = ++</td><td></td><td></td></tr><tr><td>Hemoglobin A1c/Hemoglobin.total in Blood</td><td><strong>3.1 L</strong></td><td>4.3 - 6</td><td>%</td></tr><tr><td>Glucose [Mass/volume] in Blood</td><td>84.5</td><td>70 - 140</td><td>mg/dL</td></tr><tr><td>Urea nitrogen [Mass/volume] in Blood</td><td>16.5</td><td>7 - 20</td><td>mg/dL</td></tr><tr><td>Creatinine [Mass/volume] in Blood</td><td><strong>4.4 H</strong></td><td>0.9 - 1.3</td><td>mg/dL</td></tr><tr><td>Calcium [Mass/volume] in Blood</td><td>9.9</td><td>8.5 - 10.5</td><td>mg/dL</td></tr><tr><td>Sodium [Moles/volume] in Blood</td><td>136.1</td><td>135 - 145</td><td>mmol/L</td></tr><tr><td>Potassium [Moles/volume] in Blood</td><td>4.6</td><td>3.5 - 5.1</td><td>mmol/L</td></tr><tr><td>Chloride [Moles/volume] in Blood</td><td>101.4</td><td>98 - 108</td><td>mmol/L</td></tr><tr><td>Carbon dioxide, total [Moles/volume] in Blood</td><td>29.0</td><td>22 - 29</td><td>mmol/L</td></tr></tbody></table></div>"
                },
                "title": "Chemistry"
              },
              {
                "code": {
                  "coding": [
                    {
                      "code": "$18729-4",
                      "system": "http://loinc.org",
                      "display": "Urinalysis studies (set)"
                    }
                  ],
                  "text": "Urinalysis"
                },
                "entry": [
                  {
                    "reference": "urn:uuid:6f0b9b75-f8fd-492f-a616-a59aed2830c3"
                  },
                  {
                    "reference": "urn:uuid:5561c317-fd11-4e6d-aeac-12e6cfe45b06"
                  },
                  {
                    "reference": "urn:uuid:c7fac9b2-24aa-4661-bd31-dc00d9113043"
                  },
                  {
                    "reference": "urn:uuid:e344b440-b130-4041-887d-6da6d31eae40"
                  },
                  {
                    "reference": "urn:uuid:e9eb4fb8-2e91-49b5-9630-a489e9efd2cb"
                  },
                  {
                    "reference": "urn:uuid:1c2f3bb2-c91b-4c16-b52f-930bdbd679b5"
                  },
                  {
                    "reference": "urn:uuid:b23fc9be-d55a-4075-aa50-842da2451a4c"
                  },
                  {
                    "reference": "urn:uuid:345a6fe3-ac4d-4b31-b5a9-ee94b1aa78db"
                  },
                  {
                    "reference": "urn:uuid:f95e0a07-2ce1-4210-9719-3c40a2bf7bc3"
                  },
                  {
                    "reference": "urn:uuid:a14c267a-97df-48cc-bb0e-28ed25a8878a"
                  },
                  {
                    "reference": "urn:uuid:69bf7355-bca6-4933-86d1-a184cc593f8e"
                  },
                  {
                    "reference": "urn:uuid:98da621c-31d4-48c2-aa36-274fe6c3e7ad"
                  }
                ],
                "text": {
                  "status": "generated",
                  "div": "<div xmlns=\"http://www.w3.org/1999/xhtml\"><h3>Urinalysis</h3><table class=\"hl7__eu__lab__report\"><thead><tr><th>Test</th><th>06-NOV-2020</th><th>Reference&#xA0;Range</th><th>Unit</th></tr></thead><tbody><tr><td>Glucose [Mass/volume] in Urine by Test strip</td><td><strong>1.2 H</strong></td><td>0 - 0.8</td><td>mg/dL</td></tr><tr><td>Glucose [Presence] in Urine by Test strip</td><td>++</td><td></td><td></td></tr><tr><td>Bilirubin.total [Mass/volume] in Urine by Test strip</td><td>0.9</td><td>0 - 1.9</td><td>mg/dL</td></tr><tr><td>Bilirubin.total [Presence] in Urine by Test strip</td><td>Finding of bilirubin in urine</td><td></td><td></td></tr><tr><td>Ketones [Mass/volume] in Urine by Test strip</td><td><strong>12.8 H</strong></td><td>0 - 3</td><td>mg/dL</td></tr><tr><td>Specific gravity of Urine by Test strip</td><td><strong>1.0 L</strong></td><td>1.01 - 1.03</td><td>{nominal}</td></tr><tr><td>pH of Urine by Test strip</td><td>6.3</td><td>4.5 - 7.5</td><td>pH</td></tr><tr><td>Protein [Mass/volume] in Urine by Test strip</td><td><strong>228.9 H</strong></td><td>0 - 149</td><td>mg/dL</td></tr><tr><td>Protein [Presence] in Urine by Test strip</td><td>Urine protein test = ++</td><td></td><td></td></tr><tr><td>Nitrite [Presence] in Urine by Test strip</td><td>Urine nitrite negative</td><td></td><td></td></tr><tr><td>Hemoglobin [Presence] in Urine by Test strip</td><td>Urine blood test = negative</td><td></td><td></td></tr><tr><td>Leukocyte esterase [Presence] in Urine by Test strip</td><td>Urine leukocyte test negative</td><td></td><td></td></tr></tbody></table></div>"
                },
                "title": "Urinalysis"
              },
              {
                "code": {
                  "coding": [
                    {
                      "code": "$LP7846-1",
                      "system": "http://loinc.org",
                      "display": "Specimen information"
                    }
                  ],
                  "text": "Specimen information"
                },
                "entry": [
                  {
                    "reference": "urn:uuid:12e24e69-f843-4f29-951f-94d9f8114891"
                  },
                  {
                    "reference": "urn:uuid:c6d28b44-6b20-4864-b298-4fbc0a136407"
                  },
                  {
                    "reference": "urn:uuid:23845ecb-900d-494f-942b-ec6598b6038f"
                  },
                  {
                    "reference": "urn:uuid:807ac341-08ab-45b7-839c-8c1dc8e085f3"
                  }
                ],
                "text": {
                  "status": "generated",
                  "div": "<div xmlns=\"http://www.w3.org/1999/xhtml\"><h3>Specimen information</h3><table class=\"hl7__eu__lab__report\"><thead><tr><th>Test</th><th>06-NOV-2020</th><th>Specimen</th><th></th></tr></thead><tbody><tr><td>Appearance of Urine</td><td>Cloudy urine</td><td>Urine</td><td></td></tr><tr><td>Odor of Urine</td><td>Urine smell ammoniacal</td><td>Urine</td><td></td></tr><tr><td>Clarity of Urine</td><td>Translucent</td><td>Urine</td><td></td></tr><tr><td>Color of Urine</td><td>Brown color</td><td>Urine</td><td></td></tr></tbody></table></div>"
                },
                "title": "Specimen information"
              }
            ],
            "title": "Laboratory Report"
          },
          {
            "text": {
              "status": "generated",
              "div": "<div xmlns=\"http://www.w3.org/1999/xhtml\"><h3>Annotation</h3><table class=\"hl7__eu__lab__report\"><tr><th>Conclusion and Recommendations based on this report and previous findings known to us</th></tr><tr><td>The patient shows significantly elevated creatinine, proteinuria, glucosuria, and ketonuria, with low urine specific gravity and low HbA1c. These findings suggest acute or chronic renal impairment and possible tubular dysfunction. The presence of glucosuria and ketonuria with normal blood glucose and low HbA1c may indicate renal glycosuria and possible non-diabetic ketosis. Urine abnormalities (cloudy, brown, ammoniacal) may suggest underlying urinary tract pathology. Recommend further nephrological evaluation and clinical correlation.</td></tr></table></div>"
            },
            "code": {
              "coding": [
                {
                  "system": "http://loinc.org",
                  "code": "48767-8",
                  "display": "Annotation comment"
                }
              ]
            },
            "title": "Annotation comment"
          }
        ],
        "status": "final",
        "subject": {
          "reference": "urn:uuid:85a1527e-0546-4b9e-953d-dcd99b58b6dc",
          "display": "Victor Lagarde"
        },
        "date": "2020-11-06T05:48:18Z",
        "title": "Laboratory Report",
        "confidentiality": "N"
      }
    },
    {
      "fullUrl": "urn:uuid:3ef9f500-c173-4849-a669-ee5120a512cf",
      "resource": {
        "resourceType": "DiagnosticReport",
        "id": "3ef9f500-c173-4849-a669-ee5120a512cf",
        "meta": {
          "profile": [
            "http://hl7.eu/fhir/laboratory/StructureDefinition/DiagnosticReport-eu-lab"
          ]
        },
        "identifier": [
          {
            "assigner": {
              "display": "HL7 Europe"
            },
            "system": "urn:oid:2.16.840.1.113883.2.51.999",
            "value": "e8638c0a-53f1-4018-84b5-63d39086c49e"
          }
        ],
        "extension": [
          {
            "url": "http://hl7.org/fhir/5.0/StructureDefinition/extension-DiagnosticReport.composition",
            "valueReference": {
              "reference": "urn:uuid:4ab9fdb1-2c34-4e38-9bd0-badfc15c8eb2"
            }
          }
        ],
        "category": [
          {
            "coding": [
              {
                "code": "26436-6",
                "system": "http://loinc.org",
                "display": "Laboratory studies (set)"
              }
            ]
          }
        ],
        "specimen": [
          {
            "reference": "urn:uuid:ab976b53-6dac-4046-80d1-c698a738e404"
          },
          {
            "reference": "urn:uuid:f51f5a9b-9b99-4514-aff1-edba937b0b16"
          },
          {
            "reference": "urn:uuid:d43c4015-775b-459b-b3b2-8d97d7b9d0d3"
          }
        ],
        "result": [
          {
            "reference": "urn:uuid:62a43af8-930b-4be7-8d7d-6f65c194b6a2"
          },
          {
            "reference": "urn:uuid:aa4a0f0a-72b4-41f0-8c45-6549d5ce446d"
          },
          {
            "reference": "urn:uuid:6fcef068-9569-45a6-88e2-ef31ccb30f33"
          },
          {
            "reference": "urn:uuid:cb7178f1-3fef-48ec-bac7-e140a5ff248a"
          },
          {
            "reference": "urn:uuid:c6dcc813-2516-4bf4-9c0a-1dc341d5d181"
          },
          {
            "reference": "urn:uuid:4bc9bf48-91eb-4ab7-ae51-927f869d622a"
          },
          {
            "reference": "urn:uuid:21aacf8d-2ff3-4549-a503-d6fee885a7a6"
          },
          {
            "reference": "urn:uuid:c4ec2f3b-3218-4bf7-9ef8-132866aad7cd"
          },
          {
            "reference": "urn:uuid:12e24e69-f843-4f29-951f-94d9f8114891"
          },
          {
            "reference": "urn:uuid:c6d28b44-6b20-4864-b298-4fbc0a136407"
          },
          {
            "reference": "urn:uuid:23845ecb-900d-494f-942b-ec6598b6038f"
          },
          {
            "reference": "urn:uuid:807ac341-08ab-45b7-839c-8c1dc8e085f3"
          },
          {
            "reference": "urn:uuid:6f0b9b75-f8fd-492f-a616-a59aed2830c3"
          },
          {
            "reference": "urn:uuid:5561c317-fd11-4e6d-aeac-12e6cfe45b06"
          },
          {
            "reference": "urn:uuid:c7fac9b2-24aa-4661-bd31-dc00d9113043"
          },
          {
            "reference": "urn:uuid:e344b440-b130-4041-887d-6da6d31eae40"
          },
          {
            "reference": "urn:uuid:e9eb4fb8-2e91-49b5-9630-a489e9efd2cb"
          },
          {
            "reference": "urn:uuid:930f91a7-4227-42e4-b3ca-4e0b79cb3c6f"
          },
          {
            "reference": "urn:uuid:1c2f3bb2-c91b-4c16-b52f-930bdbd679b5"
          },
          {
            "reference": "urn:uuid:b23fc9be-d55a-4075-aa50-842da2451a4c"
          },
          {
            "reference": "urn:uuid:345a6fe3-ac4d-4b31-b5a9-ee94b1aa78db"
          },
          {
            "reference": "urn:uuid:f95e0a07-2ce1-4210-9719-3c40a2bf7bc3"
          },
          {
            "reference": "urn:uuid:a14c267a-97df-48cc-bb0e-28ed25a8878a"
          },
          {
            "reference": "urn:uuid:69bf7355-bca6-4933-86d1-a184cc593f8e"
          },
          {
            "reference": "urn:uuid:98da621c-31d4-48c2-aa36-274fe6c3e7ad"
          },
          {
            "reference": "urn:uuid:8bbed9b6-9606-477c-b0f1-bd882ee444d7"
          },
          {
            "reference": "urn:uuid:18e4b93e-1786-4cce-9ec3-21ac97f96963"
          },
          {
            "reference": "urn:uuid:49db3c43-1a1e-4910-9a9d-b78779ee1fc2"
          },
          {
            "reference": "urn:uuid:2c952749-b799-4aa9-9017-58654c36907f"
          },
          {
            "reference": "urn:uuid:6fbb1c75-30d2-4296-84a4-6abb60d7cef1"
          },
          {
            "reference": "urn:uuid:9ff5d8e5-60f1-4035-bda4-e065618b9b66"
          },
          {
            "reference": "urn:uuid:05eb33f3-a11c-4f05-878d-a71192d5046a"
          },
          {
            "reference": "urn:uuid:fe7e1c28-f599-4391-8d80-c2b2e2c1a9d1"
          },
          {
            "reference": "urn:uuid:1fa90e53-c7d2-4a55-867b-0f55bb76608c"
          }
        ],
        "status": "registered",
        "code": {
          "coding": [
            {
              "code": "11502-2",
              "system": "http://loinc.org",
              "display": "Laboratory report"
            }
          ]
        },
        "subject": {
          "reference": "urn:uuid:85a1527e-0546-4b9e-953d-dcd99b58b6dc",
          "display": "Victor Lagarde"
        }
      }
    },
    {
      "fullUrl": "urn:uuid:85a1527e-0546-4b9e-953d-dcd99b58b6dc",
      "resource": {
        "resourceType": "Patient",
        "id": "85a1527e-0546-4b9e-953d-dcd99b58b6dc",
        "meta": {
          "security": [
            {
              "system": "http://terminology.hl7.org/CodeSystem/v3-ActReason",
              "code": "HTEST"
            },
            {
              "system": "http://terminology.hl7.org/CodeSystem/v3-ActReason",
              "code": "TRAIN"
            }
          ],
          "tag": [
            {
              "system": "https://synderai.net/fhir/CodeSystem/tags",
              "code": "synthetic",
              "display": "SYNDERAI Synthetic data"
            }
          ],
          "profile": [
            "http://hl7.eu/fhir/base/StructureDefinition/patient-eu-core"
          ]
        },
        "identifier": [
          {
            "type": {
              "coding": [
                {
                  "code": "PT",
                  "system": "http://terminology.hl7.org/CodeSystem/v2-0203"
                }
              ]
            },
            "system": "http://ec.europa.eu/identifier/eci",
            "value": "9925-001801-9"
          },
          {
            "type": {
              "coding": [
                {
                  "code": "MR",
                  "system": "http://terminology.hl7.org/CodeSystem/v2-0203"
                }
              ]
            },
            "system": "http://local.setting.eu/identifier",
            "value": "22c2dfd0-ac57-8833-2532-848f180896a4"
          }
        ],
        "name": [
          {
            "family": "Lagarde"
          },
          {
            "given": [
              "Victor"
            ]
          },
          {
            "text": "Victor Lagarde"
          }
        ],
        "address": [
          {
            "line": [
              "avenue Robert"
            ],
            "use": "home",
            "type": "physical",
            "postalCode": "80300",
            "city": "Albert",
            "country": "France"
          }
        ],
        "telecom": [
          {
            "system": "phone",
            "value": "0177941801"
          }
        ],
        "extension": [
          {
            "url": "http://hl7.org/fhir/StructureDefinition/patient-nationality",
            "valueCodeableConcept": {
              "coding": [
                {
                  "code": "FR",
                  "system": "http://hl7.org/fhir/ValueSet/country"
                }
              ]
            }
          }
        ],
        "text": {
          "status": "generated",
          "div": "<div xmlns=\"http://www.w3.org/1999/xhtml\"><table class=\"hl7__ips\"><tr><td>Victor Lagarde</td><td>male</td><td>31-Aug-1939</td></tr></table></div>"
        },
        "gender": "male",
        "birthDate": "1939-08-31"
      }
    },
    {
      "fullUrl": "urn:uuid:ff33337c-9db4-44e9-b350-89154744fc24",
      "resource": {
        "resourceType": "ServiceRequest",
        "id": "ff33337c-9db4-44e9-b350-89154744fc24",
        "meta": {
          "profile": [
            "http://hl7.eu/fhir/laboratory/StructureDefinition/ServiceRequest-eu-lab"
          ]
        },
        "identifier": [
          {
            "system": "http://example.org",
            "value": "13206d27-1baf-4642-9a77-0e0ffb6d7006"
          }
        ],
        "specimen": [
          {
            "reference": "urn:uuid:ab976b53-6dac-4046-80d1-c698a738e404"
          },
          {
            "reference": "urn:uuid:f51f5a9b-9b99-4514-aff1-edba937b0b16"
          },
          {
            "reference": "urn:uuid:d43c4015-775b-459b-b3b2-8d97d7b9d0d3"
          }
        ],
        "reasonCode": [
          {
            "coding": [
              {
                "code": "433144002",
                "system": "http://snomed.info/sct",
                "display": "Chronic kidney disease stage 3"
              }
            ]
          },
          {
            "coding": [
              {
                "code": "157141000119108",
                "system": "http://snomed.info/sct",
                "display": "Proteinuria due to type 2 diabetes mellitus"
              }
            ]
          },
          {
            "coding": [
              {
                "code": "431856006",
                "system": "http://snomed.info/sct",
                "display": "Chronic kidney disease stage 2"
              }
            ]
          },
          {
            "coding": [
              {
                "code": "90781000119102",
                "system": "http://snomed.info/sct",
                "display": "Microalbuminuria due to type 2 diabetes mellitus"
              }
            ]
          },
          {
            "coding": [
              {
                "code": "127013003",
                "system": "http://snomed.info/sct",
                "display": "Disorder of kidney due to diabetes mellitus"
              }
            ]
          },
          {
            "coding": [
              {
                "code": "431855005",
                "system": "http://snomed.info/sct",
                "display": "Chronic kidney disease stage 1"
              }
            ]
          },
          {
            "coding": [
              {
                "code": "55822004",
                "system": "http://snomed.info/sct",
                "display": "Hyperlipidemia"
              }
            ]
          },
          {
            "coding": [
              {
                "code": "59621000",
                "system": "http://snomed.info/sct",
                "display": "Essential hypertension"
              }
            ]
          },
          {
            "coding": [
              {
                "code": "237602007",
                "system": "http://snomed.info/sct",
                "display": "Metabolic syndrome X"
              }
            ]
          },
          {
            "coding": [
              {
                "code": "414545008",
                "system": "http://snomed.info/sct",
                "display": "Ischemic heart disease"
              }
            ]
          },
          {
            "coding": [
              {
                "code": "40055000",
                "system": "http://snomed.info/sct",
                "display": "Chronic sinusitis"
              }
            ]
          },
          {
            "coding": [
              {
                "code": "15777000",
                "system": "http://snomed.info/sct",
                "display": "Prediabetes"
              }
            ]
          },
          {
            "coding": [
              {
                "code": "271737000",
                "system": "http://snomed.info/sct",
                "display": "Anemia"
              }
            ]
          }
        ],
        "status": "active",
        "intent": "order",
        "code": {
          "coding": [
            {
              "code": "108252007",
              "system": "http://snomed.info/sct",
              "display": "Laboratory procedure"
            }
          ]
        },
        "subject": {
          "reference": "urn:uuid:85a1527e-0546-4b9e-953d-dcd99b58b6dc",
          "display": "Victor Lagarde"
        },
        "requester": {
          "reference": "urn:uuid:dea20b25-4dbe-4b3c-95f8-e4c96b1ddc70"
        }
      }
    },
    {
      "fullUrl": "urn:uuid:dea20b25-4dbe-4b3c-95f8-e4c96b1ddc70",
      "resource": {
        "resourceType": "PractitionerRole",
        "id": "dea20b25-4dbe-4b3c-95f8-e4c96b1ddc70",
        "meta": {
          "profile": [
            "http://hl7.eu/fhir/base/StructureDefinition/practitionerRole-eu"
          ]
        },
        "text": {
          "status": "generated",
          "div": "<div xmlns=\"http://www.w3.org/1999/xhtml\">Provider Role Id: dea20b25-4dbe-4b3c-95f8-e4c96b1ddc70</div>"
        },
        "organization": {
          "reference": "urn:uuid:ce9f573c-8596-460c-a4ba-5ef30494125b"
        }
      }
    },
    {
      "fullUrl": "urn:uuid:ce9f573c-8596-460c-a4ba-5ef30494125b",
      "resource": {
        "resourceType": "Organization",
        "id": "ce9f573c-8596-460c-a4ba-5ef30494125b",
        "meta": {
          "profile": [
            "http://hl7.eu/fhir/base/StructureDefinition/organization-eu"
          ]
        },
        "identifier": [
          {
            "assigner": {
              "display": "HL7 Europe"
            },
            "system": "urn:oid:2.16.840.1.113883.2.51.999",
            "value": "12b51517-67b4-4e84-a84c-a60db4183ae2"
          }
        ],
        "address": [
          {
            "city": "Auxerre",
            "postalCode": "89000",
            "country": "France"
          }
        ],
        "text": {
          "status": "generated",
          "div": "<div xmlns=\"http://www.w3.org/1999/xhtml\">Provider Organization: Thiriot Didier (Cardiologie)</div>"
        },
        "name": "Thiriot Didier (Cardiologie)"
      }
    },
    {
      "fullUrl": "urn:uuid:ab976b53-6dac-4046-80d1-c698a738e404",
      "resource": {
        "resourceType": "Specimen",
        "id": "ab976b53-6dac-4046-80d1-c698a738e404",
        "meta": {
          "profile": [
            "http://hl7.eu/fhir/laboratory/StructureDefinition/Specimen-eu-lab"
          ]
        },
        "collection": {
          "collectedDateTime": "2020-11-06"
        },
        "text": {
          "status": "generated",
          "div": "<div xmlns=\"http://www.w3.org/1999/xhtml\"><table class=\"hl7__eu__lab__report\"><tr><th>Specimen</th><th>Collection Date</th></tr><tr><td>Acellular blood (serum or plasma) specimen</td><td><span class=\"nb\">06-Nov-2020</span></td></tr></table></div>"
        },
        "type": {
          "coding": [
            {
              "code": "122592007",
              "system": "http://snomed.info/sct",
              "display": "Acellular blood (serum or plasma) specimen"
            }
          ]
        }
      }
    },
    {
      "fullUrl": "urn:uuid:f51f5a9b-9b99-4514-aff1-edba937b0b16",
      "resource": {
        "resourceType": "Specimen",
        "id": "f51f5a9b-9b99-4514-aff1-edba937b0b16",
        "meta": {
          "profile": [
            "http://hl7.eu/fhir/laboratory/StructureDefinition/Specimen-eu-lab"
          ]
        },
        "collection": {
          "collectedDateTime": "2020-11-06"
        },
        "text": {
          "status": "generated",
          "div": "<div xmlns=\"http://www.w3.org/1999/xhtml\"><table class=\"hl7__eu__lab__report\"><tr><th>Specimen</th><th>Collection Date</th></tr><tr><td>Urine specimen</td><td><span class=\"nb\">06-Nov-2020</span></td></tr></table></div>"
        },
        "type": {
          "coding": [
            {
              "code": "122575003",
              "system": "http://snomed.info/sct",
              "display": "Urine specimen"
            }
          ]
        }
      }
    },
    {
      "fullUrl": "urn:uuid:d43c4015-775b-459b-b3b2-8d97d7b9d0d3",
      "resource": {
        "resourceType": "Specimen",
        "id": "d43c4015-775b-459b-b3b2-8d97d7b9d0d3",
        "meta": {
          "profile": [
            "http://hl7.eu/fhir/laboratory/StructureDefinition/Specimen-eu-lab"
          ]
        },
        "collection": {
          "collectedDateTime": "2020-11-06"
        },
        "text": {
          "status": "generated",
          "div": "<div xmlns=\"http://www.w3.org/1999/xhtml\"><table class=\"hl7__eu__lab__report\"><tr><th>Specimen</th><th>Collection Date</th></tr><tr><td>Whole blood specimen (specimen)</td><td><span class=\"nb\">06-Nov-2020</span></td></tr></table></div>"
        },
        "type": {
          "coding": [
            {
              "code": "258580003",
              "system": "http://snomed.info/sct",
              "display": "Whole blood specimen (specimen)"
            }
          ]
        }
      }
    },
    {
      "fullUrl": "urn:uuid:62a43af8-930b-4be7-8d7d-6f65c194b6a2",
      "resource": {
        "resourceType": "Observation",
        "id": "62a43af8-930b-4be7-8d7d-6f65c194b6a2",
        "meta": {
          "profile": [
            "http://hl7.eu/fhir/laboratory/StructureDefinition/Observation-resultslab-eu-lab"
          ]
        },
        "performer": [
          {
            "display": "The Central European Lab"
          }
        ],
        "category": [
          {
            "coding": [
              {
                "system": "http://terminology.hl7.org/CodeSystem/observation-category",
                "code": "laboratory"
              }
            ]
          }
        ],
        "code": {
          "coding": [
            {
              "code": "2345-7",
              "system": "http://loinc.org",
              "display": "Glucose [Mass/volume] in Serum or Plasma"
            }
          ],
          "text": "Glucose [Mass/volume] in Serum or Plasma"
        },
        "valueQuantity": {
          "system": "http://unitsofmeasure.org",
          "value": 84.5,
          "unit": "mg/dL",
          "code": "mg/dL"
        },
        "referenceRange": [
          {
            "low": {
              "value": 70,
              "code": "mg/dL",
              "system": "http://unitsofmeasure.org"
            }
          },
          {
            "high": {
              "value": 140,
              "code": "mg/dL",
              "system": "http://unitsofmeasure.org"
            }
          }
        ],
        "text": {
          "status": "generated",
          "div": "<div xmlns=\"http://www.w3.org/1999/xhtml\"><table class=\"hl7__eu__lab__report\"><tr><th>Test</th><th>06-Nov-2020</th><th>Reference&#xA0;Range</th><th>Unit</th></tr><tr><td>Glucose [Mass/volume] in Serum or Plasma</td><td>84.5</td><td>70 - 140</td><td></td><td>mg/dL</td></tr></table></div>"
        },
        "status": "final",
        "subject": {
          "reference": "urn:uuid:85a1527e-0546-4b9e-953d-dcd99b58b6dc",
          "display": "Victor Lagarde"
        },
        "effectiveDateTime": "2020-11-06T04:48:18Z",
        "specimen": {
          "reference": "urn:uuid:ab976b53-6dac-4046-80d1-c698a738e404"
        }
      }
    },
    {
      "fullUrl": "urn:uuid:aa4a0f0a-72b4-41f0-8c45-6549d5ce446d",
      "resource": {
        "resourceType": "Observation",
        "id": "aa4a0f0a-72b4-41f0-8c45-6549d5ce446d",
        "meta": {
          "profile": [
            "http://hl7.eu/fhir/laboratory/StructureDefinition/Observation-resultslab-eu-lab"
          ]
        },
        "performer": [
          {
            "display": "The Central European Lab"
          }
        ],
        "category": [
          {
            "coding": [
              {
                "system": "http://terminology.hl7.org/CodeSystem/observation-category",
                "code": "laboratory"
              }
            ]
          }
        ],
        "code": {
          "coding": [
            {
              "code": "3094-0",
              "system": "http://loinc.org",
              "display": "Urea nitrogen [Mass/volume] in Serum or Plasma"
            }
          ],
          "text": "Urea nitrogen [Mass/volume] in Serum or Plasma"
        },
        "valueQuantity": {
          "system": "http://unitsofmeasure.org",
          "value": 16.5,
          "unit": "mg/dL",
          "code": "mg/dL"
        },
        "referenceRange": [
          {
            "low": {
              "value": 7,
              "code": "mg/dL",
              "system": "http://unitsofmeasure.org"
            }
          },
          {
            "high": {
              "value": 20,
              "code": "mg/dL",
              "system": "http://unitsofmeasure.org"
            }
          }
        ],
        "text": {
          "status": "generated",
          "div": "<div xmlns=\"http://www.w3.org/1999/xhtml\"><table class=\"hl7__eu__lab__report\"><tr><th>Test</th><th>06-Nov-2020</th><th>Reference&#xA0;Range</th><th>Unit</th></tr><tr><td>Urea nitrogen [Mass/volume] in Serum or Plasma</td><td>16.5</td><td>7 - 20</td><td></td><td>mg/dL</td></tr></table></div>"
        },
        "status": "final",
        "subject": {
          "reference": "urn:uuid:85a1527e-0546-4b9e-953d-dcd99b58b6dc",
          "display": "Victor Lagarde"
        },
        "effectiveDateTime": "2020-11-06T04:48:18Z",
        "specimen": {
          "reference": "urn:uuid:ab976b53-6dac-4046-80d1-c698a738e404"
        }
      }
    },
    {
      "fullUrl": "urn:uuid:6fcef068-9569-45a6-88e2-ef31ccb30f33",
      "resource": {
        "resourceType": "Observation",
        "id": "6fcef068-9569-45a6-88e2-ef31ccb30f33",
        "meta": {
          "profile": [
            "http://hl7.eu/fhir/laboratory/StructureDefinition/Observation-resultslab-eu-lab"
          ]
        },
        "performer": [
          {
            "display": "The Central European Lab"
          }
        ],
        "category": [
          {
            "coding": [
              {
                "system": "http://terminology.hl7.org/CodeSystem/observation-category",
                "code": "laboratory"
              }
            ]
          }
        ],
        "code": {
          "coding": [
            {
              "code": "2160-0",
              "system": "http://loinc.org",
              "display": "Creatinine [Mass/volume] in Serum or Plasma"
            }
          ],
          "text": "Creatinine [Mass/volume] in Serum or Plasma"
        },
        "valueQuantity": {
          "system": "http://unitsofmeasure.org",
          "value": 2.1,
          "unit": "mg/dL",
          "code": "mg/dL"
        },
        "referenceRange": [
          {
            "low": {
              "value": 0.9,
              "code": "mg/dL",
              "system": "http://unitsofmeasure.org"
            }
          },
          {
            "high": {
              "value": 1.3,
              "code": "mg/dL",
              "system": "http://unitsofmeasure.org"
            }
          }
        ],
        "interpretation": [
          {
            "coding": [
              {
                "code": "H",
                "system": "http://terminology.hl7.org/CodeSystem/v3-ObservationInterpretation",
                "display": "High"
              }
            ]
          }
        ],
        "text": {
          "status": "generated",
          "div": "<div xmlns=\"http://www.w3.org/1999/xhtml\"><table class=\"hl7__eu__lab__report\"><tr><th>Test</th><th>06-Nov-2020</th><th>Reference&#xA0;Range</th><th>Unit</th></tr><tr><td>Creatinine [Mass/volume] in Serum or Plasma</td><td>2.1</td><td>0.9 - 1.3</td><td>H</td><td>mg/dL</td></tr></table></div>"
        },
        "status": "final",
        "subject": {
          "reference": "urn:uuid:85a1527e-0546-4b9e-953d-dcd99b58b6dc",
          "display": "Victor Lagarde"
        },
        "effectiveDateTime": "2020-11-06T04:48:18Z",
        "specimen": {
          "reference": "urn:uuid:ab976b53-6dac-4046-80d1-c698a738e404"
        }
      }
    },
    {
      "fullUrl": "urn:uuid:cb7178f1-3fef-48ec-bac7-e140a5ff248a",
      "resource": {
        "resourceType": "Observation",
        "id": "cb7178f1-3fef-48ec-bac7-e140a5ff248a",
        "meta": {
          "profile": [
            "http://hl7.eu/fhir/laboratory/StructureDefinition/Observation-resultslab-eu-lab"
          ]
        },
        "performer": [
          {
            "display": "The Central European Lab"
          }
        ],
        "category": [
          {
            "coding": [
              {
                "system": "http://terminology.hl7.org/CodeSystem/observation-category",
                "code": "laboratory"
              }
            ]
          }
        ],
        "code": {
          "coding": [
            {
              "code": "17861-6",
              "system": "http://loinc.org",
              "display": "Calcium [Mass/volume] in Serum or Plasma"
            }
          ],
          "text": "Calcium [Mass/volume] in Serum or Plasma"
        },
        "valueQuantity": {
          "system": "http://unitsofmeasure.org",
          "value": 9.9,
          "unit": "mg/dL",
          "code": "mg/dL"
        },
        "referenceRange": [
          {
            "low": {
              "value": 8.5,
              "code": "mg/dL",
              "system": "http://unitsofmeasure.org"
            }
          },
          {
            "high": {
              "value": 10.5,
              "code": "mg/dL",
              "system": "http://unitsofmeasure.org"
            }
          }
        ],
        "text": {
          "status": "generated",
          "div": "<div xmlns=\"http://www.w3.org/1999/xhtml\"><table class=\"hl7__eu__lab__report\"><tr><th>Test</th><th>06-Nov-2020</th><th>Reference&#xA0;Range</th><th>Unit</th></tr><tr><td>Calcium [Mass/volume] in Serum or Plasma</td><td>9.9</td><td>8.5 - 10.5</td><td></td><td>mg/dL</td></tr></table></div>"
        },
        "status": "final",
        "subject": {
          "reference": "urn:uuid:85a1527e-0546-4b9e-953d-dcd99b58b6dc",
          "display": "Victor Lagarde"
        },
        "effectiveDateTime": "2020-11-06T04:48:18Z",
        "specimen": {
          "reference": "urn:uuid:ab976b53-6dac-4046-80d1-c698a738e404"
        }
      }
    },
    {
      "fullUrl": "urn:uuid:c6dcc813-2516-4bf4-9c0a-1dc341d5d181",
      "resource": {
        "resourceType": "Observation",
        "id": "c6dcc813-2516-4bf4-9c0a-1dc341d5d181",
        "meta": {
          "profile": [
            "http://hl7.eu/fhir/laboratory/StructureDefinition/Observation-resultslab-eu-lab"
          ]
        },
        "performer": [
          {
            "display": "The Central European Lab"
          }
        ],
        "category": [
          {
            "coding": [
              {
                "system": "http://terminology.hl7.org/CodeSystem/observation-category",
                "code": "laboratory"
              }
            ]
          }
        ],
        "code": {
          "coding": [
            {
              "code": "2951-2",
              "system": "http://loinc.org",
              "display": "Sodium [Moles/volume] in Serum or Plasma"
            }
          ],
          "text": "Sodium [Moles/volume] in Serum or Plasma"
        },
        "valueQuantity": {
          "system": "http://unitsofmeasure.org",
          "value": 136.1,
          "unit": "mmol/L",
          "code": "mmol/L"
        },
        "referenceRange": [
          {
            "low": {
              "value": 135,
              "code": "mmol/L",
              "system": "http://unitsofmeasure.org"
            }
          },
          {
            "high": {
              "value": 145,
              "code": "mmol/L",
              "system": "http://unitsofmeasure.org"
            }
          }
        ],
        "text": {
          "status": "generated",
          "div": "<div xmlns=\"http://www.w3.org/1999/xhtml\"><table class=\"hl7__eu__lab__report\"><tr><th>Test</th><th>06-Nov-2020</th><th>Reference&#xA0;Range</th><th>Unit</th></tr><tr><td>Sodium [Moles/volume] in Serum or Plasma</td><td>136.1</td><td>135 - 145</td><td></td><td>mmol/L</td></tr></table></div>"
        },
        "status": "final",
        "subject": {
          "reference": "urn:uuid:85a1527e-0546-4b9e-953d-dcd99b58b6dc",
          "display": "Victor Lagarde"
        },
        "effectiveDateTime": "2020-11-06T04:48:18Z",
        "specimen": {
          "reference": "urn:uuid:ab976b53-6dac-4046-80d1-c698a738e404"
        }
      }
    },
    {
      "fullUrl": "urn:uuid:4bc9bf48-91eb-4ab7-ae51-927f869d622a",
      "resource": {
        "resourceType": "Observation",
        "id": "4bc9bf48-91eb-4ab7-ae51-927f869d622a",
        "meta": {
          "profile": [
            "http://hl7.eu/fhir/laboratory/StructureDefinition/Observation-resultslab-eu-lab"
          ]
        },
        "performer": [
          {
            "display": "The Central European Lab"
          }
        ],
        "category": [
          {
            "coding": [
              {
                "system": "http://terminology.hl7.org/CodeSystem/observation-category",
                "code": "laboratory"
              }
            ]
          }
        ],
        "code": {
          "coding": [
            {
              "code": "2823-3",
              "system": "http://loinc.org",
              "display": "Potassium [Moles/volume] in Serum or Plasma"
            }
          ],
          "text": "Potassium [Moles/volume] in Serum or Plasma"
        },
        "valueQuantity": {
          "system": "http://unitsofmeasure.org",
          "value": 4.6,
          "unit": "mmol/L",
          "code": "mmol/L"
        },
        "referenceRange": [
          {
            "low": {
              "value": 3.5,
              "code": "mmol/L",
              "system": "http://unitsofmeasure.org"
            }
          },
          {
            "high": {
              "value": 5.3,
              "code": "mmol/L",
              "system": "http://unitsofmeasure.org"
            }
          }
        ],
        "text": {
          "status": "generated",
          "div": "<div xmlns=\"http://www.w3.org/1999/xhtml\"><table class=\"hl7__eu__lab__report\"><tr><th>Test</th><th>06-Nov-2020</th><th>Reference&#xA0;Range</th><th>Unit</th></tr><tr><td>Potassium [Moles/volume] in Serum or Plasma</td><td>4.6</td><td>3.5 - 5.3</td><td></td><td>mmol/L</td></tr></table></div>"
        },
        "status": "final",
        "subject": {
          "reference": "urn:uuid:85a1527e-0546-4b9e-953d-dcd99b58b6dc",
          "display": "Victor Lagarde"
        },
        "effectiveDateTime": "2020-11-06T04:48:18Z",
        "specimen": {
          "reference": "urn:uuid:ab976b53-6dac-4046-80d1-c698a738e404"
        }
      }
    },
    {
      "fullUrl": "urn:uuid:21aacf8d-2ff3-4549-a503-d6fee885a7a6",
      "resource": {
        "resourceType": "Observation",
        "id": "21aacf8d-2ff3-4549-a503-d6fee885a7a6",
        "meta": {
          "profile": [
            "http://hl7.eu/fhir/laboratory/StructureDefinition/Observation-resultslab-eu-lab"
          ]
        },
        "performer": [
          {
            "display": "The Central European Lab"
          }
        ],
        "category": [
          {
            "coding": [
              {
                "system": "http://terminology.hl7.org/CodeSystem/observation-category",
                "code": "laboratory"
              }
            ]
          }
        ],
        "code": {
          "coding": [
            {
              "code": "2075-0",
              "system": "http://loinc.org",
              "display": "Chloride [Moles/volume] in Serum or Plasma"
            }
          ],
          "text": "Chloride [Moles/volume] in Serum or Plasma"
        },
        "valueQuantity": {
          "system": "http://unitsofmeasure.org",
          "value": 101.4,
          "unit": "mmol/L",
          "code": "mmol/L"
        },
        "referenceRange": [
          {
            "low": {
              "value": 98,
              "code": "mmol/L",
              "system": "http://unitsofmeasure.org"
            }
          },
          {
            "high": {
              "value": 107,
              "code": "mmol/L",
              "system": "http://unitsofmeasure.org"
            }
          }
        ],
        "text": {
          "status": "generated",
          "div": "<div xmlns=\"http://www.w3.org/1999/xhtml\"><table class=\"hl7__eu__lab__report\"><tr><th>Test</th><th>06-Nov-2020</th><th>Reference&#xA0;Range</th><th>Unit</th></tr><tr><td>Chloride [Moles/volume] in Serum or Plasma</td><td>101.4</td><td>98 - 107</td><td></td><td>mmol/L</td></tr></table></div>"
        },
        "status": "final",
        "subject": {
          "reference": "urn:uuid:85a1527e-0546-4b9e-953d-dcd99b58b6dc",
          "display": "Victor Lagarde"
        },
        "effectiveDateTime": "2020-11-06T04:48:18Z",
        "specimen": {
          "reference": "urn:uuid:ab976b53-6dac-4046-80d1-c698a738e404"
        }
      }
    },
    {
      "fullUrl": "urn:uuid:c4ec2f3b-3218-4bf7-9ef8-132866aad7cd",
      "resource": {
        "resourceType": "Observation",
        "id": "c4ec2f3b-3218-4bf7-9ef8-132866aad7cd",
        "meta": {
          "profile": [
            "http://hl7.eu/fhir/laboratory/StructureDefinition/Observation-resultslab-eu-lab"
          ]
        },
        "performer": [
          {
            "display": "The Central European Lab"
          }
        ],
        "category": [
          {
            "coding": [
              {
                "system": "http://terminology.hl7.org/CodeSystem/observation-category",
                "code": "laboratory"
              }
            ]
          }
        ],
        "code": {
          "coding": [
            {
              "code": "2028-9",
              "system": "http://loinc.org",
              "display": "Carbon dioxide, total [Moles/volume] in Serum or Plasma"
            }
          ],
          "text": "Carbon dioxide, total [Moles/volume] in Serum or Plasma"
        },
        "valueQuantity": {
          "system": "http://unitsofmeasure.org",
          "value": 29,
          "unit": "mmol/L",
          "code": "mmol/L"
        },
        "referenceRange": [
          {
            "low": {
              "value": 22,
              "code": "mmol/L",
              "system": "http://unitsofmeasure.org"
            }
          },
          {
            "high": {
              "value": 33,
              "code": "mmol/L",
              "system": "http://unitsofmeasure.org"
            }
          }
        ],
        "text": {
          "status": "generated",
          "div": "<div xmlns=\"http://www.w3.org/1999/xhtml\"><table class=\"hl7__eu__lab__report\"><tr><th>Test</th><th>06-Nov-2020</th><th>Reference&#xA0;Range</th><th>Unit</th></tr><tr><td>Carbon dioxide, total [Moles/volume] in Serum or Plasma</td><td>29.0</td><td>22 - 33</td><td></td><td>mmol/L</td></tr></table></div>"
        },
        "status": "final",
        "subject": {
          "reference": "urn:uuid:85a1527e-0546-4b9e-953d-dcd99b58b6dc",
          "display": "Victor Lagarde"
        },
        "effectiveDateTime": "2020-11-06T04:48:18Z",
        "specimen": {
          "reference": "urn:uuid:ab976b53-6dac-4046-80d1-c698a738e404"
        }
      }
    },
    {
      "fullUrl": "urn:uuid:12e24e69-f843-4f29-951f-94d9f8114891",
      "resource": {
        "resourceType": "Observation",
        "id": "12e24e69-f843-4f29-951f-94d9f8114891",
        "meta": {
          "profile": [
            "http://hl7.eu/fhir/laboratory/StructureDefinition/Observation-resultslab-eu-lab"
          ]
        },
        "performer": [
          {
            "display": "The Central European Lab"
          }
        ],
        "category": [
          {
            "coding": [
              {
                "system": "http://terminology.hl7.org/CodeSystem/observation-category",
                "code": "laboratory"
              }
            ]
          }
        ],
        "code": {
          "coding": [
            {
              "code": "5767-9",
              "system": "http://loinc.org",
              "display": "Appearance of Urine"
            }
          ],
          "text": "Appearance of Urine"
        },
        "text": {
          "status": "generated",
          "div": "<div xmlns=\"http://www.w3.org/1999/xhtml\"><table class=\"hl7__eu__lab__report\"><tr><th>Test</th><th>06-Nov-2020</th><th>Reference&#xA0;Range</th><th>Unit</th></tr><tr><td>Appearance of Urine</td></tr></table></div>"
        },
        "status": "final",
        "subject": {
          "reference": "urn:uuid:85a1527e-0546-4b9e-953d-dcd99b58b6dc",
          "display": "Victor Lagarde"
        },
        "effectiveDateTime": "2020-11-06T04:48:18Z",
        "specimen": {
          "reference": "urn:uuid:f51f5a9b-9b99-4514-aff1-edba937b0b16"
        }
      }
    },
    {
      "fullUrl": "urn:uuid:c6d28b44-6b20-4864-b298-4fbc0a136407",
      "resource": {
        "resourceType": "Observation",
        "id": "c6d28b44-6b20-4864-b298-4fbc0a136407",
        "meta": {
          "profile": [
            "http://hl7.eu/fhir/laboratory/StructureDefinition/Observation-resultslab-eu-lab"
          ]
        },
        "performer": [
          {
            "display": "The Central European Lab"
          }
        ],
        "category": [
          {
            "coding": [
              {
                "system": "http://terminology.hl7.org/CodeSystem/observation-category",
                "code": "laboratory"
              }
            ]
          }
        ],
        "code": {
          "coding": [
            {
              "code": "34533-0",
              "system": "http://loinc.org",
              "display": "Odor of Urine"
            }
          ],
          "text": "Odor of Urine"
        },
        "text": {
          "status": "generated",
          "div": "<div xmlns=\"http://www.w3.org/1999/xhtml\"><table class=\"hl7__eu__lab__report\"><tr><th>Test</th><th>06-Nov-2020</th><th>Reference&#xA0;Range</th><th>Unit</th></tr><tr><td>Odor of Urine</td></tr></table></div>"
        },
        "status": "final",
        "subject": {
          "reference": "urn:uuid:85a1527e-0546-4b9e-953d-dcd99b58b6dc",
          "display": "Victor Lagarde"
        },
        "effectiveDateTime": "2020-11-06T04:48:18Z",
        "specimen": {
          "reference": "urn:uuid:f51f5a9b-9b99-4514-aff1-edba937b0b16"
        }
      }
    },
    {
      "fullUrl": "urn:uuid:23845ecb-900d-494f-942b-ec6598b6038f",
      "resource": {
        "resourceType": "Observation",
        "id": "23845ecb-900d-494f-942b-ec6598b6038f",
        "meta": {
          "profile": [
            "http://hl7.eu/fhir/laboratory/StructureDefinition/Observation-resultslab-eu-lab"
          ]
        },
        "performer": [
          {
            "display": "The Central European Lab"
          }
        ],
        "category": [
          {
            "coding": [
              {
                "system": "http://terminology.hl7.org/CodeSystem/observation-category",
                "code": "laboratory"
              }
            ]
          }
        ],
        "code": {
          "coding": [
            {
              "code": "32167-9",
              "system": "http://loinc.org",
              "display": "Clarity of Urine"
            }
          ],
          "text": "Clarity of Urine"
        },
        "text": {
          "status": "generated",
          "div": "<div xmlns=\"http://www.w3.org/1999/xhtml\"><table class=\"hl7__eu__lab__report\"><tr><th>Test</th><th>06-Nov-2020</th><th>Reference&#xA0;Range</th><th>Unit</th></tr><tr><td>Clarity of Urine</td></tr></table></div>"
        },
        "status": "final",
        "subject": {
          "reference": "urn:uuid:85a1527e-0546-4b9e-953d-dcd99b58b6dc",
          "display": "Victor Lagarde"
        },
        "effectiveDateTime": "2020-11-06T04:48:18Z",
        "specimen": {
          "reference": "urn:uuid:f51f5a9b-9b99-4514-aff1-edba937b0b16"
        }
      }
    },
    {
      "fullUrl": "urn:uuid:807ac341-08ab-45b7-839c-8c1dc8e085f3",
      "resource": {
        "resourceType": "Observation",
        "id": "807ac341-08ab-45b7-839c-8c1dc8e085f3",
        "meta": {
          "profile": [
            "http://hl7.eu/fhir/laboratory/StructureDefinition/Observation-resultslab-eu-lab"
          ]
        },
        "performer": [
          {
            "display": "The Central European Lab"
          }
        ],
        "category": [
          {
            "coding": [
              {
                "system": "http://terminology.hl7.org/CodeSystem/observation-category",
                "code": "laboratory"
              }
            ]
          }
        ],
        "code": {
          "coding": [
            {
              "code": "5778-6",
              "system": "http://loinc.org",
              "display": "Color of Urine"
            }
          ],
          "text": "Color of Urine"
        },
        "text": {
          "status": "generated",
          "div": "<div xmlns=\"http://www.w3.org/1999/xhtml\"><table class=\"hl7__eu__lab__report\"><tr><th>Test</th><th>06-Nov-2020</th><th>Reference&#xA0;Range</th><th>Unit</th></tr><tr><td>Color of Urine</td></tr></table></div>"
        },
        "status": "final",
        "subject": {
          "reference": "urn:uuid:85a1527e-0546-4b9e-953d-dcd99b58b6dc",
          "display": "Victor Lagarde"
        },
        "effectiveDateTime": "2020-11-06T04:48:18Z",
        "specimen": {
          "reference": "urn:uuid:f51f5a9b-9b99-4514-aff1-edba937b0b16"
        }
      }
    },
    {
      "fullUrl": "urn:uuid:6f0b9b75-f8fd-492f-a616-a59aed2830c3",
      "resource": {
        "resourceType": "Observation",
        "id": "6f0b9b75-f8fd-492f-a616-a59aed2830c3",
        "meta": {
          "profile": [
            "http://hl7.eu/fhir/laboratory/StructureDefinition/Observation-resultslab-eu-lab"
          ]
        },
        "performer": [
          {
            "display": "The Central European Lab"
          }
        ],
        "category": [
          {
            "coding": [
              {
                "system": "http://terminology.hl7.org/CodeSystem/observation-category",
                "code": "laboratory"
              }
            ]
          }
        ],
        "code": {
          "coding": [
            {
              "code": "5792-7",
              "system": "http://loinc.org",
              "display": "Glucose [Mass/volume] in Urine by Test strip"
            }
          ],
          "text": "Glucose [Mass/volume] in Urine by Test strip"
        },
        "valueQuantity": {
          "system": "http://unitsofmeasure.org",
          "value": 1.2,
          "unit": "mg/dL",
          "code": "mg/dL"
        },
        "referenceRange": [
          {
            "low": {
              "value": 0,
              "code": "mg/dL",
              "system": "http://unitsofmeasure.org"
            }
          },
          {
            "high": {
              "value": 0.8,
              "code": "mg/dL",
              "system": "http://unitsofmeasure.org"
            }
          }
        ],
        "interpretation": [
          {
            "coding": [
              {
                "code": "H",
                "system": "http://terminology.hl7.org/CodeSystem/v3-ObservationInterpretation",
                "display": "High"
              }
            ]
          }
        ],
        "text": {
          "status": "generated",
          "div": "<div xmlns=\"http://www.w3.org/1999/xhtml\"><table class=\"hl7__eu__lab__report\"><tr><th>Test</th><th>06-Nov-2020</th><th>Reference&#xA0;Range</th><th>Unit</th></tr><tr><td>Glucose [Mass/volume] in Urine by Test strip</td><td>1.2</td><td>0 - 0.8</td><td>H</td><td>mg/dL</td></tr></table></div>"
        },
        "status": "final",
        "subject": {
          "reference": "urn:uuid:85a1527e-0546-4b9e-953d-dcd99b58b6dc",
          "display": "Victor Lagarde"
        },
        "effectiveDateTime": "2020-11-06T04:48:18Z",
        "specimen": {
          "reference": "urn:uuid:f51f5a9b-9b99-4514-aff1-edba937b0b16"
        }
      }
    },
    {
      "fullUrl": "urn:uuid:5561c317-fd11-4e6d-aeac-12e6cfe45b06",
      "resource": {
        "resourceType": "Observation",
        "id": "5561c317-fd11-4e6d-aeac-12e6cfe45b06",
        "meta": {
          "profile": [
            "http://hl7.eu/fhir/laboratory/StructureDefinition/Observation-resultslab-eu-lab"
          ]
        },
        "performer": [
          {
            "display": "The Central European Lab"
          }
        ],
        "category": [
          {
            "coding": [
              {
                "system": "http://terminology.hl7.org/CodeSystem/observation-category",
                "code": "laboratory"
              }
            ]
          }
        ],
        "code": {
          "coding": [
            {
              "code": "25428-4",
              "system": "http://loinc.org",
              "display": "Glucose [Presence] in Urine by Test strip"
            }
          ],
          "text": "Glucose [Presence] in Urine by Test strip"
        },
        "text": {
          "status": "generated",
          "div": "<div xmlns=\"http://www.w3.org/1999/xhtml\"><table class=\"hl7__eu__lab__report\"><tr><th>Test</th><th>06-Nov-2020</th><th>Reference&#xA0;Range</th><th>Unit</th></tr><tr><td>Glucose [Presence] in Urine by Test strip</td></tr></table></div>"
        },
        "status": "final",
        "subject": {
          "reference": "urn:uuid:85a1527e-0546-4b9e-953d-dcd99b58b6dc",
          "display": "Victor Lagarde"
        },
        "effectiveDateTime": "2020-11-06T04:48:18Z",
        "specimen": {
          "reference": "urn:uuid:f51f5a9b-9b99-4514-aff1-edba937b0b16"
        }
      }
    },
    {
      "fullUrl": "urn:uuid:c7fac9b2-24aa-4661-bd31-dc00d9113043",
      "resource": {
        "resourceType": "Observation",
        "id": "c7fac9b2-24aa-4661-bd31-dc00d9113043",
        "meta": {
          "profile": [
            "http://hl7.eu/fhir/laboratory/StructureDefinition/Observation-resultslab-eu-lab"
          ]
        },
        "performer": [
          {
            "display": "The Central European Lab"
          }
        ],
        "category": [
          {
            "coding": [
              {
                "system": "http://terminology.hl7.org/CodeSystem/observation-category",
                "code": "laboratory"
              }
            ]
          }
        ],
        "code": {
          "coding": [
            {
              "code": "20505-4",
              "system": "http://loinc.org",
              "display": "Bilirubin.total [Mass/volume] in Urine by Test strip"
            }
          ],
          "text": "Bilirubin.total [Mass/volume] in Urine by Test strip"
        },
        "valueQuantity": {
          "system": "http://unitsofmeasure.org",
          "value": 0.9,
          "unit": "mg/dL",
          "code": "mg/dL"
        },
        "referenceRange": [
          {
            "low": {
              "value": 0,
              "code": "mg/dL",
              "system": "http://unitsofmeasure.org"
            }
          },
          {
            "high": {
              "value": 1.9,
              "code": "mg/dL",
              "system": "http://unitsofmeasure.org"
            }
          }
        ],
        "text": {
          "status": "generated",
          "div": "<div xmlns=\"http://www.w3.org/1999/xhtml\"><table class=\"hl7__eu__lab__report\"><tr><th>Test</th><th>06-Nov-2020</th><th>Reference&#xA0;Range</th><th>Unit</th></tr><tr><td>Bilirubin.total [Mass/volume] in Urine by Test strip</td><td>0.9</td><td>0 - 1.9</td><td></td><td>mg/dL</td></tr></table></div>"
        },
        "status": "final",
        "subject": {
          "reference": "urn:uuid:85a1527e-0546-4b9e-953d-dcd99b58b6dc",
          "display": "Victor Lagarde"
        },
        "effectiveDateTime": "2020-11-06T04:48:18Z",
        "specimen": {
          "reference": "urn:uuid:f51f5a9b-9b99-4514-aff1-edba937b0b16"
        }
      }
    },
    {
      "fullUrl": "urn:uuid:e344b440-b130-4041-887d-6da6d31eae40",
      "resource": {
        "resourceType": "Observation",
        "id": "e344b440-b130-4041-887d-6da6d31eae40",
        "meta": {
          "profile": [
            "http://hl7.eu/fhir/laboratory/StructureDefinition/Observation-resultslab-eu-lab"
          ]
        },
        "performer": [
          {
            "display": "The Central European Lab"
          }
        ],
        "category": [
          {
            "coding": [
              {
                "system": "http://terminology.hl7.org/CodeSystem/observation-category",
                "code": "laboratory"
              }
            ]
          }
        ],
        "code": {
          "coding": [
            {
              "code": "5770-3",
              "system": "http://loinc.org",
              "display": "Bilirubin.total [Presence] in Urine by Test strip"
            }
          ],
          "text": "Bilirubin.total [Presence] in Urine by Test strip"
        },
        "text": {
          "status": "generated",
          "div": "<div xmlns=\"http://www.w3.org/1999/xhtml\"><table class=\"hl7__eu__lab__report\"><tr><th>Test</th><th>06-Nov-2020</th><th>Reference&#xA0;Range</th><th>Unit</th></tr><tr><td>Bilirubin.total [Presence] in Urine by Test strip</td></tr></table></div>"
        },
        "status": "final",
        "subject": {
          "reference": "urn:uuid:85a1527e-0546-4b9e-953d-dcd99b58b6dc",
          "display": "Victor Lagarde"
        },
        "effectiveDateTime": "2020-11-06T04:48:18Z",
        "specimen": {
          "reference": "urn:uuid:f51f5a9b-9b99-4514-aff1-edba937b0b16"
        }
      }
    },
    {
      "fullUrl": "urn:uuid:e9eb4fb8-2e91-49b5-9630-a489e9efd2cb",
      "resource": {
        "resourceType": "Observation",
        "id": "e9eb4fb8-2e91-49b5-9630-a489e9efd2cb",
        "meta": {
          "profile": [
            "http://hl7.eu/fhir/laboratory/StructureDefinition/Observation-resultslab-eu-lab"
          ]
        },
        "performer": [
          {
            "display": "The Central European Lab"
          }
        ],
        "category": [
          {
            "coding": [
              {
                "system": "http://terminology.hl7.org/CodeSystem/observation-category",
                "code": "laboratory"
              }
            ]
          }
        ],
        "code": {
          "coding": [
            {
              "code": "5797-6",
              "system": "http://loinc.org",
              "display": "Ketones [Mass/volume] in Urine by Test strip"
            }
          ],
          "text": "Ketones [Mass/volume] in Urine by Test strip"
        },
        "valueQuantity": {
          "system": "http://unitsofmeasure.org",
          "value": 12.8,
          "unit": "mg/dL",
          "code": "mg/dL"
        },
        "referenceRange": [
          {
            "low": {
              "value": 0,
              "code": "mg/dL",
              "system": "http://unitsofmeasure.org"
            }
          },
          {
            "high": {
              "value": 3,
              "code": "mg/dL",
              "system": "http://unitsofmeasure.org"
            }
          }
        ],
        "interpretation": [
          {
            "coding": [
              {
                "code": "H",
                "system": "http://terminology.hl7.org/CodeSystem/v3-ObservationInterpretation",
                "display": "High"
              }
            ]
          }
        ],
        "text": {
          "status": "generated",
          "div": "<div xmlns=\"http://www.w3.org/1999/xhtml\"><table class=\"hl7__eu__lab__report\"><tr><th>Test</th><th>06-Nov-2020</th><th>Reference&#xA0;Range</th><th>Unit</th></tr><tr><td>Ketones [Mass/volume] in Urine by Test strip</td><td>12.8</td><td>0 - 3</td><td>H</td><td>mg/dL</td></tr></table></div>"
        },
        "status": "final",
        "subject": {
          "reference": "urn:uuid:85a1527e-0546-4b9e-953d-dcd99b58b6dc",
          "display": "Victor Lagarde"
        },
        "effectiveDateTime": "2020-11-06T04:48:18Z",
        "specimen": {
          "reference": "urn:uuid:f51f5a9b-9b99-4514-aff1-edba937b0b16"
        }
      }
    },
    {
      "fullUrl": "urn:uuid:930f91a7-4227-42e4-b3ca-4e0b79cb3c6f",
      "resource": {
        "resourceType": "Observation",
        "id": "930f91a7-4227-42e4-b3ca-4e0b79cb3c6f",
        "meta": {
          "profile": [
            "http://hl7.eu/fhir/laboratory/StructureDefinition/Observation-resultslab-eu-lab"
          ]
        },
        "performer": [
          {
            "display": "The Central European Lab"
          }
        ],
        "category": [
          {
            "coding": [
              {
                "system": "http://terminology.hl7.org/CodeSystem/observation-category",
                "code": "laboratory"
              }
            ]
          }
        ],
        "code": {
          "coding": [
            {
              "code": "2514-8",
              "system": "http://loinc.org",
              "display": "Ketones [Presence] in Urine by Test strip"
            }
          ],
          "text": "Ketones [Presence] in Urine by Test strip"
        },
        "text": {
          "status": "generated",
          "div": "<div xmlns=\"http://www.w3.org/1999/xhtml\"><table class=\"hl7__eu__lab__report\"><tr><th>Test</th><th>06-Nov-2020</th><th>Reference&#xA0;Range</th><th>Unit</th></tr><tr><td>Ketones [Presence] in Urine by Test strip</td></tr></table></div>"
        },
        "status": "final",
        "subject": {
          "reference": "urn:uuid:85a1527e-0546-4b9e-953d-dcd99b58b6dc",
          "display": "Victor Lagarde"
        },
        "effectiveDateTime": "2020-11-06T04:48:18Z",
        "specimen": {
          "reference": "urn:uuid:f51f5a9b-9b99-4514-aff1-edba937b0b16"
        }
      }
    },
    {
      "fullUrl": "urn:uuid:1c2f3bb2-c91b-4c16-b52f-930bdbd679b5",
      "resource": {
        "resourceType": "Observation",
        "id": "1c2f3bb2-c91b-4c16-b52f-930bdbd679b5",
        "meta": {
          "profile": [
            "http://hl7.eu/fhir/laboratory/StructureDefinition/Observation-resultslab-eu-lab"
          ]
        },
        "performer": [
          {
            "display": "The Central European Lab"
          }
        ],
        "category": [
          {
            "coding": [
              {
                "system": "http://terminology.hl7.org/CodeSystem/observation-category",
                "code": "laboratory"
              }
            ]
          }
        ],
        "code": {
          "coding": [
            {
              "code": "5811-5",
              "system": "http://loinc.org",
              "display": "Specific gravity of Urine by Test strip"
            }
          ],
          "text": "Specific gravity of Urine by Test strip"
        },
        "valueQuantity": {
          "system": "http://unitsofmeasure.org",
          "value": 1,
          "unit": "{nominal}",
          "code": "{nominal}"
        },
        "referenceRange": [
          {
            "low": {
              "value": 1.01,
              "code": "g/mL",
              "system": "http://unitsofmeasure.org"
            }
          },
          {
            "high": {
              "value": 1.03,
              "code": "g/mL",
              "system": "http://unitsofmeasure.org"
            }
          }
        ],
        "interpretation": [
          {
            "coding": [
              {
                "code": "L",
                "system": "http://terminology.hl7.org/CodeSystem/v3-ObservationInterpretation",
                "display": "Low"
              }
            ]
          }
        ],
        "text": {
          "status": "generated",
          "div": "<div xmlns=\"http://www.w3.org/1999/xhtml\"><table class=\"hl7__eu__lab__report\"><tr><th>Test</th><th>06-Nov-2020</th><th>Reference&#xA0;Range</th><th>Unit</th></tr><tr><td>Specific gravity of Urine by Test strip</td><td>1.0</td><td>1.01 - 1.03</td><td>L</td><td>{nominal}</td></tr></table></div>"
        },
        "status": "final",
        "subject": {
          "reference": "urn:uuid:85a1527e-0546-4b9e-953d-dcd99b58b6dc",
          "display": "Victor Lagarde"
        },
        "effectiveDateTime": "2020-11-06T04:48:18Z",
        "specimen": {
          "reference": "urn:uuid:f51f5a9b-9b99-4514-aff1-edba937b0b16"
        }
      }
    },
    {
      "fullUrl": "urn:uuid:b23fc9be-d55a-4075-aa50-842da2451a4c",
      "resource": {
        "resourceType": "Observation",
        "id": "b23fc9be-d55a-4075-aa50-842da2451a4c",
        "meta": {
          "profile": [
            "http://hl7.eu/fhir/laboratory/StructureDefinition/Observation-resultslab-eu-lab"
          ]
        },
        "performer": [
          {
            "display": "The Central European Lab"
          }
        ],
        "category": [
          {
            "coding": [
              {
                "system": "http://terminology.hl7.org/CodeSystem/observation-category",
                "code": "laboratory"
              }
            ]
          }
        ],
        "code": {
          "coding": [
            {
              "code": "5803-2",
              "system": "http://loinc.org",
              "display": "pH of Urine by Test strip"
            }
          ],
          "text": "pH of Urine by Test strip"
        },
        "valueQuantity": {
          "system": "http://unitsofmeasure.org",
          "value": 6.3,
          "unit": "pH",
          "code": "pH"
        },
        "referenceRange": [
          {
            "low": {
              "value": 4.5,
              "code": "pH",
              "system": "http://unitsofmeasure.org"
            }
          },
          {
            "high": {
              "value": 7.5,
              "code": "pH",
              "system": "http://unitsofmeasure.org"
            }
          }
        ],
        "text": {
          "status": "generated",
          "div": "<div xmlns=\"http://www.w3.org/1999/xhtml\"><table class=\"hl7__eu__lab__report\"><tr><th>Test</th><th>06-Nov-2020</th><th>Reference&#xA0;Range</th><th>Unit</th></tr><tr><td>pH of Urine by Test strip</td><td>6.3</td><td>4.5 - 7.5</td><td></td><td>pH</td></tr></table></div>"
        },
        "status": "final",
        "subject": {
          "reference": "urn:uuid:85a1527e-0546-4b9e-953d-dcd99b58b6dc",
          "display": "Victor Lagarde"
        },
        "effectiveDateTime": "2020-11-06T04:48:18Z",
        "specimen": {
          "reference": "urn:uuid:f51f5a9b-9b99-4514-aff1-edba937b0b16"
        }
      }
    },
    {
      "fullUrl": "urn:uuid:345a6fe3-ac4d-4b31-b5a9-ee94b1aa78db",
      "resource": {
        "resourceType": "Observation",
        "id": "345a6fe3-ac4d-4b31-b5a9-ee94b1aa78db",
        "meta": {
          "profile": [
            "http://hl7.eu/fhir/laboratory/StructureDefinition/Observation-resultslab-eu-lab"
          ]
        },
        "performer": [
          {
            "display": "The Central European Lab"
          }
        ],
        "category": [
          {
            "coding": [
              {
                "system": "http://terminology.hl7.org/CodeSystem/observation-category",
                "code": "laboratory"
              }
            ]
          }
        ],
        "code": {
          "coding": [
            {
              "code": "5804-0",
              "system": "http://loinc.org",
              "display": "Protein [Mass/volume] in Urine by Test strip"
            }
          ],
          "text": "Protein [Mass/volume] in Urine by Test strip"
        },
        "valueQuantity": {
          "system": "http://unitsofmeasure.org",
          "value": 228.9,
          "unit": "mg/dL",
          "code": "mg/dL"
        },
        "referenceRange": [
          {
            "low": {
              "value": 0,
              "code": "mg/dL",
              "system": "http://unitsofmeasure.org"
            }
          },
          {
            "high": {
              "value": 149,
              "code": "mg/dL",
              "system": "http://unitsofmeasure.org"
            }
          }
        ],
        "interpretation": [
          {
            "coding": [
              {
                "code": "H",
                "system": "http://terminology.hl7.org/CodeSystem/v3-ObservationInterpretation",
                "display": "High"
              }
            ]
          }
        ],
        "text": {
          "status": "generated",
          "div": "<div xmlns=\"http://www.w3.org/1999/xhtml\"><table class=\"hl7__eu__lab__report\"><tr><th>Test</th><th>06-Nov-2020</th><th>Reference&#xA0;Range</th><th>Unit</th></tr><tr><td>Protein [Mass/volume] in Urine by Test strip</td><td>228.9</td><td>0 - 149</td><td>H</td><td>mg/dL</td></tr></table></div>"
        },
        "status": "final",
        "subject": {
          "reference": "urn:uuid:85a1527e-0546-4b9e-953d-dcd99b58b6dc",
          "display": "Victor Lagarde"
        },
        "effectiveDateTime": "2020-11-06T04:48:18Z",
        "specimen": {
          "reference": "urn:uuid:f51f5a9b-9b99-4514-aff1-edba937b0b16"
        }
      }
    },
    {
      "fullUrl": "urn:uuid:f95e0a07-2ce1-4210-9719-3c40a2bf7bc3",
      "resource": {
        "resourceType": "Observation",
        "id": "f95e0a07-2ce1-4210-9719-3c40a2bf7bc3",
        "meta": {
          "profile": [
            "http://hl7.eu/fhir/laboratory/StructureDefinition/Observation-resultslab-eu-lab"
          ]
        },
        "performer": [
          {
            "display": "The Central European Lab"
          }
        ],
        "category": [
          {
            "coding": [
              {
                "system": "http://terminology.hl7.org/CodeSystem/observation-category",
                "code": "laboratory"
              }
            ]
          }
        ],
        "code": {
          "coding": [
            {
              "code": "20454-5",
              "system": "http://loinc.org",
              "display": "Protein [Presence] in Urine by Test strip"
            }
          ],
          "text": "Protein [Presence] in Urine by Test strip"
        },
        "text": {
          "status": "generated",
          "div": "<div xmlns=\"http://www.w3.org/1999/xhtml\"><table class=\"hl7__eu__lab__report\"><tr><th>Test</th><th>06-Nov-2020</th><th>Reference&#xA0;Range</th><th>Unit</th></tr><tr><td>Protein [Presence] in Urine by Test strip</td></tr></table></div>"
        },
        "status": "final",
        "subject": {
          "reference": "urn:uuid:85a1527e-0546-4b9e-953d-dcd99b58b6dc",
          "display": "Victor Lagarde"
        },
        "effectiveDateTime": "2020-11-06T04:48:18Z",
        "specimen": {
          "reference": "urn:uuid:f51f5a9b-9b99-4514-aff1-edba937b0b16"
        }
      }
    },
    {
      "fullUrl": "urn:uuid:a14c267a-97df-48cc-bb0e-28ed25a8878a",
      "resource": {
        "resourceType": "Observation",
        "id": "a14c267a-97df-48cc-bb0e-28ed25a8878a",
        "meta": {
          "profile": [
            "http://hl7.eu/fhir/laboratory/StructureDefinition/Observation-resultslab-eu-lab"
          ]
        },
        "performer": [
          {
            "display": "The Central European Lab"
          }
        ],
        "category": [
          {
            "coding": [
              {
                "system": "http://terminology.hl7.org/CodeSystem/observation-category",
                "code": "laboratory"
              }
            ]
          }
        ],
        "code": {
          "coding": [
            {
              "code": "5802-4",
              "system": "http://loinc.org",
              "display": "Nitrite [Presence] in Urine by Test strip"
            }
          ],
          "text": "Nitrite [Presence] in Urine by Test strip"
        },
        "text": {
          "status": "generated",
          "div": "<div xmlns=\"http://www.w3.org/1999/xhtml\"><table class=\"hl7__eu__lab__report\"><tr><th>Test</th><th>06-Nov-2020</th><th>Reference&#xA0;Range</th><th>Unit</th></tr><tr><td>Nitrite [Presence] in Urine by Test strip</td></tr></table></div>"
        },
        "status": "final",
        "subject": {
          "reference": "urn:uuid:85a1527e-0546-4b9e-953d-dcd99b58b6dc",
          "display": "Victor Lagarde"
        },
        "effectiveDateTime": "2020-11-06T04:48:18Z",
        "specimen": {
          "reference": "urn:uuid:f51f5a9b-9b99-4514-aff1-edba937b0b16"
        }
      }
    },
    {
      "fullUrl": "urn:uuid:69bf7355-bca6-4933-86d1-a184cc593f8e",
      "resource": {
        "resourceType": "Observation",
        "id": "69bf7355-bca6-4933-86d1-a184cc593f8e",
        "meta": {
          "profile": [
            "http://hl7.eu/fhir/laboratory/StructureDefinition/Observation-resultslab-eu-lab"
          ]
        },
        "performer": [
          {
            "display": "The Central European Lab"
          }
        ],
        "category": [
          {
            "coding": [
              {
                "system": "http://terminology.hl7.org/CodeSystem/observation-category",
                "code": "laboratory"
              }
            ]
          }
        ],
        "code": {
          "coding": [
            {
              "code": "5794-3",
              "system": "http://loinc.org",
              "display": "Hemoglobin [Presence] in Urine by Test strip"
            }
          ],
          "text": "Hemoglobin [Presence] in Urine by Test strip"
        },
        "text": {
          "status": "generated",
          "div": "<div xmlns=\"http://www.w3.org/1999/xhtml\"><table class=\"hl7__eu__lab__report\"><tr><th>Test</th><th>06-Nov-2020</th><th>Reference&#xA0;Range</th><th>Unit</th></tr><tr><td>Hemoglobin [Presence] in Urine by Test strip</td></tr></table></div>"
        },
        "status": "final",
        "subject": {
          "reference": "urn:uuid:85a1527e-0546-4b9e-953d-dcd99b58b6dc",
          "display": "Victor Lagarde"
        },
        "effectiveDateTime": "2020-11-06T04:48:18Z",
        "specimen": {
          "reference": "urn:uuid:f51f5a9b-9b99-4514-aff1-edba937b0b16"
        }
      }
    },
    {
      "fullUrl": "urn:uuid:98da621c-31d4-48c2-aa36-274fe6c3e7ad",
      "resource": {
        "resourceType": "Observation",
        "id": "98da621c-31d4-48c2-aa36-274fe6c3e7ad",
        "meta": {
          "profile": [
            "http://hl7.eu/fhir/laboratory/StructureDefinition/Observation-resultslab-eu-lab"
          ]
        },
        "performer": [
          {
            "display": "The Central European Lab"
          }
        ],
        "category": [
          {
            "coding": [
              {
                "system": "http://terminology.hl7.org/CodeSystem/observation-category",
                "code": "laboratory"
              }
            ]
          }
        ],
        "code": {
          "coding": [
            {
              "code": "5799-2",
              "system": "http://loinc.org",
              "display": "Leukocyte esterase [Presence] in Urine by Test strip"
            }
          ],
          "text": "Leukocyte esterase [Presence] in Urine by Test strip"
        },
        "text": {
          "status": "generated",
          "div": "<div xmlns=\"http://www.w3.org/1999/xhtml\"><table class=\"hl7__eu__lab__report\"><tr><th>Test</th><th>06-Nov-2020</th><th>Reference&#xA0;Range</th><th>Unit</th></tr><tr><td>Leukocyte esterase [Presence] in Urine by Test strip</td></tr></table></div>"
        },
        "status": "final",
        "subject": {
          "reference": "urn:uuid:85a1527e-0546-4b9e-953d-dcd99b58b6dc",
          "display": "Victor Lagarde"
        },
        "effectiveDateTime": "2020-11-06T04:48:18Z",
        "specimen": {
          "reference": "urn:uuid:f51f5a9b-9b99-4514-aff1-edba937b0b16"
        }
      }
    },
    {
      "fullUrl": "urn:uuid:8bbed9b6-9606-477c-b0f1-bd882ee444d7",
      "resource": {
        "resourceType": "Observation",
        "id": "8bbed9b6-9606-477c-b0f1-bd882ee444d7",
        "meta": {
          "profile": [
            "http://hl7.eu/fhir/laboratory/StructureDefinition/Observation-resultslab-eu-lab"
          ]
        },
        "performer": [
          {
            "display": "The Central European Lab"
          }
        ],
        "category": [
          {
            "coding": [
              {
                "system": "http://terminology.hl7.org/CodeSystem/observation-category",
                "code": "laboratory"
              }
            ]
          }
        ],
        "code": {
          "coding": [
            {
              "code": "4548-4",
              "system": "http://loinc.org",
              "display": "Hemoglobin A1c/Hemoglobin.total in Blood"
            }
          ],
          "text": "Hemoglobin A1c/Hemoglobin.total in Blood"
        },
        "valueQuantity": {
          "system": "http://unitsofmeasure.org",
          "value": 3.1,
          "unit": "%",
          "code": "%"
        },
        "referenceRange": [
          {
            "low": {
              "value": 4.3,
              "code": "%",
              "system": "http://unitsofmeasure.org"
            }
          },
          {
            "high": {
              "value": 6,
              "code": "%",
              "system": "http://unitsofmeasure.org"
            }
          }
        ],
        "interpretation": [
          {
            "coding": [
              {
                "code": "L",
                "system": "http://terminology.hl7.org/CodeSystem/v3-ObservationInterpretation",
                "display": "Low"
              }
            ]
          }
        ],
        "text": {
          "status": "generated",
          "div": "<div xmlns=\"http://www.w3.org/1999/xhtml\"><table class=\"hl7__eu__lab__report\"><tr><th>Test</th><th>06-Nov-2020</th><th>Reference&#xA0;Range</th><th>Unit</th></tr><tr><td>Hemoglobin A1c/Hemoglobin.total in Blood</td><td>3.1</td><td>4.3 - 6</td><td>L</td><td>%</td></tr></table></div>"
        },
        "status": "final",
        "subject": {
          "reference": "urn:uuid:85a1527e-0546-4b9e-953d-dcd99b58b6dc",
          "display": "Victor Lagarde"
        },
        "effectiveDateTime": "2020-11-06T04:48:18Z",
        "specimen": {
          "reference": "urn:uuid:d43c4015-775b-459b-b3b2-8d97d7b9d0d3"
        }
      }
    },
    {
      "fullUrl": "urn:uuid:18e4b93e-1786-4cce-9ec3-21ac97f96963",
      "resource": {
        "resourceType": "Observation",
        "id": "18e4b93e-1786-4cce-9ec3-21ac97f96963",
        "meta": {
          "profile": [
            "http://hl7.eu/fhir/laboratory/StructureDefinition/Observation-resultslab-eu-lab"
          ]
        },
        "performer": [
          {
            "display": "The Central European Lab"
          }
        ],
        "category": [
          {
            "coding": [
              {
                "system": "http://terminology.hl7.org/CodeSystem/observation-category",
                "code": "laboratory"
              }
            ]
          }
        ],
        "code": {
          "coding": [
            {
              "code": "2339-0",
              "system": "http://loinc.org",
              "display": "Glucose [Mass/volume] in Blood"
            }
          ],
          "text": "Glucose [Mass/volume] in Blood"
        },
        "valueQuantity": {
          "system": "http://unitsofmeasure.org",
          "value": 84.5,
          "unit": "mg/dL",
          "code": "mg/dL"
        },
        "referenceRange": [
          {
            "low": {
              "value": 70,
              "code": "mg/dL",
              "system": "http://unitsofmeasure.org"
            }
          },
          {
            "high": {
              "value": 140,
              "code": "mg/dL",
              "system": "http://unitsofmeasure.org"
            }
          }
        ],
        "text": {
          "status": "generated",
          "div": "<div xmlns=\"http://www.w3.org/1999/xhtml\"><table class=\"hl7__eu__lab__report\"><tr><th>Test</th><th>06-Nov-2020</th><th>Reference&#xA0;Range</th><th>Unit</th></tr><tr><td>Glucose [Mass/volume] in Blood</td><td>84.5</td><td>70 - 140</td><td></td><td>mg/dL</td></tr></table></div>"
        },
        "status": "final",
        "subject": {
          "reference": "urn:uuid:85a1527e-0546-4b9e-953d-dcd99b58b6dc",
          "display": "Victor Lagarde"
        },
        "effectiveDateTime": "2020-11-06T04:48:18Z",
        "specimen": {
          "reference": "urn:uuid:d43c4015-775b-459b-b3b2-8d97d7b9d0d3"
        }
      }
    },
    {
      "fullUrl": "urn:uuid:49db3c43-1a1e-4910-9a9d-b78779ee1fc2",
      "resource": {
        "resourceType": "Observation",
        "id": "49db3c43-1a1e-4910-9a9d-b78779ee1fc2",
        "meta": {
          "profile": [
            "http://hl7.eu/fhir/laboratory/StructureDefinition/Observation-resultslab-eu-lab"
          ]
        },
        "performer": [
          {
            "display": "The Central European Lab"
          }
        ],
        "category": [
          {
            "coding": [
              {
                "system": "http://terminology.hl7.org/CodeSystem/observation-category",
                "code": "laboratory"
              }
            ]
          }
        ],
        "code": {
          "coding": [
            {
              "code": "6299-2",
              "system": "http://loinc.org",
              "display": "Urea nitrogen [Mass/volume] in Blood"
            }
          ],
          "text": "Urea nitrogen [Mass/volume] in Blood"
        },
        "valueQuantity": {
          "system": "http://unitsofmeasure.org",
          "value": 16.5,
          "unit": "mg/dL",
          "code": "mg/dL"
        },
        "referenceRange": [
          {
            "low": {
              "value": 7,
              "code": "mg/dL",
              "system": "http://unitsofmeasure.org"
            }
          },
          {
            "high": {
              "value": 20,
              "code": "mg/dL",
              "system": "http://unitsofmeasure.org"
            }
          }
        ],
        "text": {
          "status": "generated",
          "div": "<div xmlns=\"http://www.w3.org/1999/xhtml\"><table class=\"hl7__eu__lab__report\"><tr><th>Test</th><th>06-Nov-2020</th><th>Reference&#xA0;Range</th><th>Unit</th></tr><tr><td>Urea nitrogen [Mass/volume] in Blood</td><td>16.5</td><td>7 - 20</td><td></td><td>mg/dL</td></tr></table></div>"
        },
        "status": "final",
        "subject": {
          "reference": "urn:uuid:85a1527e-0546-4b9e-953d-dcd99b58b6dc",
          "display": "Victor Lagarde"
        },
        "effectiveDateTime": "2020-11-06T04:48:18Z",
        "specimen": {
          "reference": "urn:uuid:d43c4015-775b-459b-b3b2-8d97d7b9d0d3"
        }
      }
    },
    {
      "fullUrl": "urn:uuid:2c952749-b799-4aa9-9017-58654c36907f",
      "resource": {
        "resourceType": "Observation",
        "id": "2c952749-b799-4aa9-9017-58654c36907f",
        "meta": {
          "profile": [
            "http://hl7.eu/fhir/laboratory/StructureDefinition/Observation-resultslab-eu-lab"
          ]
        },
        "performer": [
          {
            "display": "The Central European Lab"
          }
        ],
        "category": [
          {
            "coding": [
              {
                "system": "http://terminology.hl7.org/CodeSystem/observation-category",
                "code": "laboratory"
              }
            ]
          }
        ],
        "code": {
          "coding": [
            {
              "code": "38483-4",
              "system": "http://loinc.org",
              "display": "Creatinine [Mass/volume] in Blood"
            }
          ],
          "text": "Creatinine [Mass/volume] in Blood"
        },
        "valueQuantity": {
          "system": "http://unitsofmeasure.org",
          "value": 4.4,
          "unit": "mg/dL",
          "code": "mg/dL"
        },
        "referenceRange": [
          {
            "low": {
              "value": 0.9,
              "code": "mg/dL",
              "system": "http://unitsofmeasure.org"
            }
          },
          {
            "high": {
              "value": 1.3,
              "code": "mg/dL",
              "system": "http://unitsofmeasure.org"
            }
          }
        ],
        "interpretation": [
          {
            "coding": [
              {
                "code": "H",
                "system": "http://terminology.hl7.org/CodeSystem/v3-ObservationInterpretation",
                "display": "High"
              }
            ]
          }
        ],
        "text": {
          "status": "generated",
          "div": "<div xmlns=\"http://www.w3.org/1999/xhtml\"><table class=\"hl7__eu__lab__report\"><tr><th>Test</th><th>06-Nov-2020</th><th>Reference&#xA0;Range</th><th>Unit</th></tr><tr><td>Creatinine [Mass/volume] in Blood</td><td>4.4</td><td>0.9 - 1.3</td><td>H</td><td>mg/dL</td></tr></table></div>"
        },
        "status": "final",
        "subject": {
          "reference": "urn:uuid:85a1527e-0546-4b9e-953d-dcd99b58b6dc",
          "display": "Victor Lagarde"
        },
        "effectiveDateTime": "2020-11-06T04:48:18Z",
        "specimen": {
          "reference": "urn:uuid:d43c4015-775b-459b-b3b2-8d97d7b9d0d3"
        }
      }
    },
    {
      "fullUrl": "urn:uuid:6fbb1c75-30d2-4296-84a4-6abb60d7cef1",
      "resource": {
        "resourceType": "Observation",
        "id": "6fbb1c75-30d2-4296-84a4-6abb60d7cef1",
        "meta": {
          "profile": [
            "http://hl7.eu/fhir/laboratory/StructureDefinition/Observation-resultslab-eu-lab"
          ]
        },
        "performer": [
          {
            "display": "The Central European Lab"
          }
        ],
        "category": [
          {
            "coding": [
              {
                "system": "http://terminology.hl7.org/CodeSystem/observation-category",
                "code": "laboratory"
              }
            ]
          }
        ],
        "code": {
          "coding": [
            {
              "code": "49765-1",
              "system": "http://loinc.org",
              "display": "Calcium [Mass/volume] in Blood"
            }
          ],
          "text": "Calcium [Mass/volume] in Blood"
        },
        "valueQuantity": {
          "system": "http://unitsofmeasure.org",
          "value": 9.9,
          "unit": "mg/dL",
          "code": "mg/dL"
        },
        "referenceRange": [
          {
            "low": {
              "value": 8.5,
              "code": "mg/dL",
              "system": "http://unitsofmeasure.org"
            }
          },
          {
            "high": {
              "value": 10.5,
              "code": "mg/dL",
              "system": "http://unitsofmeasure.org"
            }
          }
        ],
        "text": {
          "status": "generated",
          "div": "<div xmlns=\"http://www.w3.org/1999/xhtml\"><table class=\"hl7__eu__lab__report\"><tr><th>Test</th><th>06-Nov-2020</th><th>Reference&#xA0;Range</th><th>Unit</th></tr><tr><td>Calcium [Mass/volume] in Blood</td><td>9.9</td><td>8.5 - 10.5</td><td></td><td>mg/dL</td></tr></table></div>"
        },
        "status": "final",
        "subject": {
          "reference": "urn:uuid:85a1527e-0546-4b9e-953d-dcd99b58b6dc",
          "display": "Victor Lagarde"
        },
        "effectiveDateTime": "2020-11-06T04:48:18Z",
        "specimen": {
          "reference": "urn:uuid:d43c4015-775b-459b-b3b2-8d97d7b9d0d3"
        }
      }
    },
    {
      "fullUrl": "urn:uuid:9ff5d8e5-60f1-4035-bda4-e065618b9b66",
      "resource": {
        "resourceType": "Observation",
        "id": "9ff5d8e5-60f1-4035-bda4-e065618b9b66",
        "meta": {
          "profile": [
            "http://hl7.eu/fhir/laboratory/StructureDefinition/Observation-resultslab-eu-lab"
          ]
        },
        "performer": [
          {
            "display": "The Central European Lab"
          }
        ],
        "category": [
          {
            "coding": [
              {
                "system": "http://terminology.hl7.org/CodeSystem/observation-category",
                "code": "laboratory"
              }
            ]
          }
        ],
        "code": {
          "coding": [
            {
              "code": "2947-0",
              "system": "http://loinc.org",
              "display": "Sodium [Moles/volume] in Blood"
            }
          ],
          "text": "Sodium [Moles/volume] in Blood"
        },
        "valueQuantity": {
          "system": "http://unitsofmeasure.org",
          "value": 136.1,
          "unit": "mmol/L",
          "code": "mmol/L"
        },
        "referenceRange": [
          {
            "low": {
              "value": 135,
              "code": "mmol/L",
              "system": "http://unitsofmeasure.org"
            }
          },
          {
            "high": {
              "value": 145,
              "code": "mmol/L",
              "system": "http://unitsofmeasure.org"
            }
          }
        ],
        "text": {
          "status": "generated",
          "div": "<div xmlns=\"http://www.w3.org/1999/xhtml\"><table class=\"hl7__eu__lab__report\"><tr><th>Test</th><th>06-Nov-2020</th><th>Reference&#xA0;Range</th><th>Unit</th></tr><tr><td>Sodium [Moles/volume] in Blood</td><td>136.1</td><td>135 - 145</td><td></td><td>mmol/L</td></tr></table></div>"
        },
        "status": "final",
        "subject": {
          "reference": "urn:uuid:85a1527e-0546-4b9e-953d-dcd99b58b6dc",
          "display": "Victor Lagarde"
        },
        "effectiveDateTime": "2020-11-06T04:48:18Z",
        "specimen": {
          "reference": "urn:uuid:d43c4015-775b-459b-b3b2-8d97d7b9d0d3"
        }
      }
    },
    {
      "fullUrl": "urn:uuid:05eb33f3-a11c-4f05-878d-a71192d5046a",
      "resource": {
        "resourceType": "Observation",
        "id": "05eb33f3-a11c-4f05-878d-a71192d5046a",
        "meta": {
          "profile": [
            "http://hl7.eu/fhir/laboratory/StructureDefinition/Observation-resultslab-eu-lab"
          ]
        },
        "performer": [
          {
            "display": "The Central European Lab"
          }
        ],
        "category": [
          {
            "coding": [
              {
                "system": "http://terminology.hl7.org/CodeSystem/observation-category",
                "code": "laboratory"
              }
            ]
          }
        ],
        "code": {
          "coding": [
            {
              "code": "6298-4",
              "system": "http://loinc.org",
              "display": "Potassium [Moles/volume] in Blood"
            }
          ],
          "text": "Potassium [Moles/volume] in Blood"
        },
        "valueQuantity": {
          "system": "http://unitsofmeasure.org",
          "value": 4.6,
          "unit": "mmol/L",
          "code": "mmol/L"
        },
        "referenceRange": [
          {
            "low": {
              "value": 3.5,
              "code": "mmol/L",
              "system": "http://unitsofmeasure.org"
            }
          },
          {
            "high": {
              "value": 5.1,
              "code": "mmol/L",
              "system": "http://unitsofmeasure.org"
            }
          }
        ],
        "text": {
          "status": "generated",
          "div": "<div xmlns=\"http://www.w3.org/1999/xhtml\"><table class=\"hl7__eu__lab__report\"><tr><th>Test</th><th>06-Nov-2020</th><th>Reference&#xA0;Range</th><th>Unit</th></tr><tr><td>Potassium [Moles/volume] in Blood</td><td>4.6</td><td>3.5 - 5.1</td><td></td><td>mmol/L</td></tr></table></div>"
        },
        "status": "final",
        "subject": {
          "reference": "urn:uuid:85a1527e-0546-4b9e-953d-dcd99b58b6dc",
          "display": "Victor Lagarde"
        },
        "effectiveDateTime": "2020-11-06T04:48:18Z",
        "specimen": {
          "reference": "urn:uuid:d43c4015-775b-459b-b3b2-8d97d7b9d0d3"
        }
      }
    },
    {
      "fullUrl": "urn:uuid:fe7e1c28-f599-4391-8d80-c2b2e2c1a9d1",
      "resource": {
        "resourceType": "Observation",
        "id": "fe7e1c28-f599-4391-8d80-c2b2e2c1a9d1",
        "meta": {
          "profile": [
            "http://hl7.eu/fhir/laboratory/StructureDefinition/Observation-resultslab-eu-lab"
          ]
        },
        "performer": [
          {
            "display": "The Central European Lab"
          }
        ],
        "category": [
          {
            "coding": [
              {
                "system": "http://terminology.hl7.org/CodeSystem/observation-category",
                "code": "laboratory"
              }
            ]
          }
        ],
        "code": {
          "coding": [
            {
              "code": "2069-3",
              "system": "http://loinc.org",
              "display": "Chloride [Moles/volume] in Blood"
            }
          ],
          "text": "Chloride [Moles/volume] in Blood"
        },
        "valueQuantity": {
          "system": "http://unitsofmeasure.org",
          "value": 101.4,
          "unit": "mmol/L",
          "code": "mmol/L"
        },
        "referenceRange": [
          {
            "low": {
              "value": 98,
              "code": "mmol/L",
              "system": "http://unitsofmeasure.org"
            }
          },
          {
            "high": {
              "value": 108,
              "code": "mmol/L",
              "system": "http://unitsofmeasure.org"
            }
          }
        ],
        "text": {
          "status": "generated",
          "div": "<div xmlns=\"http://www.w3.org/1999/xhtml\"><table class=\"hl7__eu__lab__report\"><tr><th>Test</th><th>06-Nov-2020</th><th>Reference&#xA0;Range</th><th>Unit</th></tr><tr><td>Chloride [Moles/volume] in Blood</td><td>101.4</td><td>98 - 108</td><td></td><td>mmol/L</td></tr></table></div>"
        },
        "status": "final",
        "subject": {
          "reference": "urn:uuid:85a1527e-0546-4b9e-953d-dcd99b58b6dc",
          "display": "Victor Lagarde"
        },
        "effectiveDateTime": "2020-11-06T04:48:18Z",
        "specimen": {
          "reference": "urn:uuid:d43c4015-775b-459b-b3b2-8d97d7b9d0d3"
        }
      }
    },
    {
      "fullUrl": "urn:uuid:1fa90e53-c7d2-4a55-867b-0f55bb76608c",
      "resource": {
        "resourceType": "Observation",
        "id": "1fa90e53-c7d2-4a55-867b-0f55bb76608c",
        "meta": {
          "profile": [
            "http://hl7.eu/fhir/laboratory/StructureDefinition/Observation-resultslab-eu-lab"
          ]
        },
        "performer": [
          {
            "display": "The Central European Lab"
          }
        ],
        "category": [
          {
            "coding": [
              {
                "system": "http://terminology.hl7.org/CodeSystem/observation-category",
                "code": "laboratory"
              }
            ]
          }
        ],
        "code": {
          "coding": [
            {
              "code": "20565-8",
              "system": "http://loinc.org",
              "display": "Carbon dioxide, total [Moles/volume] in Blood"
            }
          ],
          "text": "Carbon dioxide, total [Moles/volume] in Blood"
        },
        "valueQuantity": {
          "system": "http://unitsofmeasure.org",
          "value": 29,
          "unit": "mmol/L",
          "code": "mmol/L"
        },
        "referenceRange": [
          {
            "low": {
              "value": 22,
              "code": "mmol/L",
              "system": "http://unitsofmeasure.org"
            }
          },
          {
            "high": {
              "value": 29,
              "code": "mmol/L",
              "system": "http://unitsofmeasure.org"
            }
          }
        ],
        "text": {
          "status": "generated",
          "div": "<div xmlns=\"http://www.w3.org/1999/xhtml\"><table class=\"hl7__eu__lab__report\"><tr><th>Test</th><th>06-Nov-2020</th><th>Reference&#xA0;Range</th><th>Unit</th></tr><tr><td>Carbon dioxide, total [Moles/volume] in Blood</td><td>29.0</td><td>22 - 29</td><td></td><td>mmol/L</td></tr></table></div>"
        },
        "status": "final",
        "subject": {
          "reference": "urn:uuid:85a1527e-0546-4b9e-953d-dcd99b58b6dc",
          "display": "Victor Lagarde"
        },
        "effectiveDateTime": "2020-11-06T04:48:18Z",
        "specimen": {
          "reference": "urn:uuid:d43c4015-775b-459b-b3b2-8d97d7b9d0d3"
        }
      }
    },
    {
      "fullUrl": "urn:uuid:144d4a21-8f7f-4584-8e36-5488dcb041fb",
      "resource": {
        "resourceType": "Device",
        "id": "144d4a21-8f7f-4584-8e36-5488dcb041fb",
        "deviceName": [
          {
            "name": "SYNDERAI Synthetic Generator",
            "type": "manufacturer-name"
          }
        ],
        "version": [
          {
            "value": "5.0"
          }
        ],
        "text": {
          "status": "generated",
          "div": "<div xmlns=\"http://www.w3.org/1999/xhtml\">SYNDERAI Synthetic Generator v5.0</div>"
        },
        "status": "active\"",
        "distinctIdentifier": "synderai-generator-50",
        "manufacturer": "SYNDERAI Project"
      }
    },
    {
      "fullUrl": "urn:uuid:ab56c1f5-645b-4cd1-be3b-1dc4659aa642",
      "resource": {
        "resourceType": "Provenance",
        "id": "ab56c1f5-645b-4cd1-be3b-1dc4659aa642",
        "target": [
          {
            "reference": "Patient/85a1527e-0546-4b9e-953d-dcd99b58b6dc"
          },
          {
            "reference": "Bundle/cfa50a0a-2707-4d6a-a374-78f741e070ee"
          },
          {
            "reference": "Composition/9886d4bb-ca02-4ae9-ad5a-e8f6dc1b08de"
          },
          {
            "reference": "PractitionerRole/1288359f-6a8a-4e25-88c6-dcc0650d5135"
          },
          {
            "reference": "Practitioner/ee335d06-a5f3-409d-8927-e7574191d6dd"
          },
          {
            "reference": "PractitionerRole/dea20b25-4dbe-4b3c-95f8-e4c96b1ddc70"
          },
          {
            "reference": "Organization/ce9f573c-8596-460c-a4ba-5ef30494125b"
          }
        ],
        "activity": {
          "text": "Synthetic Example Data Generation"
        },
        "policy": [
          "https://synderai.net/synderai-synthetic-data-policy"
        ],
        "agent": [
          {
            "type": {
              "text": "author"
            },
            "who": {
              "reference": "Device/144d4a21-8f7f-4584-8e36-5488dcb041fb"
            }
          }
        ],
        "reason": [
          {
            "text": "Interoperability Testing and Training (non-clinical use)"
          }
        ],
        "text": {
          "status": "generated",
          "div": "<div xmlns=\"http://www.w3.org/1999/xhtml\">Provenance for SYNDERAI Synthetic Example Data Resource</div>"
        },
        "recorded": "2020-11-06T05:48:18Z"
      }
    },
    {
      "fullUrl": "urn:uuid:1288359f-6a8a-4e25-88c6-dcc0650d5135",
      "resource": {
        "resourceType": "PractitionerRole",
        "id": "1288359f-6a8a-4e25-88c6-dcc0650d5135",
        "meta": {
          "profile": [
            "http://hl7.eu/fhir/base/StructureDefinition/practitionerRole-eu"
          ]
        },
        "text": {
          "status": "generated",
          "div": "<div xmlns=\"http://www.w3.org/1999/xhtml\">Laboratory Role Id: 1288359f-6a8a-4e25-88c6-dcc0650d5135</div>"
        },
        "practitioner": {
          "reference": "urn:uuid:ee335d06-a5f3-409d-8927-e7574191d6dd"
        }
      }
    },
    {
      "fullUrl": "urn:uuid:ee335d06-a5f3-409d-8927-e7574191d6dd",
      "resource": {
        "resourceType": "Practitioner",
        "id": "ee335d06-a5f3-409d-8927-e7574191d6dd",
        "meta": {
          "profile": [
            "http://hl7.eu/fhir/base/StructureDefinition/practitioner-eu"
          ]
        },
        "identifier": [
          {
            "assigner": {
              "display": "HL7 Europe"
            },
            "system": "urn:oid:2.16.840.1.113883.2.51.999",
            "value": "cc72a9f1-96e3-4ceb-bd32-a220c999aa0b"
          }
        ],
        "name": [
          {
            "prefix": [
              "dr"
            ],
            "given": [
              "Ex"
            ],
            "family": "Ample"
          }
        ],
        "address": [
          {
            "line": [
              "Laboratoire Central Europenne",
              "Boulevard du Jardin Botanique 32"
            ],
            "postalCode": "1000",
            "city": "Brussels",
            "country": "Belgium"
          }
        ],
        "text": {
          "status": "generated",
          "div": "<div xmlns=\"http://www.w3.org/1999/xhtml\">Laboratory: Laboratoire Central Europenne, 1000 Brussels, Belgium</div>"
        }
      }
    }
  ],
  "type": "document",
  "timestamp": "2020-11-06T05:48:18Z"
}
