{
  "resourceType": "Bundle",
  "id": "c5a61943-22fe-4464-8cad-357ef11831be",
  "meta": {
    "profile": [
      "http://hl7.eu/fhir/laboratory/StructureDefinition/Bundle-eu-lab"
    ]
  },
  "identifier": {
    "assigner": {
      "display": "HL7 Europe"
    },
    "system": "urn:oid:2.16.840.1.113883.2.51.999",
    "value": "fb6c5e63-6ce6-4f33-86ed-43a556cc0fac"
  },
  "entry": [
    {
      "fullUrl": "urn:uuid:7396c253-5120-48e7-9dac-0bed496ef289",
      "resource": {
        "resourceType": "Composition",
        "id": "7396c253-5120-48e7-9dac-0bed496ef289",
        "meta": {
          "profile": [
            "http://hl7.eu/fhir/laboratory/StructureDefinition/Composition-eu-lab"
          ]
        },
        "identifier": {
          "assigner": {
            "display": "HL7 Europe"
          },
          "system": "urn:oid:2.16.840.1.113883.2.51.999",
          "value": "4504afc6-d6ee-4a03-9e1a-b7c923219051"
        },
        "author": [
          {
            "reference": "urn:uuid:7f810dff-2491-4c9c-9792-03ef2dd1ab24"
          }
        ],
        "category": [
          {
            "coding": [
              {
                "code": "26436-6",
                "system": "http://loinc.org",
                "display": "Laboratory studies (set)"
              }
            ]
          }
        ],
        "type": {
          "coding": [
            {
              "code": "11502-2",
              "system": "http://loinc.org",
              "display": "Laboratory report"
            }
          ],
          "text": "Laboratory Report"
        },
        "section": [
          {
            "code": {
              "coding": [
                {
                  "code": "26436-6",
                  "system": "http://loinc.org",
                  "display": "Laboratory studies (set)"
                }
              ],
              "text": "Laboratory studies"
            },
            "section": [
              {
                "code": {
                  "coding": [
                    {
                      "code": "$18719-5",
                      "system": "http://loinc.org",
                      "display": "Chemistry studies (set)"
                    }
                  ],
                  "text": "Chemistry"
                },
                "entry": [
                  {
                    "reference": "urn:uuid:2bc97dd3-2896-4fcf-bc6f-2e4d8a722787"
                  },
                  {
                    "reference": "urn:uuid:05cfc8e1-afe9-461e-90e4-3d35bf0d27dd"
                  },
                  {
                    "reference": "urn:uuid:f71411d6-57d4-4aa8-824d-b767904d1fc2"
                  },
                  {
                    "reference": "urn:uuid:3e1e1828-247f-4cd8-98ff-c094cf906554"
                  },
                  {
                    "reference": "urn:uuid:06fd6942-ea91-45a2-8492-eb6305671550"
                  },
                  {
                    "reference": "urn:uuid:edfd4760-5a3b-4ad5-ab6f-4aa357f2cfe7"
                  },
                  {
                    "reference": "urn:uuid:63c290ad-7df2-43d8-b832-d9c9bc35ca3b"
                  },
                  {
                    "reference": "urn:uuid:c81ba41f-d78b-4e0c-951e-8b7567be7ccc"
                  },
                  {
                    "reference": "urn:uuid:3529297f-879d-46cf-880e-d22b8d95b33f"
                  }
                ],
                "text": {
                  "status": "generated",
                  "div": "<div xmlns=\"http://www.w3.org/1999/xhtml\"><h3>Chemistry</h3><table class=\"hl7__eu__lab__report\"><thead><tr><th>Test</th><th>25-JUL-2020</th><th>Reference&#xA0;Range</th><th>Unit</th></tr></thead><tbody><tr><td>Hemoglobin A1c/Hemoglobin.total in Blood</td><td>6.1</td><td>4.3 - 6.4</td><td>%</td></tr><tr><td>Glucose [Mass/volume] in Blood</td><td>78.5</td><td>70 - 140</td><td>mg/dL</td></tr><tr><td>Urea nitrogen [Mass/volume] in Blood</td><td>7.8</td><td>7 - 20</td><td>mg/dL</td></tr><tr><td>Creatinine [Mass/volume] in Blood</td><td><strong>1.4 H</strong></td><td>0.6 - 1.3</td><td>mg/dL</td></tr><tr><td>Calcium [Mass/volume] in Blood</td><td>9.5</td><td>8.5 - 10.5</td><td>mg/dL</td></tr><tr><td>Sodium [Moles/volume] in Blood</td><td>137.0</td><td>135 - 145</td><td>mmol/L</td></tr><tr><td>Potassium [Moles/volume] in Blood</td><td>5.0</td><td>3.5 - 5.3</td><td>mmol/L</td></tr><tr><td>Chloride [Moles/volume] in Blood</td><td><strong>110.2 H</strong></td><td>98 - 110</td><td>mmol/L</td></tr><tr><td>Carbon dioxide, total [Moles/volume] in Blood</td><td>22.4</td><td>22 - 29</td><td>mmol/L</td></tr></tbody></table></div>"
                },
                "title": "Chemistry"
              }
            ],
            "title": "Laboratory Report"
          },
          {
            "text": {
              "status": "generated",
              "div": "<div xmlns=\"http://www.w3.org/1999/xhtml\"><h3>Annotation</h3><table class=\"hl7__eu__lab__report\"><tr><th>Conclusion and Recommendations based on this report and previous findings known to us</th></tr><tr><td>All measured values are within or close to normal limits, except for mildly elevated creatinine and chloride, which may suggest early renal impairment or dehydration. Glucose control (HbA1c and fasting glucose) is adequate. Recommend clinical correlation for renal function and hydration status, and consider follow-up of kidney parameters.</td></tr></table></div>"
            },
            "code": {
              "coding": [
                {
                  "system": "http://loinc.org",
                  "code": "48767-8",
                  "display": "Annotation comment"
                }
              ]
            },
            "title": "Annotation comment"
          }
        ],
        "status": "final",
        "subject": {
          "reference": "urn:uuid:90479e25-3437-4117-9a82-f55ebaf287b0",
          "display": "Andrzej Frydrychowicz"
        },
        "date": "2020-07-25T23:33:04Z",
        "title": "Laboratory Report",
        "confidentiality": "N"
      }
    },
    {
      "fullUrl": "urn:uuid:58e1f254-6cbe-44e3-974f-61531859e94f",
      "resource": {
        "resourceType": "DiagnosticReport",
        "id": "58e1f254-6cbe-44e3-974f-61531859e94f",
        "meta": {
          "profile": [
            "http://hl7.eu/fhir/laboratory/StructureDefinition/DiagnosticReport-eu-lab"
          ]
        },
        "identifier": [
          {
            "assigner": {
              "display": "HL7 Europe"
            },
            "system": "urn:oid:2.16.840.1.113883.2.51.999",
            "value": "07cb5bca-516b-45d5-9689-b8dbd5dabb6e"
          }
        ],
        "extension": [
          {
            "url": "http://hl7.org/fhir/5.0/StructureDefinition/extension-DiagnosticReport.composition",
            "valueReference": {
              "reference": "urn:uuid:4504afc6-d6ee-4a03-9e1a-b7c923219051"
            }
          }
        ],
        "category": [
          {
            "coding": [
              {
                "code": "26436-6",
                "system": "http://loinc.org",
                "display": "Laboratory studies (set)"
              }
            ]
          }
        ],
        "specimen": [
          {
            "reference": "urn:uuid:e09cb273-02a0-4b72-bf1b-6c91d5859d1f"
          }
        ],
        "result": [
          {
            "reference": "urn:uuid:2bc97dd3-2896-4fcf-bc6f-2e4d8a722787"
          },
          {
            "reference": "urn:uuid:05cfc8e1-afe9-461e-90e4-3d35bf0d27dd"
          },
          {
            "reference": "urn:uuid:f71411d6-57d4-4aa8-824d-b767904d1fc2"
          },
          {
            "reference": "urn:uuid:3e1e1828-247f-4cd8-98ff-c094cf906554"
          },
          {
            "reference": "urn:uuid:06fd6942-ea91-45a2-8492-eb6305671550"
          },
          {
            "reference": "urn:uuid:edfd4760-5a3b-4ad5-ab6f-4aa357f2cfe7"
          },
          {
            "reference": "urn:uuid:63c290ad-7df2-43d8-b832-d9c9bc35ca3b"
          },
          {
            "reference": "urn:uuid:c81ba41f-d78b-4e0c-951e-8b7567be7ccc"
          },
          {
            "reference": "urn:uuid:3529297f-879d-46cf-880e-d22b8d95b33f"
          }
        ],
        "status": "registered",
        "code": {
          "coding": [
            {
              "code": "11502-2",
              "system": "http://loinc.org",
              "display": "Laboratory report"
            }
          ]
        },
        "subject": {
          "reference": "urn:uuid:90479e25-3437-4117-9a82-f55ebaf287b0",
          "display": "Andrzej Frydrychowicz"
        }
      }
    },
    {
      "fullUrl": "urn:uuid:90479e25-3437-4117-9a82-f55ebaf287b0",
      "resource": {
        "resourceType": "Patient",
        "id": "90479e25-3437-4117-9a82-f55ebaf287b0",
        "meta": {
          "security": [
            {
              "system": "http://terminology.hl7.org/CodeSystem/v3-ActReason",
              "code": "HTEST"
            },
            {
              "system": "http://terminology.hl7.org/CodeSystem/v3-ActReason",
              "code": "TRAIN"
            }
          ],
          "tag": [
            {
              "system": "https://synderai.net/fhir/CodeSystem/tags",
              "code": "synthetic",
              "display": "SYNDERAI Synthetic data"
            }
          ],
          "profile": [
            "http://hl7.eu/fhir/base/StructureDefinition/patient-eu-core"
          ]
        },
        "identifier": [
          {
            "type": {
              "coding": [
                {
                  "code": "PT",
                  "system": "http://terminology.hl7.org/CodeSystem/v2-0203"
                }
              ]
            },
            "system": "http://ec.europa.eu/identifier/eci",
            "value": "7036-931598-4"
          },
          {
            "type": {
              "coding": [
                {
                  "code": "MR",
                  "system": "http://terminology.hl7.org/CodeSystem/v2-0203"
                }
              ]
            },
            "system": "http://local.setting.eu/identifier",
            "value": "c84bd820-cdcf-9bc1-d9ba-aa083a5eb400"
          }
        ],
        "name": [
          {
            "family": "Frydrychowicz"
          },
          {
            "given": [
              "Andrzej"
            ]
          },
          {
            "text": "Andrzej Frydrychowicz"
          }
        ],
        "address": [
          {
            "line": [
              "aleja Tulipanowa 94"
            ],
            "use": "home",
            "type": "physical",
            "postalCode": "21-040",
            "city": "Świdnik",
            "country": "Poland"
          }
        ],
        "telecom": [
          {
            "system": "phone",
            "value": "516 092 560"
          }
        ],
        "extension": [
          {
            "url": "http://hl7.org/fhir/StructureDefinition/patient-nationality",
            "valueCodeableConcept": {
              "coding": [
                {
                  "code": "PL",
                  "system": "http://hl7.org/fhir/ValueSet/country"
                }
              ]
            }
          }
        ],
        "text": {
          "status": "generated",
          "div": "<div xmlns=\"http://www.w3.org/1999/xhtml\"><table class=\"hl7__ips\"><tr><td>Andrzej Frydrychowicz</td><td>male</td><td>12-Apr-1974</td></tr></table></div>"
        },
        "gender": "male",
        "birthDate": "1974-04-12"
      }
    },
    {
      "fullUrl": "urn:uuid:f78a184f-eb22-40b5-96e7-b017871f75fa",
      "resource": {
        "resourceType": "ServiceRequest",
        "id": "f78a184f-eb22-40b5-96e7-b017871f75fa",
        "meta": {
          "profile": [
            "http://hl7.eu/fhir/laboratory/StructureDefinition/ServiceRequest-eu-lab"
          ]
        },
        "identifier": [
          {
            "system": "http://example.org",
            "value": "fd0a01c4-c6f1-4bc9-9b02-187ff740c74a"
          }
        ],
        "specimen": [
          {
            "reference": "urn:uuid:e09cb273-02a0-4b72-bf1b-6c91d5859d1f"
          }
        ],
        "reasonCode": [
          {
            "coding": [
              {
                "code": "414545008",
                "system": "http://snomed.info/sct",
                "display": "Ischemic heart disease"
              }
            ]
          },
          {
            "coding": [
              {
                "code": "239873007",
                "system": "http://snomed.info/sct",
                "display": "Osteoarthritis of knee"
              }
            ]
          },
          {
            "coding": [
              {
                "code": "15777000",
                "system": "http://snomed.info/sct",
                "display": "Prediabetes"
              }
            ]
          },
          {
            "coding": [
              {
                "code": "271737000",
                "system": "http://snomed.info/sct",
                "display": "Anemia"
              }
            ]
          }
        ],
        "status": "active",
        "intent": "order",
        "code": {
          "coding": [
            {
              "code": "108252007",
              "system": "http://snomed.info/sct",
              "display": "Laboratory procedure"
            }
          ]
        },
        "subject": {
          "reference": "urn:uuid:90479e25-3437-4117-9a82-f55ebaf287b0",
          "display": "Andrzej Frydrychowicz"
        },
        "requester": {
          "reference": "urn:uuid:44a51b66-da32-4838-93f3-c15a20db06ca"
        }
      }
    },
    {
      "fullUrl": "urn:uuid:44a51b66-da32-4838-93f3-c15a20db06ca",
      "resource": {
        "resourceType": "PractitionerRole",
        "id": "44a51b66-da32-4838-93f3-c15a20db06ca",
        "meta": {
          "profile": [
            "http://hl7.eu/fhir/base/StructureDefinition/practitionerRole-eu"
          ]
        },
        "text": {
          "status": "generated",
          "div": "<div xmlns=\"http://www.w3.org/1999/xhtml\">Provider Role Id: 44a51b66-da32-4838-93f3-c15a20db06ca</div>"
        },
        "organization": {
          "reference": "urn:uuid:6956e2f7-706f-4a2a-aa42-312bcad1fab8"
        }
      }
    },
    {
      "fullUrl": "urn:uuid:6956e2f7-706f-4a2a-aa42-312bcad1fab8",
      "resource": {
        "resourceType": "Organization",
        "id": "6956e2f7-706f-4a2a-aa42-312bcad1fab8",
        "meta": {
          "profile": [
            "http://hl7.eu/fhir/base/StructureDefinition/organization-eu"
          ]
        },
        "identifier": [
          {
            "assigner": {
              "display": "HL7 Europe"
            },
            "system": "urn:oid:2.16.840.1.113883.2.51.999",
            "value": "d32ff8d6-7369-4ad5-b2c5-eef8c1b285d1"
          }
        ],
        "address": [
          {
            "line": [
              "Aleja Lotników Polskich 82"
            ],
            "city": "Świdnik",
            "postalCode": "21-040",
            "country": "Poland"
          }
        ],
        "text": {
          "status": "generated",
          "div": "<div xmlns=\"http://www.w3.org/1999/xhtml\">Provider Organization: Lubelskie Centrum Diagnostyczne</div>"
        },
        "name": "Lubelskie Centrum Diagnostyczne"
      }
    },
    {
      "fullUrl": "urn:uuid:e09cb273-02a0-4b72-bf1b-6c91d5859d1f",
      "resource": {
        "resourceType": "Specimen",
        "id": "e09cb273-02a0-4b72-bf1b-6c91d5859d1f",
        "meta": {
          "profile": [
            "http://hl7.eu/fhir/laboratory/StructureDefinition/Specimen-eu-lab"
          ]
        },
        "collection": {
          "collectedDateTime": "2020-07-25"
        },
        "text": {
          "status": "generated",
          "div": "<div xmlns=\"http://www.w3.org/1999/xhtml\"><table class=\"hl7__eu__lab__report\"><tr><th>Specimen</th><th>Collection Date</th></tr><tr><td>Whole blood specimen (specimen)</td><td><span class=\"nb\">25-Jul-2020</span></td></tr></table></div>"
        },
        "type": {
          "coding": [
            {
              "code": "258580003",
              "system": "http://snomed.info/sct",
              "display": "Whole blood specimen (specimen)"
            }
          ]
        }
      }
    },
    {
      "fullUrl": "urn:uuid:2bc97dd3-2896-4fcf-bc6f-2e4d8a722787",
      "resource": {
        "resourceType": "Observation",
        "id": "2bc97dd3-2896-4fcf-bc6f-2e4d8a722787",
        "meta": {
          "profile": [
            "http://hl7.eu/fhir/laboratory/StructureDefinition/Observation-resultslab-eu-lab"
          ]
        },
        "performer": [
          {
            "display": "The Central European Lab"
          }
        ],
        "category": [
          {
            "coding": [
              {
                "system": "http://terminology.hl7.org/CodeSystem/observation-category",
                "code": "laboratory"
              }
            ]
          }
        ],
        "code": {
          "coding": [
            {
              "code": "4548-4",
              "system": "http://loinc.org",
              "display": "Hemoglobin A1c/Hemoglobin.total in Blood"
            }
          ],
          "text": "Hemoglobin A1c/Hemoglobin.total in Blood"
        },
        "valueQuantity": {
          "system": "http://unitsofmeasure.org",
          "value": 6.1,
          "unit": "%",
          "code": "%"
        },
        "referenceRange": [
          {
            "low": {
              "value": 4.3,
              "code": "%",
              "system": "http://unitsofmeasure.org"
            }
          },
          {
            "high": {
              "value": 6.4,
              "code": "%",
              "system": "http://unitsofmeasure.org"
            }
          }
        ],
        "text": {
          "status": "generated",
          "div": "<div xmlns=\"http://www.w3.org/1999/xhtml\"><table class=\"hl7__eu__lab__report\"><tr><th>Test</th><th>25-Jul-2020</th><th>Reference&#xA0;Range</th><th>Unit</th></tr><tr><td>Hemoglobin A1c/Hemoglobin.total in Blood</td><td>6.1</td><td>4.3 - 6.4</td><td></td><td>%</td></tr></table></div>"
        },
        "status": "final",
        "subject": {
          "reference": "urn:uuid:90479e25-3437-4117-9a82-f55ebaf287b0",
          "display": "Andrzej Frydrychowicz"
        },
        "effectiveDateTime": "2020-07-25T21:33:04Z",
        "specimen": {
          "reference": "urn:uuid:e09cb273-02a0-4b72-bf1b-6c91d5859d1f"
        }
      }
    },
    {
      "fullUrl": "urn:uuid:05cfc8e1-afe9-461e-90e4-3d35bf0d27dd",
      "resource": {
        "resourceType": "Observation",
        "id": "05cfc8e1-afe9-461e-90e4-3d35bf0d27dd",
        "meta": {
          "profile": [
            "http://hl7.eu/fhir/laboratory/StructureDefinition/Observation-resultslab-eu-lab"
          ]
        },
        "performer": [
          {
            "display": "The Central European Lab"
          }
        ],
        "category": [
          {
            "coding": [
              {
                "system": "http://terminology.hl7.org/CodeSystem/observation-category",
                "code": "laboratory"
              }
            ]
          }
        ],
        "code": {
          "coding": [
            {
              "code": "2339-0",
              "system": "http://loinc.org",
              "display": "Glucose [Mass/volume] in Blood"
            }
          ],
          "text": "Glucose [Mass/volume] in Blood"
        },
        "valueQuantity": {
          "system": "http://unitsofmeasure.org",
          "value": 78.5,
          "unit": "mg/dL",
          "code": "mg/dL"
        },
        "referenceRange": [
          {
            "low": {
              "value": 70,
              "code": "mg/dL",
              "system": "http://unitsofmeasure.org"
            }
          },
          {
            "high": {
              "value": 140,
              "code": "mg/dL",
              "system": "http://unitsofmeasure.org"
            }
          }
        ],
        "text": {
          "status": "generated",
          "div": "<div xmlns=\"http://www.w3.org/1999/xhtml\"><table class=\"hl7__eu__lab__report\"><tr><th>Test</th><th>25-Jul-2020</th><th>Reference&#xA0;Range</th><th>Unit</th></tr><tr><td>Glucose [Mass/volume] in Blood</td><td>78.5</td><td>70 - 140</td><td></td><td>mg/dL</td></tr></table></div>"
        },
        "status": "final",
        "subject": {
          "reference": "urn:uuid:90479e25-3437-4117-9a82-f55ebaf287b0",
          "display": "Andrzej Frydrychowicz"
        },
        "effectiveDateTime": "2020-07-25T21:33:04Z",
        "specimen": {
          "reference": "urn:uuid:e09cb273-02a0-4b72-bf1b-6c91d5859d1f"
        }
      }
    },
    {
      "fullUrl": "urn:uuid:f71411d6-57d4-4aa8-824d-b767904d1fc2",
      "resource": {
        "resourceType": "Observation",
        "id": "f71411d6-57d4-4aa8-824d-b767904d1fc2",
        "meta": {
          "profile": [
            "http://hl7.eu/fhir/laboratory/StructureDefinition/Observation-resultslab-eu-lab"
          ]
        },
        "performer": [
          {
            "display": "The Central European Lab"
          }
        ],
        "category": [
          {
            "coding": [
              {
                "system": "http://terminology.hl7.org/CodeSystem/observation-category",
                "code": "laboratory"
              }
            ]
          }
        ],
        "code": {
          "coding": [
            {
              "code": "6299-2",
              "system": "http://loinc.org",
              "display": "Urea nitrogen [Mass/volume] in Blood"
            }
          ],
          "text": "Urea nitrogen [Mass/volume] in Blood"
        },
        "valueQuantity": {
          "system": "http://unitsofmeasure.org",
          "value": 7.8,
          "unit": "mg/dL",
          "code": "mg/dL"
        },
        "referenceRange": [
          {
            "low": {
              "value": 7,
              "code": "mg/dL",
              "system": "http://unitsofmeasure.org"
            }
          },
          {
            "high": {
              "value": 20,
              "code": "mg/dL",
              "system": "http://unitsofmeasure.org"
            }
          }
        ],
        "text": {
          "status": "generated",
          "div": "<div xmlns=\"http://www.w3.org/1999/xhtml\"><table class=\"hl7__eu__lab__report\"><tr><th>Test</th><th>25-Jul-2020</th><th>Reference&#xA0;Range</th><th>Unit</th></tr><tr><td>Urea nitrogen [Mass/volume] in Blood</td><td>7.8</td><td>7 - 20</td><td></td><td>mg/dL</td></tr></table></div>"
        },
        "status": "final",
        "subject": {
          "reference": "urn:uuid:90479e25-3437-4117-9a82-f55ebaf287b0",
          "display": "Andrzej Frydrychowicz"
        },
        "effectiveDateTime": "2020-07-25T21:33:04Z",
        "specimen": {
          "reference": "urn:uuid:e09cb273-02a0-4b72-bf1b-6c91d5859d1f"
        }
      }
    },
    {
      "fullUrl": "urn:uuid:3e1e1828-247f-4cd8-98ff-c094cf906554",
      "resource": {
        "resourceType": "Observation",
        "id": "3e1e1828-247f-4cd8-98ff-c094cf906554",
        "meta": {
          "profile": [
            "http://hl7.eu/fhir/laboratory/StructureDefinition/Observation-resultslab-eu-lab"
          ]
        },
        "performer": [
          {
            "display": "The Central European Lab"
          }
        ],
        "category": [
          {
            "coding": [
              {
                "system": "http://terminology.hl7.org/CodeSystem/observation-category",
                "code": "laboratory"
              }
            ]
          }
        ],
        "code": {
          "coding": [
            {
              "code": "38483-4",
              "system": "http://loinc.org",
              "display": "Creatinine [Mass/volume] in Blood"
            }
          ],
          "text": "Creatinine [Mass/volume] in Blood"
        },
        "valueQuantity": {
          "system": "http://unitsofmeasure.org",
          "value": 1.4,
          "unit": "mg/dL",
          "code": "mg/dL"
        },
        "referenceRange": [
          {
            "low": {
              "value": 0.6,
              "code": "mg/dL",
              "system": "http://unitsofmeasure.org"
            }
          },
          {
            "high": {
              "value": 1.3,
              "code": "mg/dL",
              "system": "http://unitsofmeasure.org"
            }
          }
        ],
        "interpretation": [
          {
            "coding": [
              {
                "code": "H",
                "system": "http://terminology.hl7.org/CodeSystem/v3-ObservationInterpretation",
                "display": "High"
              }
            ]
          }
        ],
        "text": {
          "status": "generated",
          "div": "<div xmlns=\"http://www.w3.org/1999/xhtml\"><table class=\"hl7__eu__lab__report\"><tr><th>Test</th><th>25-Jul-2020</th><th>Reference&#xA0;Range</th><th>Unit</th></tr><tr><td>Creatinine [Mass/volume] in Blood</td><td>1.4</td><td>0.6 - 1.3</td><td>H</td><td>mg/dL</td></tr></table></div>"
        },
        "status": "final",
        "subject": {
          "reference": "urn:uuid:90479e25-3437-4117-9a82-f55ebaf287b0",
          "display": "Andrzej Frydrychowicz"
        },
        "effectiveDateTime": "2020-07-25T21:33:04Z",
        "specimen": {
          "reference": "urn:uuid:e09cb273-02a0-4b72-bf1b-6c91d5859d1f"
        }
      }
    },
    {
      "fullUrl": "urn:uuid:06fd6942-ea91-45a2-8492-eb6305671550",
      "resource": {
        "resourceType": "Observation",
        "id": "06fd6942-ea91-45a2-8492-eb6305671550",
        "meta": {
          "profile": [
            "http://hl7.eu/fhir/laboratory/StructureDefinition/Observation-resultslab-eu-lab"
          ]
        },
        "performer": [
          {
            "display": "The Central European Lab"
          }
        ],
        "category": [
          {
            "coding": [
              {
                "system": "http://terminology.hl7.org/CodeSystem/observation-category",
                "code": "laboratory"
              }
            ]
          }
        ],
        "code": {
          "coding": [
            {
              "code": "49765-1",
              "system": "http://loinc.org",
              "display": "Calcium [Mass/volume] in Blood"
            }
          ],
          "text": "Calcium [Mass/volume] in Blood"
        },
        "valueQuantity": {
          "system": "http://unitsofmeasure.org",
          "value": 9.5,
          "unit": "mg/dL",
          "code": "mg/dL"
        },
        "referenceRange": [
          {
            "low": {
              "value": 8.5,
              "code": "mg/dL",
              "system": "http://unitsofmeasure.org"
            }
          },
          {
            "high": {
              "value": 10.5,
              "code": "mg/dL",
              "system": "http://unitsofmeasure.org"
            }
          }
        ],
        "text": {
          "status": "generated",
          "div": "<div xmlns=\"http://www.w3.org/1999/xhtml\"><table class=\"hl7__eu__lab__report\"><tr><th>Test</th><th>25-Jul-2020</th><th>Reference&#xA0;Range</th><th>Unit</th></tr><tr><td>Calcium [Mass/volume] in Blood</td><td>9.5</td><td>8.5 - 10.5</td><td></td><td>mg/dL</td></tr></table></div>"
        },
        "status": "final",
        "subject": {
          "reference": "urn:uuid:90479e25-3437-4117-9a82-f55ebaf287b0",
          "display": "Andrzej Frydrychowicz"
        },
        "effectiveDateTime": "2020-07-25T21:33:04Z",
        "specimen": {
          "reference": "urn:uuid:e09cb273-02a0-4b72-bf1b-6c91d5859d1f"
        }
      }
    },
    {
      "fullUrl": "urn:uuid:edfd4760-5a3b-4ad5-ab6f-4aa357f2cfe7",
      "resource": {
        "resourceType": "Observation",
        "id": "edfd4760-5a3b-4ad5-ab6f-4aa357f2cfe7",
        "meta": {
          "profile": [
            "http://hl7.eu/fhir/laboratory/StructureDefinition/Observation-resultslab-eu-lab"
          ]
        },
        "performer": [
          {
            "display": "The Central European Lab"
          }
        ],
        "category": [
          {
            "coding": [
              {
                "system": "http://terminology.hl7.org/CodeSystem/observation-category",
                "code": "laboratory"
              }
            ]
          }
        ],
        "code": {
          "coding": [
            {
              "code": "2947-0",
              "system": "http://loinc.org",
              "display": "Sodium [Moles/volume] in Blood"
            }
          ],
          "text": "Sodium [Moles/volume] in Blood"
        },
        "valueQuantity": {
          "system": "http://unitsofmeasure.org",
          "value": 137,
          "unit": "mmol/L",
          "code": "mmol/L"
        },
        "referenceRange": [
          {
            "low": {
              "value": 135,
              "code": "mmol/L",
              "system": "http://unitsofmeasure.org"
            }
          },
          {
            "high": {
              "value": 145,
              "code": "mmol/L",
              "system": "http://unitsofmeasure.org"
            }
          }
        ],
        "text": {
          "status": "generated",
          "div": "<div xmlns=\"http://www.w3.org/1999/xhtml\"><table class=\"hl7__eu__lab__report\"><tr><th>Test</th><th>25-Jul-2020</th><th>Reference&#xA0;Range</th><th>Unit</th></tr><tr><td>Sodium [Moles/volume] in Blood</td><td>137.0</td><td>135 - 145</td><td></td><td>mmol/L</td></tr></table></div>"
        },
        "status": "final",
        "subject": {
          "reference": "urn:uuid:90479e25-3437-4117-9a82-f55ebaf287b0",
          "display": "Andrzej Frydrychowicz"
        },
        "effectiveDateTime": "2020-07-25T21:33:04Z",
        "specimen": {
          "reference": "urn:uuid:e09cb273-02a0-4b72-bf1b-6c91d5859d1f"
        }
      }
    },
    {
      "fullUrl": "urn:uuid:63c290ad-7df2-43d8-b832-d9c9bc35ca3b",
      "resource": {
        "resourceType": "Observation",
        "id": "63c290ad-7df2-43d8-b832-d9c9bc35ca3b",
        "meta": {
          "profile": [
            "http://hl7.eu/fhir/laboratory/StructureDefinition/Observation-resultslab-eu-lab"
          ]
        },
        "performer": [
          {
            "display": "The Central European Lab"
          }
        ],
        "category": [
          {
            "coding": [
              {
                "system": "http://terminology.hl7.org/CodeSystem/observation-category",
                "code": "laboratory"
              }
            ]
          }
        ],
        "code": {
          "coding": [
            {
              "code": "6298-4",
              "system": "http://loinc.org",
              "display": "Potassium [Moles/volume] in Blood"
            }
          ],
          "text": "Potassium [Moles/volume] in Blood"
        },
        "valueQuantity": {
          "system": "http://unitsofmeasure.org",
          "value": 5,
          "unit": "mmol/L",
          "code": "mmol/L"
        },
        "referenceRange": [
          {
            "low": {
              "value": 3.5,
              "code": "mmol/L",
              "system": "http://unitsofmeasure.org"
            }
          },
          {
            "high": {
              "value": 5.3,
              "code": "mmol/L",
              "system": "http://unitsofmeasure.org"
            }
          }
        ],
        "text": {
          "status": "generated",
          "div": "<div xmlns=\"http://www.w3.org/1999/xhtml\"><table class=\"hl7__eu__lab__report\"><tr><th>Test</th><th>25-Jul-2020</th><th>Reference&#xA0;Range</th><th>Unit</th></tr><tr><td>Potassium [Moles/volume] in Blood</td><td>5.0</td><td>3.5 - 5.3</td><td></td><td>mmol/L</td></tr></table></div>"
        },
        "status": "final",
        "subject": {
          "reference": "urn:uuid:90479e25-3437-4117-9a82-f55ebaf287b0",
          "display": "Andrzej Frydrychowicz"
        },
        "effectiveDateTime": "2020-07-25T21:33:04Z",
        "specimen": {
          "reference": "urn:uuid:e09cb273-02a0-4b72-bf1b-6c91d5859d1f"
        }
      }
    },
    {
      "fullUrl": "urn:uuid:c81ba41f-d78b-4e0c-951e-8b7567be7ccc",
      "resource": {
        "resourceType": "Observation",
        "id": "c81ba41f-d78b-4e0c-951e-8b7567be7ccc",
        "meta": {
          "profile": [
            "http://hl7.eu/fhir/laboratory/StructureDefinition/Observation-resultslab-eu-lab"
          ]
        },
        "performer": [
          {
            "display": "The Central European Lab"
          }
        ],
        "category": [
          {
            "coding": [
              {
                "system": "http://terminology.hl7.org/CodeSystem/observation-category",
                "code": "laboratory"
              }
            ]
          }
        ],
        "code": {
          "coding": [
            {
              "code": "2069-3",
              "system": "http://loinc.org",
              "display": "Chloride [Moles/volume] in Blood"
            }
          ],
          "text": "Chloride [Moles/volume] in Blood"
        },
        "valueQuantity": {
          "system": "http://unitsofmeasure.org",
          "value": 110.2,
          "unit": "mmol/L",
          "code": "mmol/L"
        },
        "referenceRange": [
          {
            "low": {
              "value": 98,
              "code": "mmol/L",
              "system": "http://unitsofmeasure.org"
            }
          },
          {
            "high": {
              "value": 110,
              "code": "mmol/L",
              "system": "http://unitsofmeasure.org"
            }
          }
        ],
        "interpretation": [
          {
            "coding": [
              {
                "code": "H",
                "system": "http://terminology.hl7.org/CodeSystem/v3-ObservationInterpretation",
                "display": "High"
              }
            ]
          }
        ],
        "text": {
          "status": "generated",
          "div": "<div xmlns=\"http://www.w3.org/1999/xhtml\"><table class=\"hl7__eu__lab__report\"><tr><th>Test</th><th>25-Jul-2020</th><th>Reference&#xA0;Range</th><th>Unit</th></tr><tr><td>Chloride [Moles/volume] in Blood</td><td>110.2</td><td>98 - 110</td><td>H</td><td>mmol/L</td></tr></table></div>"
        },
        "status": "final",
        "subject": {
          "reference": "urn:uuid:90479e25-3437-4117-9a82-f55ebaf287b0",
          "display": "Andrzej Frydrychowicz"
        },
        "effectiveDateTime": "2020-07-25T21:33:04Z",
        "specimen": {
          "reference": "urn:uuid:e09cb273-02a0-4b72-bf1b-6c91d5859d1f"
        }
      }
    },
    {
      "fullUrl": "urn:uuid:3529297f-879d-46cf-880e-d22b8d95b33f",
      "resource": {
        "resourceType": "Observation",
        "id": "3529297f-879d-46cf-880e-d22b8d95b33f",
        "meta": {
          "profile": [
            "http://hl7.eu/fhir/laboratory/StructureDefinition/Observation-resultslab-eu-lab"
          ]
        },
        "performer": [
          {
            "display": "The Central European Lab"
          }
        ],
        "category": [
          {
            "coding": [
              {
                "system": "http://terminology.hl7.org/CodeSystem/observation-category",
                "code": "laboratory"
              }
            ]
          }
        ],
        "code": {
          "coding": [
            {
              "code": "20565-8",
              "system": "http://loinc.org",
              "display": "Carbon dioxide, total [Moles/volume] in Blood"
            }
          ],
          "text": "Carbon dioxide, total [Moles/volume] in Blood"
        },
        "valueQuantity": {
          "system": "http://unitsofmeasure.org",
          "value": 22.4,
          "unit": "mmol/L",
          "code": "mmol/L"
        },
        "referenceRange": [
          {
            "low": {
              "value": 22,
              "code": "mmol/L",
              "system": "http://unitsofmeasure.org"
            }
          },
          {
            "high": {
              "value": 29,
              "code": "mmol/L",
              "system": "http://unitsofmeasure.org"
            }
          }
        ],
        "text": {
          "status": "generated",
          "div": "<div xmlns=\"http://www.w3.org/1999/xhtml\"><table class=\"hl7__eu__lab__report\"><tr><th>Test</th><th>25-Jul-2020</th><th>Reference&#xA0;Range</th><th>Unit</th></tr><tr><td>Carbon dioxide, total [Moles/volume] in Blood</td><td>22.4</td><td>22 - 29</td><td></td><td>mmol/L</td></tr></table></div>"
        },
        "status": "final",
        "subject": {
          "reference": "urn:uuid:90479e25-3437-4117-9a82-f55ebaf287b0",
          "display": "Andrzej Frydrychowicz"
        },
        "effectiveDateTime": "2020-07-25T21:33:04Z",
        "specimen": {
          "reference": "urn:uuid:e09cb273-02a0-4b72-bf1b-6c91d5859d1f"
        }
      }
    },
    {
      "fullUrl": "urn:uuid:9267ccc9-60e3-4575-9d09-4dbb002a8449",
      "resource": {
        "resourceType": "Device",
        "id": "9267ccc9-60e3-4575-9d09-4dbb002a8449",
        "deviceName": [
          {
            "name": "SYNDERAI Synthetic Generator",
            "type": "manufacturer-name"
          }
        ],
        "version": [
          {
            "value": "5.0"
          }
        ],
        "text": {
          "status": "generated",
          "div": "<div xmlns=\"http://www.w3.org/1999/xhtml\">SYNDERAI Synthetic Generator v5.0</div>"
        },
        "status": "active\"",
        "distinctIdentifier": "synderai-generator-50",
        "manufacturer": "SYNDERAI Project"
      }
    },
    {
      "fullUrl": "urn:uuid:ebc4e474-495d-4174-9ecf-3317dfb28abd",
      "resource": {
        "resourceType": "Provenance",
        "id": "ebc4e474-495d-4174-9ecf-3317dfb28abd",
        "target": [
          {
            "reference": "Patient/90479e25-3437-4117-9a82-f55ebaf287b0"
          },
          {
            "reference": "Bundle/c5a61943-22fe-4464-8cad-357ef11831be"
          },
          {
            "reference": "Composition/7396c253-5120-48e7-9dac-0bed496ef289"
          },
          {
            "reference": "PractitionerRole/7f810dff-2491-4c9c-9792-03ef2dd1ab24"
          },
          {
            "reference": "Practitioner/359d129f-cb31-4eba-9911-3412e00e1739"
          },
          {
            "reference": "PractitionerRole/44a51b66-da32-4838-93f3-c15a20db06ca"
          },
          {
            "reference": "Organization/6956e2f7-706f-4a2a-aa42-312bcad1fab8"
          }
        ],
        "activity": {
          "text": "Synthetic Example Data Generation"
        },
        "policy": [
          "https://synderai.net/synderai-synthetic-data-policy"
        ],
        "agent": [
          {
            "type": {
              "text": "author"
            },
            "who": {
              "reference": "Device/9267ccc9-60e3-4575-9d09-4dbb002a8449"
            }
          }
        ],
        "reason": [
          {
            "text": "Interoperability Testing and Training (non-clinical use)"
          }
        ],
        "text": {
          "status": "generated",
          "div": "<div xmlns=\"http://www.w3.org/1999/xhtml\">Provenance for SYNDERAI Synthetic Example Data Resource</div>"
        },
        "recorded": "2020-07-25T23:33:04Z"
      }
    },
    {
      "fullUrl": "urn:uuid:7f810dff-2491-4c9c-9792-03ef2dd1ab24",
      "resource": {
        "resourceType": "PractitionerRole",
        "id": "7f810dff-2491-4c9c-9792-03ef2dd1ab24",
        "meta": {
          "profile": [
            "http://hl7.eu/fhir/base/StructureDefinition/practitionerRole-eu"
          ]
        },
        "text": {
          "status": "generated",
          "div": "<div xmlns=\"http://www.w3.org/1999/xhtml\">Laboratory Role Id: 7f810dff-2491-4c9c-9792-03ef2dd1ab24</div>"
        },
        "practitioner": {
          "reference": "urn:uuid:359d129f-cb31-4eba-9911-3412e00e1739"
        }
      }
    },
    {
      "fullUrl": "urn:uuid:359d129f-cb31-4eba-9911-3412e00e1739",
      "resource": {
        "resourceType": "Practitioner",
        "id": "359d129f-cb31-4eba-9911-3412e00e1739",
        "meta": {
          "profile": [
            "http://hl7.eu/fhir/base/StructureDefinition/practitioner-eu"
          ]
        },
        "identifier": [
          {
            "assigner": {
              "display": "HL7 Europe"
            },
            "system": "urn:oid:2.16.840.1.113883.2.51.999",
            "value": "75c7d9d2-7175-491e-9fa8-fadb274c8c9d"
          }
        ],
        "name": [
          {
            "prefix": [
              "dr"
            ],
            "given": [
              "Ex"
            ],
            "family": "Ample"
          }
        ],
        "address": [
          {
            "line": [
              "Laboratoire Central Européenne",
              "Boulevard du Jardin Botanique 32"
            ],
            "postalCode": "1000",
            "city": "Brussels",
            "country": "Belgium"
          }
        ],
        "text": {
          "status": "generated",
          "div": "<div xmlns=\"http://www.w3.org/1999/xhtml\">Laboratory: Laboratoire Central Européenne, 1000 Brussels, Belgium</div>"
        }
      }
    }
  ],
  "type": "document",
  "timestamp": "2020-07-25T23:33:04Z"
}
