{
  "resourceType": "Bundle",
  "id": "101b71b1-2ab7-43d0-920b-9c6ce1523544",
  "meta": {
    "profile": [
      "http://hl7.eu/fhir/laboratory/StructureDefinition/Bundle-eu-lab"
    ]
  },
  "identifier": {
    "assigner": {
      "display": "HL7 Europe"
    },
    "system": "urn:oid:2.16.840.1.113883.2.51.999",
    "value": "e550c7e3-9964-45ea-b1d3-a0eee1e33479"
  },
  "entry": [
    {
      "fullUrl": "urn:uuid:65784358-ce51-4583-8d77-bfd2eb4b8427",
      "resource": {
        "resourceType": "Composition",
        "id": "65784358-ce51-4583-8d77-bfd2eb4b8427",
        "meta": {
          "profile": [
            "http://hl7.eu/fhir/laboratory/StructureDefinition/Composition-eu-lab"
          ]
        },
        "identifier": {
          "assigner": {
            "display": "HL7 Europe"
          },
          "system": "urn:oid:2.16.840.1.113883.2.51.999",
          "value": "a36ef1e7-b33b-4699-825a-79b4e6678f12"
        },
        "author": [
          {
            "reference": "urn:uuid:76a92cf9-89b5-45ab-911b-0a67e4407f10"
          }
        ],
        "category": [
          {
            "coding": [
              {
                "code": "26436-6",
                "system": "http://loinc.org",
                "display": "Laboratory studies (set)"
              }
            ]
          }
        ],
        "type": {
          "coding": [
            {
              "code": "11502-2",
              "system": "http://loinc.org",
              "display": "Laboratory report"
            }
          ],
          "text": "Laboratory Report"
        },
        "section": [
          {
            "code": {
              "coding": [
                {
                  "code": "26436-6",
                  "system": "http://loinc.org",
                  "display": "Laboratory studies (set)"
                }
              ],
              "text": "Laboratory studies"
            },
            "section": [
              {
                "code": {
                  "coding": [
                    {
                      "code": "$18719-5",
                      "system": "http://loinc.org",
                      "display": "Chemistry studies (set)"
                    }
                  ],
                  "text": "Chemistry"
                },
                "entry": [
                  {
                    "reference": "urn:uuid:13a740f7-c1e6-4875-83d4-e52567713267"
                  }
                ],
                "text": {
                  "status": "generated",
                  "div": "<div xmlns=\"http://www.w3.org/1999/xhtml\"><h3>Chemistry</h3><table class=\"hl7__eu__lab__report\"><thead><tr><th>Test</th><th>25-JUL-2022</th><th>Reference&#xA0;Range</th><th>Unit</th></tr></thead><tbody><tr><td>Troponin I.cardiac [Mass/volume] in Serum or Plasma by High sensitivity method</td><td><strong>106.7 H</strong></td><td>0 - 34.2</td><td>ng/L</td></tr></tbody></table></div>"
                },
                "title": "Chemistry"
              }
            ],
            "title": "Laboratory Report"
          },
          {
            "text": {
              "status": "generated",
              "div": "<div xmlns=\"http://www.w3.org/1999/xhtml\"><h3>Annotation</h3><table class=\"hl7__eu__lab__report\"><tr><th>Conclusion and Recommendations based on this report and previous findings known to us</th></tr><tr><td>Markedly elevated high-sensitivity cardiac troponin I indicates significant myocardial injury, suggestive of acute myocardial infarction or another acute cardiac event. Immediate clinical correlation and urgent cardiology evaluation are recommended.</td></tr></table></div>"
            },
            "code": {
              "coding": [
                {
                  "system": "http://loinc.org",
                  "code": "48767-8",
                  "display": "Annotation comment"
                }
              ]
            },
            "title": "Annotation comment"
          }
        ],
        "status": "final",
        "subject": {
          "reference": "urn:uuid:bc36200c-f1c7-408d-bb48-c6883929e00c",
          "display": "Maria Nohlmans"
        },
        "date": "2022-07-25T14:01:29Z",
        "title": "Laboratory Report",
        "confidentiality": "N"
      }
    },
    {
      "fullUrl": "urn:uuid:baf9ffe3-71c6-46d9-8135-7a4d5fe060c2",
      "resource": {
        "resourceType": "DiagnosticReport",
        "id": "baf9ffe3-71c6-46d9-8135-7a4d5fe060c2",
        "meta": {
          "profile": [
            "http://hl7.eu/fhir/laboratory/StructureDefinition/DiagnosticReport-eu-lab"
          ]
        },
        "identifier": [
          {
            "assigner": {
              "display": "HL7 Europe"
            },
            "system": "urn:oid:2.16.840.1.113883.2.51.999",
            "value": "f38105be-ef34-485b-a348-7aa2bcd3c2d4"
          }
        ],
        "extension": [
          {
            "url": "http://hl7.org/fhir/5.0/StructureDefinition/extension-DiagnosticReport.composition",
            "valueReference": {
              "reference": "urn:uuid:a36ef1e7-b33b-4699-825a-79b4e6678f12"
            }
          }
        ],
        "category": [
          {
            "coding": [
              {
                "code": "26436-6",
                "system": "http://loinc.org",
                "display": "Laboratory studies (set)"
              }
            ]
          }
        ],
        "specimen": [
          {
            "reference": "urn:uuid:440052a2-e199-434c-9aa4-d3b8b0aa7611"
          }
        ],
        "result": [
          {
            "reference": "urn:uuid:13a740f7-c1e6-4875-83d4-e52567713267"
          }
        ],
        "status": "registered",
        "code": {
          "coding": [
            {
              "code": "11502-2",
              "system": "http://loinc.org",
              "display": "Laboratory report"
            }
          ]
        },
        "subject": {
          "reference": "urn:uuid:bc36200c-f1c7-408d-bb48-c6883929e00c",
          "display": "Maria Nohlmans"
        }
      }
    },
    {
      "fullUrl": "urn:uuid:bc36200c-f1c7-408d-bb48-c6883929e00c",
      "resource": {
        "resourceType": "Patient",
        "id": "bc36200c-f1c7-408d-bb48-c6883929e00c",
        "meta": {
          "security": [
            {
              "system": "http://terminology.hl7.org/CodeSystem/v3-ActReason",
              "code": "HTEST"
            },
            {
              "system": "http://terminology.hl7.org/CodeSystem/v3-ActReason",
              "code": "TRAIN"
            }
          ],
          "tag": [
            {
              "system": "https://synderai.net/fhir/CodeSystem/tags",
              "code": "synthetic",
              "display": "SYNDERAI Synthetic data"
            }
          ],
          "profile": [
            "http://hl7.eu/fhir/base/StructureDefinition/patient-eu-core"
          ]
        },
        "identifier": [
          {
            "type": {
              "coding": [
                {
                  "code": "PT",
                  "system": "http://terminology.hl7.org/CodeSystem/v2-0203"
                }
              ]
            },
            "system": "http://ec.europa.eu/identifier/eci",
            "value": "6886-506417-1"
          },
          {
            "type": {
              "coding": [
                {
                  "code": "MR",
                  "system": "http://terminology.hl7.org/CodeSystem/v2-0203"
                }
              ]
            },
            "system": "http://local.setting.eu/identifier",
            "value": "2cb21ed6-b617-b1f3-2290-589a710de5ee"
          }
        ],
        "name": [
          {
            "family": "Nohlmans"
          },
          {
            "given": [
              "Maria"
            ]
          },
          {
            "text": "Maria Nohlmans"
          }
        ],
        "address": [
          {
            "line": [
              "Alfons-Wulff-Weg 1"
            ],
            "use": "home",
            "type": "physical",
            "postalCode": "25813",
            "city": "Husum",
            "country": "Germany"
          }
        ],
        "telecom": [
          {
            "system": "phone",
            "value": "+49(0)1911 105501"
          }
        ],
        "extension": [
          {
            "url": "http://hl7.org/fhir/StructureDefinition/patient-nationality",
            "valueCodeableConcept": {
              "coding": [
                {
                  "code": "DE",
                  "system": "http://hl7.org/fhir/ValueSet/country"
                }
              ]
            }
          }
        ],
        "text": {
          "status": "generated",
          "div": "<div xmlns=\"http://www.w3.org/1999/xhtml\"><table class=\"hl7__ips\"><tr><td>Maria Nohlmans</td><td>female</td><td>11-Jun-1947</td></tr></table></div>"
        },
        "gender": "female",
        "birthDate": "1947-06-11"
      }
    },
    {
      "fullUrl": "urn:uuid:93a05729-8260-412a-b03b-1b6bbddd3267",
      "resource": {
        "resourceType": "ServiceRequest",
        "id": "93a05729-8260-412a-b03b-1b6bbddd3267",
        "meta": {
          "profile": [
            "http://hl7.eu/fhir/laboratory/StructureDefinition/ServiceRequest-eu-lab"
          ]
        },
        "identifier": [
          {
            "system": "http://example.org",
            "value": "0e162ca2-bd34-48a8-82ef-43f0f4cc9b57"
          }
        ],
        "specimen": [
          {
            "reference": "urn:uuid:440052a2-e199-434c-9aa4-d3b8b0aa7611"
          }
        ],
        "reasonCode": [
          {
            "coding": [
              {
                "code": "401314000",
                "system": "http://snomed.info/sct",
                "display": "Acute non-ST segment elevation myocardial infarction"
              }
            ]
          },
          {
            "coding": [
              {
                "code": "157141000119108",
                "system": "http://snomed.info/sct",
                "display": "Proteinuria due to type 2 diabetes mellitus"
              }
            ]
          },
          {
            "coding": [
              {
                "code": "237602007",
                "system": "http://snomed.info/sct",
                "display": "Metabolic syndrome X"
              }
            ]
          },
          {
            "coding": [
              {
                "code": "90781000119102",
                "system": "http://snomed.info/sct",
                "display": "Microalbuminuria due to type 2 diabetes mellitus"
              }
            ]
          },
          {
            "coding": [
              {
                "code": "127013003",
                "system": "http://snomed.info/sct",
                "display": "Disorder of kidney due to diabetes mellitus"
              }
            ]
          },
          {
            "coding": [
              {
                "code": "59621000",
                "system": "http://snomed.info/sct",
                "display": "Essential hypertension"
              }
            ]
          },
          {
            "coding": [
              {
                "code": "271737000",
                "system": "http://snomed.info/sct",
                "display": "Anemia"
              }
            ]
          },
          {
            "coding": [
              {
                "code": "15777000",
                "system": "http://snomed.info/sct",
                "display": "Prediabetes"
              }
            ]
          }
        ],
        "status": "active",
        "intent": "order",
        "code": {
          "coding": [
            {
              "code": "108252007",
              "system": "http://snomed.info/sct",
              "display": "Laboratory procedure"
            }
          ]
        },
        "subject": {
          "reference": "urn:uuid:bc36200c-f1c7-408d-bb48-c6883929e00c",
          "display": "Maria Nohlmans"
        },
        "requester": {
          "reference": "urn:uuid:1d1c26be-c796-4465-af5d-6564e9680054"
        }
      }
    },
    {
      "fullUrl": "urn:uuid:1d1c26be-c796-4465-af5d-6564e9680054",
      "resource": {
        "resourceType": "PractitionerRole",
        "id": "1d1c26be-c796-4465-af5d-6564e9680054",
        "meta": {
          "profile": [
            "http://hl7.eu/fhir/base/StructureDefinition/practitionerRole-eu"
          ]
        },
        "text": {
          "status": "generated",
          "div": "<div xmlns=\"http://www.w3.org/1999/xhtml\">Provider Role Id: 1d1c26be-c796-4465-af5d-6564e9680054</div>"
        },
        "organization": {
          "reference": "urn:uuid:9a642e2f-876b-4f5a-bb5b-d2b54d82c988"
        }
      }
    },
    {
      "fullUrl": "urn:uuid:9a642e2f-876b-4f5a-bb5b-d2b54d82c988",
      "resource": {
        "resourceType": "Organization",
        "id": "9a642e2f-876b-4f5a-bb5b-d2b54d82c988",
        "meta": {
          "profile": [
            "http://hl7.eu/fhir/base/StructureDefinition/organization-eu"
          ]
        },
        "identifier": [
          {
            "assigner": {
              "display": "HL7 Europe"
            },
            "system": "urn:oid:2.16.840.1.113883.2.51.999",
            "value": "fc8ef9ad-8e26-4241-9564-6180a3b208f7"
          }
        ],
        "address": [
          {
            "line": [
              "Brinckmannstraße 35"
            ],
            "city": "Husum",
            "postalCode": "25813",
            "country": "Germany"
          }
        ],
        "text": {
          "status": "generated",
          "div": "<div xmlns=\"http://www.w3.org/1999/xhtml\">Provider Organization: Dr. Wolfram Hussels Kieferorthopäde</div>"
        },
        "name": "Dr. Wolfram Hussels Kieferorthopäde"
      }
    },
    {
      "fullUrl": "urn:uuid:440052a2-e199-434c-9aa4-d3b8b0aa7611",
      "resource": {
        "resourceType": "Specimen",
        "id": "440052a2-e199-434c-9aa4-d3b8b0aa7611",
        "meta": {
          "profile": [
            "http://hl7.eu/fhir/laboratory/StructureDefinition/Specimen-eu-lab"
          ]
        },
        "collection": {
          "collectedDateTime": "2022-07-25"
        },
        "text": {
          "status": "generated",
          "div": "<div xmlns=\"http://www.w3.org/1999/xhtml\"><table class=\"hl7__eu__lab__report\"><tr><th>Specimen</th><th>Collection Date</th></tr><tr><td>Acellular blood (serum or plasma) specimen</td><td><span class=\"nb\">25-Jul-2022</span></td></tr></table></div>"
        },
        "type": {
          "coding": [
            {
              "code": "122592007",
              "system": "http://snomed.info/sct",
              "display": "Acellular blood (serum or plasma) specimen"
            }
          ]
        }
      }
    },
    {
      "fullUrl": "urn:uuid:13a740f7-c1e6-4875-83d4-e52567713267",
      "resource": {
        "resourceType": "Observation",
        "id": "13a740f7-c1e6-4875-83d4-e52567713267",
        "meta": {
          "profile": [
            "http://hl7.eu/fhir/laboratory/StructureDefinition/Observation-resultslab-eu-lab"
          ]
        },
        "performer": [
          {
            "display": "The Central European Lab"
          }
        ],
        "category": [
          {
            "coding": [
              {
                "system": "http://terminology.hl7.org/CodeSystem/observation-category",
                "code": "laboratory"
              }
            ]
          }
        ],
        "code": {
          "coding": [
            {
              "code": "89579-7",
              "system": "http://loinc.org",
              "display": "Troponin I.cardiac [Mass/volume] in Serum or Plasma by High sensitivity method"
            }
          ],
          "text": "Troponin I.cardiac [Mass/volume] in Serum or Plasma by High sensitivity method"
        },
        "valueQuantity": {
          "system": "http://unitsofmeasure.org",
          "value": 106.7,
          "unit": "ng/L",
          "code": "ng/L"
        },
        "referenceRange": [
          {
            "low": {
              "value": 0,
              "code": "ng/L",
              "system": "http://unitsofmeasure.org"
            }
          },
          {
            "high": {
              "value": 34.2,
              "code": "ng/L",
              "system": "http://unitsofmeasure.org"
            }
          }
        ],
        "interpretation": [
          {
            "coding": [
              {
                "code": "H",
                "system": "http://terminology.hl7.org/CodeSystem/v3-ObservationInterpretation",
                "display": "High"
              }
            ]
          }
        ],
        "text": {
          "status": "generated",
          "div": "<div xmlns=\"http://www.w3.org/1999/xhtml\"><table class=\"hl7__eu__lab__report\"><tr><th>Test</th><th>25-Jul-2022</th><th>Reference&#xA0;Range</th><th>Unit</th></tr><tr><td>Troponin I.cardiac [Mass/volume] in Serum or Plasma by High sensitivity method</td><td>106.7</td><td>0 - 34.2</td><td>H</td><td>ng/L</td></tr></table></div>"
        },
        "status": "final",
        "subject": {
          "reference": "urn:uuid:bc36200c-f1c7-408d-bb48-c6883929e00c",
          "display": "Maria Nohlmans"
        },
        "effectiveDateTime": "2022-07-25T12:01:29Z",
        "specimen": {
          "reference": "urn:uuid:440052a2-e199-434c-9aa4-d3b8b0aa7611"
        }
      }
    },
    {
      "fullUrl": "urn:uuid:9b3988c0-47c0-49a4-abd7-4d0c2d7b641a",
      "resource": {
        "resourceType": "Device",
        "id": "9b3988c0-47c0-49a4-abd7-4d0c2d7b641a",
        "deviceName": [
          {
            "name": "SYNDERAI Synthetic Generator",
            "type": "manufacturer-name"
          }
        ],
        "version": [
          {
            "value": "5.0"
          }
        ],
        "text": {
          "status": "generated",
          "div": "<div xmlns=\"http://www.w3.org/1999/xhtml\">SYNDERAI Synthetic Generator v5.0</div>"
        },
        "status": "active\"",
        "distinctIdentifier": "synderai-generator-50",
        "manufacturer": "SYNDERAI Project"
      }
    },
    {
      "fullUrl": "urn:uuid:d120d55b-abc3-49e9-8f5a-c5214aebde1a",
      "resource": {
        "resourceType": "Provenance",
        "id": "d120d55b-abc3-49e9-8f5a-c5214aebde1a",
        "target": [
          {
            "reference": "Patient/bc36200c-f1c7-408d-bb48-c6883929e00c"
          },
          {
            "reference": "Bundle/101b71b1-2ab7-43d0-920b-9c6ce1523544"
          },
          {
            "reference": "Composition/65784358-ce51-4583-8d77-bfd2eb4b8427"
          },
          {
            "reference": "PractitionerRole/76a92cf9-89b5-45ab-911b-0a67e4407f10"
          },
          {
            "reference": "Practitioner/17f4ad3a-2459-4297-9815-0f3ffc83fc3d"
          },
          {
            "reference": "PractitionerRole/1d1c26be-c796-4465-af5d-6564e9680054"
          },
          {
            "reference": "Organization/9a642e2f-876b-4f5a-bb5b-d2b54d82c988"
          }
        ],
        "activity": {
          "text": "Synthetic Example Data Generation"
        },
        "policy": [
          "https://synderai.net/synderai-synthetic-data-policy"
        ],
        "agent": [
          {
            "type": {
              "text": "author"
            },
            "who": {
              "reference": "Device/9b3988c0-47c0-49a4-abd7-4d0c2d7b641a"
            }
          }
        ],
        "reason": [
          {
            "text": "Interoperability Testing and Training (non-clinical use)"
          }
        ],
        "text": {
          "status": "generated",
          "div": "<div xmlns=\"http://www.w3.org/1999/xhtml\">Provenance for SYNDERAI Synthetic Example Data Resource</div>"
        },
        "recorded": "2022-07-25T14:01:29Z"
      }
    },
    {
      "fullUrl": "urn:uuid:76a92cf9-89b5-45ab-911b-0a67e4407f10",
      "resource": {
        "resourceType": "PractitionerRole",
        "id": "76a92cf9-89b5-45ab-911b-0a67e4407f10",
        "meta": {
          "profile": [
            "http://hl7.eu/fhir/base/StructureDefinition/practitionerRole-eu"
          ]
        },
        "text": {
          "status": "generated",
          "div": "<div xmlns=\"http://www.w3.org/1999/xhtml\">Laboratory Role Id: 76a92cf9-89b5-45ab-911b-0a67e4407f10</div>"
        },
        "practitioner": {
          "reference": "urn:uuid:17f4ad3a-2459-4297-9815-0f3ffc83fc3d"
        }
      }
    },
    {
      "fullUrl": "urn:uuid:17f4ad3a-2459-4297-9815-0f3ffc83fc3d",
      "resource": {
        "resourceType": "Practitioner",
        "id": "17f4ad3a-2459-4297-9815-0f3ffc83fc3d",
        "meta": {
          "profile": [
            "http://hl7.eu/fhir/base/StructureDefinition/practitioner-eu"
          ]
        },
        "identifier": [
          {
            "assigner": {
              "display": "HL7 Europe"
            },
            "system": "urn:oid:2.16.840.1.113883.2.51.999",
            "value": "308338d7-b858-4f67-9030-1286b2c302d1"
          }
        ],
        "name": [
          {
            "prefix": [
              "dr"
            ],
            "given": [
              "Ex"
            ],
            "family": "Ample"
          }
        ],
        "address": [
          {
            "line": [
              "Laboratoire Central Européenne",
              "Boulevard du Jardin Botanique 32"
            ],
            "postalCode": "1000",
            "city": "Brussels",
            "country": "Belgium"
          }
        ],
        "text": {
          "status": "generated",
          "div": "<div xmlns=\"http://www.w3.org/1999/xhtml\">Laboratory: Laboratoire Central Européenne, 1000 Brussels, Belgium</div>"
        }
      }
    }
  ],
  "type": "document",
  "timestamp": "2022-07-25T14:01:29Z"
}
