{
  "resourceType": "Bundle",
  "id": "a997a983-a41d-46b6-907b-5bc7a370a31f",
  "meta": {
    "profile": [
      "http://hl7.eu/fhir/laboratory/StructureDefinition/Bundle-eu-lab"
    ]
  },
  "identifier": {
    "assigner": {
      "display": "HL7 Europe"
    },
    "system": "urn:oid:2.16.840.1.113883.2.51.999",
    "value": "4c614e95-6194-4e4b-8d6f-e4a6c4770f12"
  },
  "entry": [
    {
      "fullUrl": "urn:uuid:c6810649-cf63-43a4-9207-a34f0700428b",
      "resource": {
        "resourceType": "Composition",
        "id": "c6810649-cf63-43a4-9207-a34f0700428b",
        "meta": {
          "profile": [
            "http://hl7.eu/fhir/laboratory/StructureDefinition/Composition-eu-lab"
          ]
        },
        "identifier": {
          "assigner": {
            "display": "HL7 Europe"
          },
          "system": "urn:oid:2.16.840.1.113883.2.51.999",
          "value": "43b8205c-d159-4a59-98ac-9bb6f354a808"
        },
        "author": [
          {
            "reference": "urn:uuid:9cd592d1-f39f-47a0-b04e-268d5f9bf0d1"
          }
        ],
        "category": [
          {
            "coding": [
              {
                "code": "26436-6",
                "system": "http://loinc.org",
                "display": "Laboratory studies (set)"
              }
            ]
          }
        ],
        "type": {
          "coding": [
            {
              "code": "11502-2",
              "system": "http://loinc.org",
              "display": "Laboratory report"
            }
          ],
          "text": "Laboratory Report"
        },
        "section": [
          {
            "code": {
              "coding": [
                {
                  "code": "26436-6",
                  "system": "http://loinc.org",
                  "display": "Laboratory studies (set)"
                }
              ],
              "text": "Laboratory studies"
            },
            "section": [
              {
                "code": {
                  "coding": [
                    {
                      "code": "$18719-5",
                      "system": "http://loinc.org",
                      "display": "Chemistry studies (set)"
                    }
                  ],
                  "text": "Chemistry"
                },
                "entry": [
                  {
                    "reference": "urn:uuid:47ae7905-b704-406e-b81e-b7847672b879"
                  },
                  {
                    "reference": "urn:uuid:a3ac9efc-406f-4f8c-80b7-1de5d12b502e"
                  },
                  {
                    "reference": "urn:uuid:6defbef7-4786-4724-a767-537781649061"
                  },
                  {
                    "reference": "urn:uuid:eb605043-879e-4c7e-b1b2-97c4e0d5d7ce"
                  },
                  {
                    "reference": "urn:uuid:44f9dcac-db7a-4a1e-845a-6718dfc09c14"
                  },
                  {
                    "reference": "urn:uuid:8c5ea5ec-c206-48d3-b39f-3d090f4f120f"
                  },
                  {
                    "reference": "urn:uuid:d8ef5d55-8c28-490d-89cd-90805fd51db3"
                  },
                  {
                    "reference": "urn:uuid:0c176919-9144-4569-a1be-70bf40c1ede3"
                  },
                  {
                    "reference": "urn:uuid:ad32c130-c8ff-4d30-a81c-3e234fd62734"
                  },
                  {
                    "reference": "urn:uuid:81156fb0-9df3-42fb-9846-cd2ade3f53e4"
                  },
                  {
                    "reference": "urn:uuid:630d9be1-462e-431a-87e4-25dcbeeb24d6"
                  },
                  {
                    "reference": "urn:uuid:a799f969-f6d6-4106-8233-cd71e1cfe8c2"
                  },
                  {
                    "reference": "urn:uuid:714d92a3-fa23-490a-a2d2-660eb0a58d32"
                  },
                  {
                    "reference": "urn:uuid:26b26cb2-134a-4914-b1f4-dcae65cc42ab"
                  },
                  {
                    "reference": "urn:uuid:b8d0c03b-fe7b-4f9e-9dc2-11ccbc3732f9"
                  },
                  {
                    "reference": "urn:uuid:fb014ca1-5857-402c-9e47-facb4bc85981"
                  },
                  {
                    "reference": "urn:uuid:29f76ed0-726d-47be-8f04-6cbfcf0c0355"
                  },
                  {
                    "reference": "urn:uuid:fc0a2b52-20fa-4633-88f4-485f03126ff2"
                  }
                ],
                "text": {
                  "status": "generated",
                  "div": "<div xmlns=\"http://www.w3.org/1999/xhtml\"><h3>Chemistry</h3><table class=\"hl7__eu__lab__report\"><thead><tr><th>Test</th><th>24-JAN-2019</th><th>Reference&#xA0;Range</th><th>Unit</th></tr></thead><tbody><tr><td>Glucose [Mass/volume] in Serum or Plasma</td><td>98.1</td><td>70 - 140</td><td>mg/dL</td></tr><tr><td>Urea nitrogen [Mass/volume] in Serum or Plasma</td><td>16.4</td><td>7 - 25</td><td>mg/dL</td></tr><tr><td>Creatinine [Mass/volume] in Serum or Plasma</td><td><strong>1.6 H</strong></td><td>0.9 - 1.3</td><td>mg/dL</td></tr><tr><td>Calcium [Mass/volume] in Serum or Plasma</td><td>9.2</td><td>8.5 - 10.5</td><td>mg/dL</td></tr><tr><td>Sodium [Moles/volume] in Serum or Plasma</td><td>144.0</td><td>135 - 145</td><td>mmol/L</td></tr><tr><td>Potassium [Moles/volume] in Serum or Plasma</td><td>4.2</td><td>3.5 - 5.3</td><td>mmol/L</td></tr><tr><td>Chloride [Moles/volume] in Serum or Plasma</td><td>103.1</td><td>98 - 107</td><td>mmol/L</td></tr><tr><td>Carbon dioxide, total [Moles/volume] in Serum or Plasma</td><td>26.4</td><td>22 - 29</td><td>mmol/L</td></tr><tr><td>Ketones [Presence] in Urine by Test strip</td><td>Urine ketone test = trace</td><td></td><td></td></tr><tr><td>Hemoglobin A1c/Hemoglobin.total in Blood</td><td>6.4</td><td>4.5 - 6.4</td><td>%</td></tr><tr><td>Glucose [Mass/volume] in Blood</td><td>98.1</td><td>70 - 140</td><td>mg/dL</td></tr><tr><td>Urea nitrogen [Mass/volume] in Blood</td><td>16.4</td><td>7 - 25</td><td>mg/dL</td></tr><tr><td>Creatinine [Mass/volume] in Blood</td><td>1.0</td><td>0.9 - 1.3</td><td>mg/dL</td></tr><tr><td>Calcium [Mass/volume] in Blood</td><td>9.2</td><td>8.6 - 10.2</td><td>mg/dL</td></tr><tr><td>Sodium [Moles/volume] in Blood</td><td>144.0</td><td>135 - 145</td><td>mmol/L</td></tr><tr><td>Potassium [Moles/volume] in Blood</td><td>4.2</td><td>3.5 - 5.1</td><td>mmol/L</td></tr><tr><td>Chloride [Moles/volume] in Blood</td><td>103.1</td><td>98 - 108</td><td>mmol/L</td></tr><tr><td>Carbon dioxide, total [Moles/volume] in Blood</td><td>26.4</td><td>22 - 32</td><td>mmol/L</td></tr></tbody></table></div>"
                },
                "title": "Chemistry"
              },
              {
                "code": {
                  "coding": [
                    {
                      "code": "$18729-4",
                      "system": "http://loinc.org",
                      "display": "Urinalysis studies (set)"
                    }
                  ],
                  "text": "Urinalysis"
                },
                "entry": [
                  {
                    "reference": "urn:uuid:3cdbfb3f-2a27-4a12-af9a-d5e19dab676d"
                  },
                  {
                    "reference": "urn:uuid:d4d22344-43c7-4eab-a817-92b9c8d8831b"
                  },
                  {
                    "reference": "urn:uuid:f13b17c0-8d7c-4443-80d7-2b435cc217ec"
                  },
                  {
                    "reference": "urn:uuid:8a85fb41-de4b-4796-acc1-a2a174cf3931"
                  },
                  {
                    "reference": "urn:uuid:6f1b7636-7151-432b-8633-bf6513ef7a24"
                  },
                  {
                    "reference": "urn:uuid:c4a346d1-23b0-4bf1-aa83-8e48cafa0243"
                  },
                  {
                    "reference": "urn:uuid:9d7de428-e0ba-4a0f-872f-756c08e0f241"
                  },
                  {
                    "reference": "urn:uuid:3fe4a1fb-34ec-4713-80c2-424aac1e5a8f"
                  },
                  {
                    "reference": "urn:uuid:f5c529c4-9734-4a70-bfb6-fe76f01324c1"
                  },
                  {
                    "reference": "urn:uuid:0b17098d-08e0-4e65-a152-8ad5db3428a7"
                  },
                  {
                    "reference": "urn:uuid:237020bf-9994-4906-acca-294d59c0784d"
                  },
                  {
                    "reference": "urn:uuid:b245a19d-956a-4b8c-93cd-4e2c4a817014"
                  }
                ],
                "text": {
                  "status": "generated",
                  "div": "<div xmlns=\"http://www.w3.org/1999/xhtml\"><h3>Urinalysis</h3><table class=\"hl7__eu__lab__report\"><thead><tr><th>Test</th><th>24-JAN-2019</th><th>Reference&#xA0;Range</th><th>Unit</th></tr></thead><tbody><tr><td>Glucose [Mass/volume] in Urine by Test strip</td><td><strong>2.0 H</strong></td><td>0.8 - 0</td><td>mg/dL</td></tr><tr><td>Glucose [Presence] in Urine by Test strip</td><td>++</td><td></td><td></td></tr><tr><td>Bilirubin.total [Mass/volume] in Urine by Test strip</td><td>0.4</td><td>0.2 - 1.5</td><td>mg/dL</td></tr><tr><td>Bilirubin.total [Presence] in Urine by Test strip</td><td>Finding of bilirubin in urine</td><td></td><td></td></tr><tr><td>Ketones [Mass/volume] in Urine by Test strip</td><td>1.1</td><td>0 - 4</td><td>mg/dL</td></tr><tr><td>Specific gravity of Urine by Test strip</td><td><strong>1.0 L</strong></td><td>1.01 - 1.03</td><td>{nominal}</td></tr><tr><td>pH of Urine by Test strip</td><td>5.8</td><td>4.5 - 7.5</td><td>pH</td></tr><tr><td>Protein [Mass/volume] in Urine by Test strip</td><td>82.8</td><td>0 - 150</td><td>mg/dL</td></tr><tr><td>Protein [Presence] in Urine by Test strip</td><td>Urine protein test = +</td><td></td><td></td></tr><tr><td>Nitrite [Presence] in Urine by Test strip</td><td>Urine nitrite negative</td><td></td><td></td></tr><tr><td>Hemoglobin [Presence] in Urine by Test strip</td><td>Urine blood test = negative</td><td></td><td></td></tr><tr><td>Leukocyte esterase [Presence] in Urine by Test strip</td><td>Urine leukocyte test negative</td><td></td><td></td></tr></tbody></table></div>"
                },
                "title": "Urinalysis"
              },
              {
                "code": {
                  "coding": [
                    {
                      "code": "$LP7846-1",
                      "system": "http://loinc.org",
                      "display": "Specimen information"
                    }
                  ],
                  "text": "Specimen information"
                },
                "entry": [
                  {
                    "reference": "urn:uuid:c67991cd-0c3f-4d74-9e3a-721893a7d46c"
                  },
                  {
                    "reference": "urn:uuid:9a9824ad-9d81-4b39-9ce8-8120a74bcec6"
                  },
                  {
                    "reference": "urn:uuid:55327289-d6db-44e5-a954-ceae80396fb5"
                  },
                  {
                    "reference": "urn:uuid:2ea03b45-747b-4acc-b486-1173282d7f37"
                  }
                ],
                "text": {
                  "status": "generated",
                  "div": "<div xmlns=\"http://www.w3.org/1999/xhtml\"><h3>Specimen information</h3><table class=\"hl7__eu__lab__report\"><thead><tr><th>Test</th><th>24-JAN-2019</th><th>Specimen</th><th></th></tr></thead><tbody><tr><td>Appearance of Urine</td><td>Cloudy urine</td><td>Urine</td><td></td></tr><tr><td>Odor of Urine</td><td>Urine smell ammoniacal</td><td>Urine</td><td></td></tr><tr><td>Clarity of Urine</td><td>Translucent</td><td>Urine</td><td></td></tr><tr><td>Color of Urine</td><td>Brown color</td><td>Urine</td><td></td></tr></tbody></table></div>"
                },
                "title": "Specimen information"
              }
            ],
            "title": "Laboratory Report"
          },
          {
            "text": {
              "status": "generated",
              "div": "<div xmlns=\"http://www.w3.org/1999/xhtml\"><h3>Annotation</h3><table class=\"hl7__eu__lab__report\"><tr><th>Conclusion and Recommendations based on this report and previous findings known to us</th></tr><tr><td>Renal function is mildly impaired (elevated serum creatinine). Urinalysis shows glucosuria and proteinuria with low specific gravity, suggesting possible renal tubular dysfunction or early diabetic nephropathy. Blood glucose and HbA1c are at the upper limit of normal, indicating prediabetes. Urine is cloudy and brown with ammoniacal odor, but no evidence of infection (negative nitrites/leukocytes). Recommend further evaluation of renal function and glycemic control.</td></tr></table></div>"
            },
            "code": {
              "coding": [
                {
                  "system": "http://loinc.org",
                  "code": "48767-8",
                  "display": "Annotation comment"
                }
              ]
            },
            "title": "Annotation comment"
          }
        ],
        "status": "final",
        "subject": {
          "reference": "urn:uuid:6ed1d804-59e5-44a8-98a8-fdb65fcfb6bf",
          "display": "Pelayo Casal"
        },
        "date": "2019-01-24T06:38:59Z",
        "title": "Laboratory Report",
        "confidentiality": "N"
      }
    },
    {
      "fullUrl": "urn:uuid:a15ff60b-d532-4614-8e8d-c21ebcdb0ce9",
      "resource": {
        "resourceType": "DiagnosticReport",
        "id": "a15ff60b-d532-4614-8e8d-c21ebcdb0ce9",
        "meta": {
          "profile": [
            "http://hl7.eu/fhir/laboratory/StructureDefinition/DiagnosticReport-eu-lab"
          ]
        },
        "identifier": [
          {
            "assigner": {
              "display": "HL7 Europe"
            },
            "system": "urn:oid:2.16.840.1.113883.2.51.999",
            "value": "e025225c-d877-452d-8f64-8d8a5d28b1b1"
          }
        ],
        "extension": [
          {
            "url": "http://hl7.org/fhir/5.0/StructureDefinition/extension-DiagnosticReport.composition",
            "valueReference": {
              "reference": "urn:uuid:43b8205c-d159-4a59-98ac-9bb6f354a808"
            }
          }
        ],
        "category": [
          {
            "coding": [
              {
                "code": "26436-6",
                "system": "http://loinc.org",
                "display": "Laboratory studies (set)"
              }
            ]
          }
        ],
        "specimen": [
          {
            "reference": "urn:uuid:d49bccc1-9500-45c2-ad57-070a8e992a93"
          },
          {
            "reference": "urn:uuid:93a3add3-59be-42ed-87c1-96c21be42c15"
          },
          {
            "reference": "urn:uuid:814e137a-f5b1-4fd7-81c2-5f8d26267d39"
          }
        ],
        "result": [
          {
            "reference": "urn:uuid:47ae7905-b704-406e-b81e-b7847672b879"
          },
          {
            "reference": "urn:uuid:a3ac9efc-406f-4f8c-80b7-1de5d12b502e"
          },
          {
            "reference": "urn:uuid:6defbef7-4786-4724-a767-537781649061"
          },
          {
            "reference": "urn:uuid:eb605043-879e-4c7e-b1b2-97c4e0d5d7ce"
          },
          {
            "reference": "urn:uuid:44f9dcac-db7a-4a1e-845a-6718dfc09c14"
          },
          {
            "reference": "urn:uuid:8c5ea5ec-c206-48d3-b39f-3d090f4f120f"
          },
          {
            "reference": "urn:uuid:d8ef5d55-8c28-490d-89cd-90805fd51db3"
          },
          {
            "reference": "urn:uuid:0c176919-9144-4569-a1be-70bf40c1ede3"
          },
          {
            "reference": "urn:uuid:c67991cd-0c3f-4d74-9e3a-721893a7d46c"
          },
          {
            "reference": "urn:uuid:9a9824ad-9d81-4b39-9ce8-8120a74bcec6"
          },
          {
            "reference": "urn:uuid:55327289-d6db-44e5-a954-ceae80396fb5"
          },
          {
            "reference": "urn:uuid:2ea03b45-747b-4acc-b486-1173282d7f37"
          },
          {
            "reference": "urn:uuid:3cdbfb3f-2a27-4a12-af9a-d5e19dab676d"
          },
          {
            "reference": "urn:uuid:d4d22344-43c7-4eab-a817-92b9c8d8831b"
          },
          {
            "reference": "urn:uuid:f13b17c0-8d7c-4443-80d7-2b435cc217ec"
          },
          {
            "reference": "urn:uuid:8a85fb41-de4b-4796-acc1-a2a174cf3931"
          },
          {
            "reference": "urn:uuid:6f1b7636-7151-432b-8633-bf6513ef7a24"
          },
          {
            "reference": "urn:uuid:ad32c130-c8ff-4d30-a81c-3e234fd62734"
          },
          {
            "reference": "urn:uuid:c4a346d1-23b0-4bf1-aa83-8e48cafa0243"
          },
          {
            "reference": "urn:uuid:9d7de428-e0ba-4a0f-872f-756c08e0f241"
          },
          {
            "reference": "urn:uuid:3fe4a1fb-34ec-4713-80c2-424aac1e5a8f"
          },
          {
            "reference": "urn:uuid:f5c529c4-9734-4a70-bfb6-fe76f01324c1"
          },
          {
            "reference": "urn:uuid:0b17098d-08e0-4e65-a152-8ad5db3428a7"
          },
          {
            "reference": "urn:uuid:237020bf-9994-4906-acca-294d59c0784d"
          },
          {
            "reference": "urn:uuid:b245a19d-956a-4b8c-93cd-4e2c4a817014"
          },
          {
            "reference": "urn:uuid:81156fb0-9df3-42fb-9846-cd2ade3f53e4"
          },
          {
            "reference": "urn:uuid:630d9be1-462e-431a-87e4-25dcbeeb24d6"
          },
          {
            "reference": "urn:uuid:a799f969-f6d6-4106-8233-cd71e1cfe8c2"
          },
          {
            "reference": "urn:uuid:714d92a3-fa23-490a-a2d2-660eb0a58d32"
          },
          {
            "reference": "urn:uuid:26b26cb2-134a-4914-b1f4-dcae65cc42ab"
          },
          {
            "reference": "urn:uuid:b8d0c03b-fe7b-4f9e-9dc2-11ccbc3732f9"
          },
          {
            "reference": "urn:uuid:fb014ca1-5857-402c-9e47-facb4bc85981"
          },
          {
            "reference": "urn:uuid:29f76ed0-726d-47be-8f04-6cbfcf0c0355"
          },
          {
            "reference": "urn:uuid:fc0a2b52-20fa-4633-88f4-485f03126ff2"
          }
        ],
        "status": "registered",
        "code": {
          "coding": [
            {
              "code": "11502-2",
              "system": "http://loinc.org",
              "display": "Laboratory report"
            }
          ]
        },
        "subject": {
          "reference": "urn:uuid:6ed1d804-59e5-44a8-98a8-fdb65fcfb6bf",
          "display": "Pelayo Casal"
        }
      }
    },
    {
      "fullUrl": "urn:uuid:6ed1d804-59e5-44a8-98a8-fdb65fcfb6bf",
      "resource": {
        "resourceType": "Patient",
        "id": "6ed1d804-59e5-44a8-98a8-fdb65fcfb6bf",
        "meta": {
          "security": [
            {
              "system": "http://terminology.hl7.org/CodeSystem/v3-ActReason",
              "code": "HTEST"
            },
            {
              "system": "http://terminology.hl7.org/CodeSystem/v3-ActReason",
              "code": "TRAIN"
            }
          ],
          "tag": [
            {
              "system": "https://synderai.net/fhir/CodeSystem/tags",
              "code": "synthetic",
              "display": "SYNDERAI Synthetic data"
            }
          ],
          "profile": [
            "http://hl7.eu/fhir/base/StructureDefinition/patient-eu-core"
          ]
        },
        "identifier": [
          {
            "type": {
              "coding": [
                {
                  "code": "PT",
                  "system": "http://terminology.hl7.org/CodeSystem/v2-0203"
                }
              ]
            },
            "system": "http://ec.europa.eu/identifier/eci",
            "value": "7707-510028-7"
          },
          {
            "type": {
              "coding": [
                {
                  "code": "MR",
                  "system": "http://terminology.hl7.org/CodeSystem/v2-0203"
                }
              ]
            },
            "system": "http://local.setting.eu/identifier",
            "value": "d88e82c6-df33-82d2-8538-f8b57da06491"
          }
        ],
        "name": [
          {
            "family": "Casal"
          },
          {
            "given": [
              "Pelayo"
            ]
          },
          {
            "text": "Pelayo Casal"
          }
        ],
        "address": [
          {
            "line": [
              "Callejón de Ignacio Pedrosa 67 Apt. 68 "
            ],
            "use": "home",
            "type": "physical",
            "postalCode": "35001",
            "city": "Las Palmas",
            "country": "Spain"
          }
        ],
        "telecom": [
          {
            "system": "phone",
            "value": "+34 875724898"
          }
        ],
        "extension": [
          {
            "url": "http://hl7.org/fhir/StructureDefinition/patient-nationality",
            "valueCodeableConcept": {
              "coding": [
                {
                  "code": "ES",
                  "system": "http://hl7.org/fhir/ValueSet/country"
                }
              ]
            }
          }
        ],
        "text": {
          "status": "generated",
          "div": "<div xmlns=\"http://www.w3.org/1999/xhtml\"><table class=\"hl7__ips\"><tr><td>Pelayo Casal</td><td>male</td><td>19-Apr-1940</td></tr></table></div>"
        },
        "gender": "male",
        "birthDate": "1940-04-19"
      }
    },
    {
      "fullUrl": "urn:uuid:87f3c6ef-4a75-4bf9-93ed-68e4398ddaa6",
      "resource": {
        "resourceType": "ServiceRequest",
        "id": "87f3c6ef-4a75-4bf9-93ed-68e4398ddaa6",
        "meta": {
          "profile": [
            "http://hl7.eu/fhir/laboratory/StructureDefinition/ServiceRequest-eu-lab"
          ]
        },
        "identifier": [
          {
            "system": "http://example.org",
            "value": "f2414904-65bf-4dda-9a70-2f821beaecfd"
          }
        ],
        "specimen": [
          {
            "reference": "urn:uuid:d49bccc1-9500-45c2-ad57-070a8e992a93"
          },
          {
            "reference": "urn:uuid:93a3add3-59be-42ed-87c1-96c21be42c15"
          },
          {
            "reference": "urn:uuid:814e137a-f5b1-4fd7-81c2-5f8d26267d39"
          }
        ],
        "reasonCode": [
          {
            "coding": [
              {
                "code": "431856006",
                "system": "http://snomed.info/sct",
                "display": "Chronic kidney disease stage 2"
              }
            ]
          },
          {
            "coding": [
              {
                "code": "90781000119102",
                "system": "http://snomed.info/sct",
                "display": "Microalbuminuria due to type 2 diabetes mellitus"
              }
            ]
          },
          {
            "coding": [
              {
                "code": "127013003",
                "system": "http://snomed.info/sct",
                "display": "Disorder of kidney due to diabetes mellitus"
              }
            ]
          },
          {
            "coding": [
              {
                "code": "431855005",
                "system": "http://snomed.info/sct",
                "display": "Chronic kidney disease stage 1"
              }
            ]
          },
          {
            "coding": [
              {
                "code": "64859006",
                "system": "http://snomed.info/sct",
                "display": "Osteoporosis"
              }
            ]
          },
          {
            "coding": [
              {
                "code": "414545008",
                "system": "http://snomed.info/sct",
                "display": "Ischemic heart disease"
              }
            ]
          },
          {
            "coding": [
              {
                "code": "237602007",
                "system": "http://snomed.info/sct",
                "display": "Metabolic syndrome X"
              }
            ]
          },
          {
            "coding": [
              {
                "code": "59621000",
                "system": "http://snomed.info/sct",
                "display": "Essential hypertension"
              }
            ]
          },
          {
            "coding": [
              {
                "code": "271737000",
                "system": "http://snomed.info/sct",
                "display": "Anemia"
              }
            ]
          },
          {
            "coding": [
              {
                "code": "15777000",
                "system": "http://snomed.info/sct",
                "display": "Prediabetes"
              }
            ]
          }
        ],
        "status": "active",
        "intent": "order",
        "code": {
          "coding": [
            {
              "code": "108252007",
              "system": "http://snomed.info/sct",
              "display": "Laboratory procedure"
            }
          ]
        },
        "subject": {
          "reference": "urn:uuid:6ed1d804-59e5-44a8-98a8-fdb65fcfb6bf",
          "display": "Pelayo Casal"
        },
        "requester": {
          "reference": "urn:uuid:040c2325-6cbb-44f7-9dcb-fd90363f5d53"
        }
      }
    },
    {
      "fullUrl": "urn:uuid:040c2325-6cbb-44f7-9dcb-fd90363f5d53",
      "resource": {
        "resourceType": "PractitionerRole",
        "id": "040c2325-6cbb-44f7-9dcb-fd90363f5d53",
        "meta": {
          "profile": [
            "http://hl7.eu/fhir/base/StructureDefinition/practitionerRole-eu"
          ]
        },
        "text": {
          "status": "generated",
          "div": "<div xmlns=\"http://www.w3.org/1999/xhtml\">Provider Role Id: 040c2325-6cbb-44f7-9dcb-fd90363f5d53</div>"
        },
        "organization": {
          "reference": "urn:uuid:7ef2589d-5bb2-468f-82d3-ffabb1f26978"
        }
      }
    },
    {
      "fullUrl": "urn:uuid:7ef2589d-5bb2-468f-82d3-ffabb1f26978",
      "resource": {
        "resourceType": "Organization",
        "id": "7ef2589d-5bb2-468f-82d3-ffabb1f26978",
        "meta": {
          "profile": [
            "http://hl7.eu/fhir/base/StructureDefinition/organization-eu"
          ]
        },
        "identifier": [
          {
            "assigner": {
              "display": "HL7 Europe"
            },
            "system": "urn:oid:2.16.840.1.113883.2.51.999",
            "value": "7f3d3f48-af7a-4c9e-a954-497c019b888c"
          }
        ],
        "address": [
          {
            "country": "Spain"
          }
        ],
        "text": {
          "status": "generated",
          "div": "<div xmlns=\"http://www.w3.org/1999/xhtml\">Provider Organization: Centro de Salud de Guanarteme</div>"
        },
        "name": "Centro de Salud de Guanarteme"
      }
    },
    {
      "fullUrl": "urn:uuid:d49bccc1-9500-45c2-ad57-070a8e992a93",
      "resource": {
        "resourceType": "Specimen",
        "id": "d49bccc1-9500-45c2-ad57-070a8e992a93",
        "meta": {
          "profile": [
            "http://hl7.eu/fhir/laboratory/StructureDefinition/Specimen-eu-lab"
          ]
        },
        "collection": {
          "collectedDateTime": "2019-01-24"
        },
        "text": {
          "status": "generated",
          "div": "<div xmlns=\"http://www.w3.org/1999/xhtml\"><table class=\"hl7__eu__lab__report\"><tr><th>Specimen</th><th>Collection Date</th></tr><tr><td>Acellular blood (serum or plasma) specimen</td><td><span class=\"nb\">24-Jan-2019</span></td></tr></table></div>"
        },
        "type": {
          "coding": [
            {
              "code": "122592007",
              "system": "http://snomed.info/sct",
              "display": "Acellular blood (serum or plasma) specimen"
            }
          ]
        }
      }
    },
    {
      "fullUrl": "urn:uuid:93a3add3-59be-42ed-87c1-96c21be42c15",
      "resource": {
        "resourceType": "Specimen",
        "id": "93a3add3-59be-42ed-87c1-96c21be42c15",
        "meta": {
          "profile": [
            "http://hl7.eu/fhir/laboratory/StructureDefinition/Specimen-eu-lab"
          ]
        },
        "collection": {
          "collectedDateTime": "2019-01-24"
        },
        "text": {
          "status": "generated",
          "div": "<div xmlns=\"http://www.w3.org/1999/xhtml\"><table class=\"hl7__eu__lab__report\"><tr><th>Specimen</th><th>Collection Date</th></tr><tr><td>Urine specimen</td><td><span class=\"nb\">24-Jan-2019</span></td></tr></table></div>"
        },
        "type": {
          "coding": [
            {
              "code": "122575003",
              "system": "http://snomed.info/sct",
              "display": "Urine specimen"
            }
          ]
        }
      }
    },
    {
      "fullUrl": "urn:uuid:814e137a-f5b1-4fd7-81c2-5f8d26267d39",
      "resource": {
        "resourceType": "Specimen",
        "id": "814e137a-f5b1-4fd7-81c2-5f8d26267d39",
        "meta": {
          "profile": [
            "http://hl7.eu/fhir/laboratory/StructureDefinition/Specimen-eu-lab"
          ]
        },
        "collection": {
          "collectedDateTime": "2019-01-24"
        },
        "text": {
          "status": "generated",
          "div": "<div xmlns=\"http://www.w3.org/1999/xhtml\"><table class=\"hl7__eu__lab__report\"><tr><th>Specimen</th><th>Collection Date</th></tr><tr><td>Whole blood specimen (specimen)</td><td><span class=\"nb\">24-Jan-2019</span></td></tr></table></div>"
        },
        "type": {
          "coding": [
            {
              "code": "258580003",
              "system": "http://snomed.info/sct",
              "display": "Whole blood specimen (specimen)"
            }
          ]
        }
      }
    },
    {
      "fullUrl": "urn:uuid:47ae7905-b704-406e-b81e-b7847672b879",
      "resource": {
        "resourceType": "Observation",
        "id": "47ae7905-b704-406e-b81e-b7847672b879",
        "meta": {
          "profile": [
            "http://hl7.eu/fhir/laboratory/StructureDefinition/Observation-resultslab-eu-lab"
          ]
        },
        "performer": [
          {
            "display": "The Central European Lab"
          }
        ],
        "category": [
          {
            "coding": [
              {
                "system": "http://terminology.hl7.org/CodeSystem/observation-category",
                "code": "laboratory"
              }
            ]
          }
        ],
        "code": {
          "coding": [
            {
              "code": "2345-7",
              "system": "http://loinc.org",
              "display": "Glucose [Mass/volume] in Serum or Plasma"
            }
          ],
          "text": "Glucose [Mass/volume] in Serum or Plasma"
        },
        "valueQuantity": {
          "system": "http://unitsofmeasure.org",
          "value": 98.1,
          "unit": "mg/dL",
          "code": "mg/dL"
        },
        "referenceRange": [
          {
            "low": {
              "value": 70,
              "code": "mg/dL",
              "system": "http://unitsofmeasure.org"
            }
          },
          {
            "high": {
              "value": 140,
              "code": "mg/dL",
              "system": "http://unitsofmeasure.org"
            }
          }
        ],
        "text": {
          "status": "generated",
          "div": "<div xmlns=\"http://www.w3.org/1999/xhtml\"><table class=\"hl7__eu__lab__report\"><tr><th>Test</th><th>24-Jan-2019</th><th>Reference&#xA0;Range</th><th>Unit</th></tr><tr><td>Glucose [Mass/volume] in Serum or Plasma</td><td>98.1</td><td>70 - 140</td><td></td><td>mg/dL</td></tr></table></div>"
        },
        "status": "final",
        "subject": {
          "reference": "urn:uuid:6ed1d804-59e5-44a8-98a8-fdb65fcfb6bf",
          "display": "Pelayo Casal"
        },
        "effectiveDateTime": "2019-01-24T05:38:59Z",
        "specimen": {
          "reference": "urn:uuid:d49bccc1-9500-45c2-ad57-070a8e992a93"
        }
      }
    },
    {
      "fullUrl": "urn:uuid:a3ac9efc-406f-4f8c-80b7-1de5d12b502e",
      "resource": {
        "resourceType": "Observation",
        "id": "a3ac9efc-406f-4f8c-80b7-1de5d12b502e",
        "meta": {
          "profile": [
            "http://hl7.eu/fhir/laboratory/StructureDefinition/Observation-resultslab-eu-lab"
          ]
        },
        "performer": [
          {
            "display": "The Central European Lab"
          }
        ],
        "category": [
          {
            "coding": [
              {
                "system": "http://terminology.hl7.org/CodeSystem/observation-category",
                "code": "laboratory"
              }
            ]
          }
        ],
        "code": {
          "coding": [
            {
              "code": "3094-0",
              "system": "http://loinc.org",
              "display": "Urea nitrogen [Mass/volume] in Serum or Plasma"
            }
          ],
          "text": "Urea nitrogen [Mass/volume] in Serum or Plasma"
        },
        "valueQuantity": {
          "system": "http://unitsofmeasure.org",
          "value": 16.4,
          "unit": "mg/dL",
          "code": "mg/dL"
        },
        "referenceRange": [
          {
            "low": {
              "value": 7,
              "code": "mg/dL",
              "system": "http://unitsofmeasure.org"
            }
          },
          {
            "high": {
              "value": 25,
              "code": "mg/dL",
              "system": "http://unitsofmeasure.org"
            }
          }
        ],
        "text": {
          "status": "generated",
          "div": "<div xmlns=\"http://www.w3.org/1999/xhtml\"><table class=\"hl7__eu__lab__report\"><tr><th>Test</th><th>24-Jan-2019</th><th>Reference&#xA0;Range</th><th>Unit</th></tr><tr><td>Urea nitrogen [Mass/volume] in Serum or Plasma</td><td>16.4</td><td>7 - 25</td><td></td><td>mg/dL</td></tr></table></div>"
        },
        "status": "final",
        "subject": {
          "reference": "urn:uuid:6ed1d804-59e5-44a8-98a8-fdb65fcfb6bf",
          "display": "Pelayo Casal"
        },
        "effectiveDateTime": "2019-01-24T05:38:59Z",
        "specimen": {
          "reference": "urn:uuid:d49bccc1-9500-45c2-ad57-070a8e992a93"
        }
      }
    },
    {
      "fullUrl": "urn:uuid:6defbef7-4786-4724-a767-537781649061",
      "resource": {
        "resourceType": "Observation",
        "id": "6defbef7-4786-4724-a767-537781649061",
        "meta": {
          "profile": [
            "http://hl7.eu/fhir/laboratory/StructureDefinition/Observation-resultslab-eu-lab"
          ]
        },
        "performer": [
          {
            "display": "The Central European Lab"
          }
        ],
        "category": [
          {
            "coding": [
              {
                "system": "http://terminology.hl7.org/CodeSystem/observation-category",
                "code": "laboratory"
              }
            ]
          }
        ],
        "code": {
          "coding": [
            {
              "code": "2160-0",
              "system": "http://loinc.org",
              "display": "Creatinine [Mass/volume] in Serum or Plasma"
            }
          ],
          "text": "Creatinine [Mass/volume] in Serum or Plasma"
        },
        "valueQuantity": {
          "system": "http://unitsofmeasure.org",
          "value": 1.6,
          "unit": "mg/dL",
          "code": "mg/dL"
        },
        "referenceRange": [
          {
            "low": {
              "value": 0.9,
              "code": "mg/dL",
              "system": "http://unitsofmeasure.org"
            }
          },
          {
            "high": {
              "value": 1.3,
              "code": "mg/dL",
              "system": "http://unitsofmeasure.org"
            }
          }
        ],
        "interpretation": [
          {
            "coding": [
              {
                "code": "H",
                "system": "http://terminology.hl7.org/CodeSystem/v3-ObservationInterpretation",
                "display": "High"
              }
            ]
          }
        ],
        "text": {
          "status": "generated",
          "div": "<div xmlns=\"http://www.w3.org/1999/xhtml\"><table class=\"hl7__eu__lab__report\"><tr><th>Test</th><th>24-Jan-2019</th><th>Reference&#xA0;Range</th><th>Unit</th></tr><tr><td>Creatinine [Mass/volume] in Serum or Plasma</td><td>1.6</td><td>0.9 - 1.3</td><td>H</td><td>mg/dL</td></tr></table></div>"
        },
        "status": "final",
        "subject": {
          "reference": "urn:uuid:6ed1d804-59e5-44a8-98a8-fdb65fcfb6bf",
          "display": "Pelayo Casal"
        },
        "effectiveDateTime": "2019-01-24T05:38:59Z",
        "specimen": {
          "reference": "urn:uuid:d49bccc1-9500-45c2-ad57-070a8e992a93"
        }
      }
    },
    {
      "fullUrl": "urn:uuid:eb605043-879e-4c7e-b1b2-97c4e0d5d7ce",
      "resource": {
        "resourceType": "Observation",
        "id": "eb605043-879e-4c7e-b1b2-97c4e0d5d7ce",
        "meta": {
          "profile": [
            "http://hl7.eu/fhir/laboratory/StructureDefinition/Observation-resultslab-eu-lab"
          ]
        },
        "performer": [
          {
            "display": "The Central European Lab"
          }
        ],
        "category": [
          {
            "coding": [
              {
                "system": "http://terminology.hl7.org/CodeSystem/observation-category",
                "code": "laboratory"
              }
            ]
          }
        ],
        "code": {
          "coding": [
            {
              "code": "17861-6",
              "system": "http://loinc.org",
              "display": "Calcium [Mass/volume] in Serum or Plasma"
            }
          ],
          "text": "Calcium [Mass/volume] in Serum or Plasma"
        },
        "valueQuantity": {
          "system": "http://unitsofmeasure.org",
          "value": 9.2,
          "unit": "mg/dL",
          "code": "mg/dL"
        },
        "referenceRange": [
          {
            "low": {
              "value": 8.5,
              "code": "mg/dL",
              "system": "http://unitsofmeasure.org"
            }
          },
          {
            "high": {
              "value": 10.5,
              "code": "mg/dL",
              "system": "http://unitsofmeasure.org"
            }
          }
        ],
        "text": {
          "status": "generated",
          "div": "<div xmlns=\"http://www.w3.org/1999/xhtml\"><table class=\"hl7__eu__lab__report\"><tr><th>Test</th><th>24-Jan-2019</th><th>Reference&#xA0;Range</th><th>Unit</th></tr><tr><td>Calcium [Mass/volume] in Serum or Plasma</td><td>9.2</td><td>8.5 - 10.5</td><td></td><td>mg/dL</td></tr></table></div>"
        },
        "status": "final",
        "subject": {
          "reference": "urn:uuid:6ed1d804-59e5-44a8-98a8-fdb65fcfb6bf",
          "display": "Pelayo Casal"
        },
        "effectiveDateTime": "2019-01-24T05:38:59Z",
        "specimen": {
          "reference": "urn:uuid:d49bccc1-9500-45c2-ad57-070a8e992a93"
        }
      }
    },
    {
      "fullUrl": "urn:uuid:44f9dcac-db7a-4a1e-845a-6718dfc09c14",
      "resource": {
        "resourceType": "Observation",
        "id": "44f9dcac-db7a-4a1e-845a-6718dfc09c14",
        "meta": {
          "profile": [
            "http://hl7.eu/fhir/laboratory/StructureDefinition/Observation-resultslab-eu-lab"
          ]
        },
        "performer": [
          {
            "display": "The Central European Lab"
          }
        ],
        "category": [
          {
            "coding": [
              {
                "system": "http://terminology.hl7.org/CodeSystem/observation-category",
                "code": "laboratory"
              }
            ]
          }
        ],
        "code": {
          "coding": [
            {
              "code": "2951-2",
              "system": "http://loinc.org",
              "display": "Sodium [Moles/volume] in Serum or Plasma"
            }
          ],
          "text": "Sodium [Moles/volume] in Serum or Plasma"
        },
        "valueQuantity": {
          "system": "http://unitsofmeasure.org",
          "value": 144,
          "unit": "mmol/L",
          "code": "mmol/L"
        },
        "referenceRange": [
          {
            "low": {
              "value": 135,
              "code": "mmol/L",
              "system": "http://unitsofmeasure.org"
            }
          },
          {
            "high": {
              "value": 145,
              "code": "mmol/L",
              "system": "http://unitsofmeasure.org"
            }
          }
        ],
        "text": {
          "status": "generated",
          "div": "<div xmlns=\"http://www.w3.org/1999/xhtml\"><table class=\"hl7__eu__lab__report\"><tr><th>Test</th><th>24-Jan-2019</th><th>Reference&#xA0;Range</th><th>Unit</th></tr><tr><td>Sodium [Moles/volume] in Serum or Plasma</td><td>144.0</td><td>135 - 145</td><td></td><td>mmol/L</td></tr></table></div>"
        },
        "status": "final",
        "subject": {
          "reference": "urn:uuid:6ed1d804-59e5-44a8-98a8-fdb65fcfb6bf",
          "display": "Pelayo Casal"
        },
        "effectiveDateTime": "2019-01-24T05:38:59Z",
        "specimen": {
          "reference": "urn:uuid:d49bccc1-9500-45c2-ad57-070a8e992a93"
        }
      }
    },
    {
      "fullUrl": "urn:uuid:8c5ea5ec-c206-48d3-b39f-3d090f4f120f",
      "resource": {
        "resourceType": "Observation",
        "id": "8c5ea5ec-c206-48d3-b39f-3d090f4f120f",
        "meta": {
          "profile": [
            "http://hl7.eu/fhir/laboratory/StructureDefinition/Observation-resultslab-eu-lab"
          ]
        },
        "performer": [
          {
            "display": "The Central European Lab"
          }
        ],
        "category": [
          {
            "coding": [
              {
                "system": "http://terminology.hl7.org/CodeSystem/observation-category",
                "code": "laboratory"
              }
            ]
          }
        ],
        "code": {
          "coding": [
            {
              "code": "2823-3",
              "system": "http://loinc.org",
              "display": "Potassium [Moles/volume] in Serum or Plasma"
            }
          ],
          "text": "Potassium [Moles/volume] in Serum or Plasma"
        },
        "valueQuantity": {
          "system": "http://unitsofmeasure.org",
          "value": 4.2,
          "unit": "mmol/L",
          "code": "mmol/L"
        },
        "referenceRange": [
          {
            "low": {
              "value": 3.5,
              "code": "mmol/L",
              "system": "http://unitsofmeasure.org"
            }
          },
          {
            "high": {
              "value": 5.3,
              "code": "mmol/L",
              "system": "http://unitsofmeasure.org"
            }
          }
        ],
        "text": {
          "status": "generated",
          "div": "<div xmlns=\"http://www.w3.org/1999/xhtml\"><table class=\"hl7__eu__lab__report\"><tr><th>Test</th><th>24-Jan-2019</th><th>Reference&#xA0;Range</th><th>Unit</th></tr><tr><td>Potassium [Moles/volume] in Serum or Plasma</td><td>4.2</td><td>3.5 - 5.3</td><td></td><td>mmol/L</td></tr></table></div>"
        },
        "status": "final",
        "subject": {
          "reference": "urn:uuid:6ed1d804-59e5-44a8-98a8-fdb65fcfb6bf",
          "display": "Pelayo Casal"
        },
        "effectiveDateTime": "2019-01-24T05:38:59Z",
        "specimen": {
          "reference": "urn:uuid:d49bccc1-9500-45c2-ad57-070a8e992a93"
        }
      }
    },
    {
      "fullUrl": "urn:uuid:d8ef5d55-8c28-490d-89cd-90805fd51db3",
      "resource": {
        "resourceType": "Observation",
        "id": "d8ef5d55-8c28-490d-89cd-90805fd51db3",
        "meta": {
          "profile": [
            "http://hl7.eu/fhir/laboratory/StructureDefinition/Observation-resultslab-eu-lab"
          ]
        },
        "performer": [
          {
            "display": "The Central European Lab"
          }
        ],
        "category": [
          {
            "coding": [
              {
                "system": "http://terminology.hl7.org/CodeSystem/observation-category",
                "code": "laboratory"
              }
            ]
          }
        ],
        "code": {
          "coding": [
            {
              "code": "2075-0",
              "system": "http://loinc.org",
              "display": "Chloride [Moles/volume] in Serum or Plasma"
            }
          ],
          "text": "Chloride [Moles/volume] in Serum or Plasma"
        },
        "valueQuantity": {
          "system": "http://unitsofmeasure.org",
          "value": 103.1,
          "unit": "mmol/L",
          "code": "mmol/L"
        },
        "referenceRange": [
          {
            "low": {
              "value": 98,
              "code": "mmol/L",
              "system": "http://unitsofmeasure.org"
            }
          },
          {
            "high": {
              "value": 107,
              "code": "mmol/L",
              "system": "http://unitsofmeasure.org"
            }
          }
        ],
        "text": {
          "status": "generated",
          "div": "<div xmlns=\"http://www.w3.org/1999/xhtml\"><table class=\"hl7__eu__lab__report\"><tr><th>Test</th><th>24-Jan-2019</th><th>Reference&#xA0;Range</th><th>Unit</th></tr><tr><td>Chloride [Moles/volume] in Serum or Plasma</td><td>103.1</td><td>98 - 107</td><td></td><td>mmol/L</td></tr></table></div>"
        },
        "status": "final",
        "subject": {
          "reference": "urn:uuid:6ed1d804-59e5-44a8-98a8-fdb65fcfb6bf",
          "display": "Pelayo Casal"
        },
        "effectiveDateTime": "2019-01-24T05:38:59Z",
        "specimen": {
          "reference": "urn:uuid:d49bccc1-9500-45c2-ad57-070a8e992a93"
        }
      }
    },
    {
      "fullUrl": "urn:uuid:0c176919-9144-4569-a1be-70bf40c1ede3",
      "resource": {
        "resourceType": "Observation",
        "id": "0c176919-9144-4569-a1be-70bf40c1ede3",
        "meta": {
          "profile": [
            "http://hl7.eu/fhir/laboratory/StructureDefinition/Observation-resultslab-eu-lab"
          ]
        },
        "performer": [
          {
            "display": "The Central European Lab"
          }
        ],
        "category": [
          {
            "coding": [
              {
                "system": "http://terminology.hl7.org/CodeSystem/observation-category",
                "code": "laboratory"
              }
            ]
          }
        ],
        "code": {
          "coding": [
            {
              "code": "2028-9",
              "system": "http://loinc.org",
              "display": "Carbon dioxide, total [Moles/volume] in Serum or Plasma"
            }
          ],
          "text": "Carbon dioxide, total [Moles/volume] in Serum or Plasma"
        },
        "valueQuantity": {
          "system": "http://unitsofmeasure.org",
          "value": 26.4,
          "unit": "mmol/L",
          "code": "mmol/L"
        },
        "referenceRange": [
          {
            "low": {
              "value": 22,
              "code": "mmol/L",
              "system": "http://unitsofmeasure.org"
            }
          },
          {
            "high": {
              "value": 29,
              "code": "mmol/L",
              "system": "http://unitsofmeasure.org"
            }
          }
        ],
        "text": {
          "status": "generated",
          "div": "<div xmlns=\"http://www.w3.org/1999/xhtml\"><table class=\"hl7__eu__lab__report\"><tr><th>Test</th><th>24-Jan-2019</th><th>Reference&#xA0;Range</th><th>Unit</th></tr><tr><td>Carbon dioxide, total [Moles/volume] in Serum or Plasma</td><td>26.4</td><td>22 - 29</td><td></td><td>mmol/L</td></tr></table></div>"
        },
        "status": "final",
        "subject": {
          "reference": "urn:uuid:6ed1d804-59e5-44a8-98a8-fdb65fcfb6bf",
          "display": "Pelayo Casal"
        },
        "effectiveDateTime": "2019-01-24T05:38:59Z",
        "specimen": {
          "reference": "urn:uuid:d49bccc1-9500-45c2-ad57-070a8e992a93"
        }
      }
    },
    {
      "fullUrl": "urn:uuid:c67991cd-0c3f-4d74-9e3a-721893a7d46c",
      "resource": {
        "resourceType": "Observation",
        "id": "c67991cd-0c3f-4d74-9e3a-721893a7d46c",
        "meta": {
          "profile": [
            "http://hl7.eu/fhir/laboratory/StructureDefinition/Observation-resultslab-eu-lab"
          ]
        },
        "performer": [
          {
            "display": "The Central European Lab"
          }
        ],
        "category": [
          {
            "coding": [
              {
                "system": "http://terminology.hl7.org/CodeSystem/observation-category",
                "code": "laboratory"
              }
            ]
          }
        ],
        "code": {
          "coding": [
            {
              "code": "5767-9",
              "system": "http://loinc.org",
              "display": "Appearance of Urine"
            }
          ],
          "text": "Appearance of Urine"
        },
        "text": {
          "status": "generated",
          "div": "<div xmlns=\"http://www.w3.org/1999/xhtml\"><table class=\"hl7__eu__lab__report\"><tr><th>Test</th><th>24-Jan-2019</th><th>Reference&#xA0;Range</th><th>Unit</th></tr><tr><td>Appearance of Urine</td></tr></table></div>"
        },
        "status": "final",
        "subject": {
          "reference": "urn:uuid:6ed1d804-59e5-44a8-98a8-fdb65fcfb6bf",
          "display": "Pelayo Casal"
        },
        "effectiveDateTime": "2019-01-24T05:38:59Z",
        "specimen": {
          "reference": "urn:uuid:93a3add3-59be-42ed-87c1-96c21be42c15"
        }
      }
    },
    {
      "fullUrl": "urn:uuid:9a9824ad-9d81-4b39-9ce8-8120a74bcec6",
      "resource": {
        "resourceType": "Observation",
        "id": "9a9824ad-9d81-4b39-9ce8-8120a74bcec6",
        "meta": {
          "profile": [
            "http://hl7.eu/fhir/laboratory/StructureDefinition/Observation-resultslab-eu-lab"
          ]
        },
        "performer": [
          {
            "display": "The Central European Lab"
          }
        ],
        "category": [
          {
            "coding": [
              {
                "system": "http://terminology.hl7.org/CodeSystem/observation-category",
                "code": "laboratory"
              }
            ]
          }
        ],
        "code": {
          "coding": [
            {
              "code": "34533-0",
              "system": "http://loinc.org",
              "display": "Odor of Urine"
            }
          ],
          "text": "Odor of Urine"
        },
        "text": {
          "status": "generated",
          "div": "<div xmlns=\"http://www.w3.org/1999/xhtml\"><table class=\"hl7__eu__lab__report\"><tr><th>Test</th><th>24-Jan-2019</th><th>Reference&#xA0;Range</th><th>Unit</th></tr><tr><td>Odor of Urine</td></tr></table></div>"
        },
        "status": "final",
        "subject": {
          "reference": "urn:uuid:6ed1d804-59e5-44a8-98a8-fdb65fcfb6bf",
          "display": "Pelayo Casal"
        },
        "effectiveDateTime": "2019-01-24T05:38:59Z",
        "specimen": {
          "reference": "urn:uuid:93a3add3-59be-42ed-87c1-96c21be42c15"
        }
      }
    },
    {
      "fullUrl": "urn:uuid:55327289-d6db-44e5-a954-ceae80396fb5",
      "resource": {
        "resourceType": "Observation",
        "id": "55327289-d6db-44e5-a954-ceae80396fb5",
        "meta": {
          "profile": [
            "http://hl7.eu/fhir/laboratory/StructureDefinition/Observation-resultslab-eu-lab"
          ]
        },
        "performer": [
          {
            "display": "The Central European Lab"
          }
        ],
        "category": [
          {
            "coding": [
              {
                "system": "http://terminology.hl7.org/CodeSystem/observation-category",
                "code": "laboratory"
              }
            ]
          }
        ],
        "code": {
          "coding": [
            {
              "code": "32167-9",
              "system": "http://loinc.org",
              "display": "Clarity of Urine"
            }
          ],
          "text": "Clarity of Urine"
        },
        "text": {
          "status": "generated",
          "div": "<div xmlns=\"http://www.w3.org/1999/xhtml\"><table class=\"hl7__eu__lab__report\"><tr><th>Test</th><th>24-Jan-2019</th><th>Reference&#xA0;Range</th><th>Unit</th></tr><tr><td>Clarity of Urine</td></tr></table></div>"
        },
        "status": "final",
        "subject": {
          "reference": "urn:uuid:6ed1d804-59e5-44a8-98a8-fdb65fcfb6bf",
          "display": "Pelayo Casal"
        },
        "effectiveDateTime": "2019-01-24T05:38:59Z",
        "specimen": {
          "reference": "urn:uuid:93a3add3-59be-42ed-87c1-96c21be42c15"
        }
      }
    },
    {
      "fullUrl": "urn:uuid:2ea03b45-747b-4acc-b486-1173282d7f37",
      "resource": {
        "resourceType": "Observation",
        "id": "2ea03b45-747b-4acc-b486-1173282d7f37",
        "meta": {
          "profile": [
            "http://hl7.eu/fhir/laboratory/StructureDefinition/Observation-resultslab-eu-lab"
          ]
        },
        "performer": [
          {
            "display": "The Central European Lab"
          }
        ],
        "category": [
          {
            "coding": [
              {
                "system": "http://terminology.hl7.org/CodeSystem/observation-category",
                "code": "laboratory"
              }
            ]
          }
        ],
        "code": {
          "coding": [
            {
              "code": "5778-6",
              "system": "http://loinc.org",
              "display": "Color of Urine"
            }
          ],
          "text": "Color of Urine"
        },
        "text": {
          "status": "generated",
          "div": "<div xmlns=\"http://www.w3.org/1999/xhtml\"><table class=\"hl7__eu__lab__report\"><tr><th>Test</th><th>24-Jan-2019</th><th>Reference&#xA0;Range</th><th>Unit</th></tr><tr><td>Color of Urine</td></tr></table></div>"
        },
        "status": "final",
        "subject": {
          "reference": "urn:uuid:6ed1d804-59e5-44a8-98a8-fdb65fcfb6bf",
          "display": "Pelayo Casal"
        },
        "effectiveDateTime": "2019-01-24T05:38:59Z",
        "specimen": {
          "reference": "urn:uuid:93a3add3-59be-42ed-87c1-96c21be42c15"
        }
      }
    },
    {
      "fullUrl": "urn:uuid:3cdbfb3f-2a27-4a12-af9a-d5e19dab676d",
      "resource": {
        "resourceType": "Observation",
        "id": "3cdbfb3f-2a27-4a12-af9a-d5e19dab676d",
        "meta": {
          "profile": [
            "http://hl7.eu/fhir/laboratory/StructureDefinition/Observation-resultslab-eu-lab"
          ]
        },
        "performer": [
          {
            "display": "The Central European Lab"
          }
        ],
        "category": [
          {
            "coding": [
              {
                "system": "http://terminology.hl7.org/CodeSystem/observation-category",
                "code": "laboratory"
              }
            ]
          }
        ],
        "code": {
          "coding": [
            {
              "code": "5792-7",
              "system": "http://loinc.org",
              "display": "Glucose [Mass/volume] in Urine by Test strip"
            }
          ],
          "text": "Glucose [Mass/volume] in Urine by Test strip"
        },
        "valueQuantity": {
          "system": "http://unitsofmeasure.org",
          "value": 2,
          "unit": "mg/dL",
          "code": "mg/dL"
        },
        "referenceRange": [
          {
            "low": {
              "value": 0.8,
              "code": "mg/dL",
              "system": "http://unitsofmeasure.org"
            }
          },
          {
            "high": {
              "value": 0,
              "code": "mg/dL",
              "system": "http://unitsofmeasure.org"
            }
          }
        ],
        "interpretation": [
          {
            "coding": [
              {
                "code": "H",
                "system": "http://terminology.hl7.org/CodeSystem/v3-ObservationInterpretation",
                "display": "High"
              }
            ]
          }
        ],
        "text": {
          "status": "generated",
          "div": "<div xmlns=\"http://www.w3.org/1999/xhtml\"><table class=\"hl7__eu__lab__report\"><tr><th>Test</th><th>24-Jan-2019</th><th>Reference&#xA0;Range</th><th>Unit</th></tr><tr><td>Glucose [Mass/volume] in Urine by Test strip</td><td>2.0</td><td>0.8 - 0</td><td>H</td><td>mg/dL</td></tr></table></div>"
        },
        "status": "final",
        "subject": {
          "reference": "urn:uuid:6ed1d804-59e5-44a8-98a8-fdb65fcfb6bf",
          "display": "Pelayo Casal"
        },
        "effectiveDateTime": "2019-01-24T05:38:59Z",
        "specimen": {
          "reference": "urn:uuid:93a3add3-59be-42ed-87c1-96c21be42c15"
        }
      }
    },
    {
      "fullUrl": "urn:uuid:d4d22344-43c7-4eab-a817-92b9c8d8831b",
      "resource": {
        "resourceType": "Observation",
        "id": "d4d22344-43c7-4eab-a817-92b9c8d8831b",
        "meta": {
          "profile": [
            "http://hl7.eu/fhir/laboratory/StructureDefinition/Observation-resultslab-eu-lab"
          ]
        },
        "performer": [
          {
            "display": "The Central European Lab"
          }
        ],
        "category": [
          {
            "coding": [
              {
                "system": "http://terminology.hl7.org/CodeSystem/observation-category",
                "code": "laboratory"
              }
            ]
          }
        ],
        "code": {
          "coding": [
            {
              "code": "25428-4",
              "system": "http://loinc.org",
              "display": "Glucose [Presence] in Urine by Test strip"
            }
          ],
          "text": "Glucose [Presence] in Urine by Test strip"
        },
        "text": {
          "status": "generated",
          "div": "<div xmlns=\"http://www.w3.org/1999/xhtml\"><table class=\"hl7__eu__lab__report\"><tr><th>Test</th><th>24-Jan-2019</th><th>Reference&#xA0;Range</th><th>Unit</th></tr><tr><td>Glucose [Presence] in Urine by Test strip</td></tr></table></div>"
        },
        "status": "final",
        "subject": {
          "reference": "urn:uuid:6ed1d804-59e5-44a8-98a8-fdb65fcfb6bf",
          "display": "Pelayo Casal"
        },
        "effectiveDateTime": "2019-01-24T05:38:59Z",
        "specimen": {
          "reference": "urn:uuid:93a3add3-59be-42ed-87c1-96c21be42c15"
        }
      }
    },
    {
      "fullUrl": "urn:uuid:f13b17c0-8d7c-4443-80d7-2b435cc217ec",
      "resource": {
        "resourceType": "Observation",
        "id": "f13b17c0-8d7c-4443-80d7-2b435cc217ec",
        "meta": {
          "profile": [
            "http://hl7.eu/fhir/laboratory/StructureDefinition/Observation-resultslab-eu-lab"
          ]
        },
        "performer": [
          {
            "display": "The Central European Lab"
          }
        ],
        "category": [
          {
            "coding": [
              {
                "system": "http://terminology.hl7.org/CodeSystem/observation-category",
                "code": "laboratory"
              }
            ]
          }
        ],
        "code": {
          "coding": [
            {
              "code": "20505-4",
              "system": "http://loinc.org",
              "display": "Bilirubin.total [Mass/volume] in Urine by Test strip"
            }
          ],
          "text": "Bilirubin.total [Mass/volume] in Urine by Test strip"
        },
        "valueQuantity": {
          "system": "http://unitsofmeasure.org",
          "value": 0.4,
          "unit": "mg/dL",
          "code": "mg/dL"
        },
        "referenceRange": [
          {
            "low": {
              "value": 0.2,
              "code": "mg/dL",
              "system": "http://unitsofmeasure.org"
            }
          },
          {
            "high": {
              "value": 1.5,
              "code": "mg/dL",
              "system": "http://unitsofmeasure.org"
            }
          }
        ],
        "text": {
          "status": "generated",
          "div": "<div xmlns=\"http://www.w3.org/1999/xhtml\"><table class=\"hl7__eu__lab__report\"><tr><th>Test</th><th>24-Jan-2019</th><th>Reference&#xA0;Range</th><th>Unit</th></tr><tr><td>Bilirubin.total [Mass/volume] in Urine by Test strip</td><td>0.4</td><td>0.2 - 1.5</td><td></td><td>mg/dL</td></tr></table></div>"
        },
        "status": "final",
        "subject": {
          "reference": "urn:uuid:6ed1d804-59e5-44a8-98a8-fdb65fcfb6bf",
          "display": "Pelayo Casal"
        },
        "effectiveDateTime": "2019-01-24T05:38:59Z",
        "specimen": {
          "reference": "urn:uuid:93a3add3-59be-42ed-87c1-96c21be42c15"
        }
      }
    },
    {
      "fullUrl": "urn:uuid:8a85fb41-de4b-4796-acc1-a2a174cf3931",
      "resource": {
        "resourceType": "Observation",
        "id": "8a85fb41-de4b-4796-acc1-a2a174cf3931",
        "meta": {
          "profile": [
            "http://hl7.eu/fhir/laboratory/StructureDefinition/Observation-resultslab-eu-lab"
          ]
        },
        "performer": [
          {
            "display": "The Central European Lab"
          }
        ],
        "category": [
          {
            "coding": [
              {
                "system": "http://terminology.hl7.org/CodeSystem/observation-category",
                "code": "laboratory"
              }
            ]
          }
        ],
        "code": {
          "coding": [
            {
              "code": "5770-3",
              "system": "http://loinc.org",
              "display": "Bilirubin.total [Presence] in Urine by Test strip"
            }
          ],
          "text": "Bilirubin.total [Presence] in Urine by Test strip"
        },
        "text": {
          "status": "generated",
          "div": "<div xmlns=\"http://www.w3.org/1999/xhtml\"><table class=\"hl7__eu__lab__report\"><tr><th>Test</th><th>24-Jan-2019</th><th>Reference&#xA0;Range</th><th>Unit</th></tr><tr><td>Bilirubin.total [Presence] in Urine by Test strip</td></tr></table></div>"
        },
        "status": "final",
        "subject": {
          "reference": "urn:uuid:6ed1d804-59e5-44a8-98a8-fdb65fcfb6bf",
          "display": "Pelayo Casal"
        },
        "effectiveDateTime": "2019-01-24T05:38:59Z",
        "specimen": {
          "reference": "urn:uuid:93a3add3-59be-42ed-87c1-96c21be42c15"
        }
      }
    },
    {
      "fullUrl": "urn:uuid:6f1b7636-7151-432b-8633-bf6513ef7a24",
      "resource": {
        "resourceType": "Observation",
        "id": "6f1b7636-7151-432b-8633-bf6513ef7a24",
        "meta": {
          "profile": [
            "http://hl7.eu/fhir/laboratory/StructureDefinition/Observation-resultslab-eu-lab"
          ]
        },
        "performer": [
          {
            "display": "The Central European Lab"
          }
        ],
        "category": [
          {
            "coding": [
              {
                "system": "http://terminology.hl7.org/CodeSystem/observation-category",
                "code": "laboratory"
              }
            ]
          }
        ],
        "code": {
          "coding": [
            {
              "code": "5797-6",
              "system": "http://loinc.org",
              "display": "Ketones [Mass/volume] in Urine by Test strip"
            }
          ],
          "text": "Ketones [Mass/volume] in Urine by Test strip"
        },
        "valueQuantity": {
          "system": "http://unitsofmeasure.org",
          "value": 1.1,
          "unit": "mg/dL",
          "code": "mg/dL"
        },
        "referenceRange": [
          {
            "low": {
              "value": 0,
              "code": "mg/dL",
              "system": "http://unitsofmeasure.org"
            }
          },
          {
            "high": {
              "value": 4,
              "code": "mg/dL",
              "system": "http://unitsofmeasure.org"
            }
          }
        ],
        "text": {
          "status": "generated",
          "div": "<div xmlns=\"http://www.w3.org/1999/xhtml\"><table class=\"hl7__eu__lab__report\"><tr><th>Test</th><th>24-Jan-2019</th><th>Reference&#xA0;Range</th><th>Unit</th></tr><tr><td>Ketones [Mass/volume] in Urine by Test strip</td><td>1.1</td><td>0 - 4</td><td></td><td>mg/dL</td></tr></table></div>"
        },
        "status": "final",
        "subject": {
          "reference": "urn:uuid:6ed1d804-59e5-44a8-98a8-fdb65fcfb6bf",
          "display": "Pelayo Casal"
        },
        "effectiveDateTime": "2019-01-24T05:38:59Z",
        "specimen": {
          "reference": "urn:uuid:93a3add3-59be-42ed-87c1-96c21be42c15"
        }
      }
    },
    {
      "fullUrl": "urn:uuid:ad32c130-c8ff-4d30-a81c-3e234fd62734",
      "resource": {
        "resourceType": "Observation",
        "id": "ad32c130-c8ff-4d30-a81c-3e234fd62734",
        "meta": {
          "profile": [
            "http://hl7.eu/fhir/laboratory/StructureDefinition/Observation-resultslab-eu-lab"
          ]
        },
        "performer": [
          {
            "display": "The Central European Lab"
          }
        ],
        "category": [
          {
            "coding": [
              {
                "system": "http://terminology.hl7.org/CodeSystem/observation-category",
                "code": "laboratory"
              }
            ]
          }
        ],
        "code": {
          "coding": [
            {
              "code": "2514-8",
              "system": "http://loinc.org",
              "display": "Ketones [Presence] in Urine by Test strip"
            }
          ],
          "text": "Ketones [Presence] in Urine by Test strip"
        },
        "text": {
          "status": "generated",
          "div": "<div xmlns=\"http://www.w3.org/1999/xhtml\"><table class=\"hl7__eu__lab__report\"><tr><th>Test</th><th>24-Jan-2019</th><th>Reference&#xA0;Range</th><th>Unit</th></tr><tr><td>Ketones [Presence] in Urine by Test strip</td></tr></table></div>"
        },
        "status": "final",
        "subject": {
          "reference": "urn:uuid:6ed1d804-59e5-44a8-98a8-fdb65fcfb6bf",
          "display": "Pelayo Casal"
        },
        "effectiveDateTime": "2019-01-24T05:38:59Z",
        "specimen": {
          "reference": "urn:uuid:93a3add3-59be-42ed-87c1-96c21be42c15"
        }
      }
    },
    {
      "fullUrl": "urn:uuid:c4a346d1-23b0-4bf1-aa83-8e48cafa0243",
      "resource": {
        "resourceType": "Observation",
        "id": "c4a346d1-23b0-4bf1-aa83-8e48cafa0243",
        "meta": {
          "profile": [
            "http://hl7.eu/fhir/laboratory/StructureDefinition/Observation-resultslab-eu-lab"
          ]
        },
        "performer": [
          {
            "display": "The Central European Lab"
          }
        ],
        "category": [
          {
            "coding": [
              {
                "system": "http://terminology.hl7.org/CodeSystem/observation-category",
                "code": "laboratory"
              }
            ]
          }
        ],
        "code": {
          "coding": [
            {
              "code": "5811-5",
              "system": "http://loinc.org",
              "display": "Specific gravity of Urine by Test strip"
            }
          ],
          "text": "Specific gravity of Urine by Test strip"
        },
        "valueQuantity": {
          "system": "http://unitsofmeasure.org",
          "value": 1,
          "unit": "{nominal}",
          "code": "{nominal}"
        },
        "referenceRange": [
          {
            "low": {
              "value": 1.01,
              "code": "g/mL",
              "system": "http://unitsofmeasure.org"
            }
          },
          {
            "high": {
              "value": 1.03,
              "code": "g/mL",
              "system": "http://unitsofmeasure.org"
            }
          }
        ],
        "interpretation": [
          {
            "coding": [
              {
                "code": "L",
                "system": "http://terminology.hl7.org/CodeSystem/v3-ObservationInterpretation",
                "display": "Low"
              }
            ]
          }
        ],
        "text": {
          "status": "generated",
          "div": "<div xmlns=\"http://www.w3.org/1999/xhtml\"><table class=\"hl7__eu__lab__report\"><tr><th>Test</th><th>24-Jan-2019</th><th>Reference&#xA0;Range</th><th>Unit</th></tr><tr><td>Specific gravity of Urine by Test strip</td><td>1.0</td><td>1.01 - 1.03</td><td>L</td><td>{nominal}</td></tr></table></div>"
        },
        "status": "final",
        "subject": {
          "reference": "urn:uuid:6ed1d804-59e5-44a8-98a8-fdb65fcfb6bf",
          "display": "Pelayo Casal"
        },
        "effectiveDateTime": "2019-01-24T05:38:59Z",
        "specimen": {
          "reference": "urn:uuid:93a3add3-59be-42ed-87c1-96c21be42c15"
        }
      }
    },
    {
      "fullUrl": "urn:uuid:9d7de428-e0ba-4a0f-872f-756c08e0f241",
      "resource": {
        "resourceType": "Observation",
        "id": "9d7de428-e0ba-4a0f-872f-756c08e0f241",
        "meta": {
          "profile": [
            "http://hl7.eu/fhir/laboratory/StructureDefinition/Observation-resultslab-eu-lab"
          ]
        },
        "performer": [
          {
            "display": "The Central European Lab"
          }
        ],
        "category": [
          {
            "coding": [
              {
                "system": "http://terminology.hl7.org/CodeSystem/observation-category",
                "code": "laboratory"
              }
            ]
          }
        ],
        "code": {
          "coding": [
            {
              "code": "5803-2",
              "system": "http://loinc.org",
              "display": "pH of Urine by Test strip"
            }
          ],
          "text": "pH of Urine by Test strip"
        },
        "valueQuantity": {
          "system": "http://unitsofmeasure.org",
          "value": 5.8,
          "unit": "pH",
          "code": "pH"
        },
        "referenceRange": [
          {
            "low": {
              "value": 4.5,
              "code": "pH",
              "system": "http://unitsofmeasure.org"
            }
          },
          {
            "high": {
              "value": 7.5,
              "code": "pH",
              "system": "http://unitsofmeasure.org"
            }
          }
        ],
        "text": {
          "status": "generated",
          "div": "<div xmlns=\"http://www.w3.org/1999/xhtml\"><table class=\"hl7__eu__lab__report\"><tr><th>Test</th><th>24-Jan-2019</th><th>Reference&#xA0;Range</th><th>Unit</th></tr><tr><td>pH of Urine by Test strip</td><td>5.8</td><td>4.5 - 7.5</td><td></td><td>pH</td></tr></table></div>"
        },
        "status": "final",
        "subject": {
          "reference": "urn:uuid:6ed1d804-59e5-44a8-98a8-fdb65fcfb6bf",
          "display": "Pelayo Casal"
        },
        "effectiveDateTime": "2019-01-24T05:38:59Z",
        "specimen": {
          "reference": "urn:uuid:93a3add3-59be-42ed-87c1-96c21be42c15"
        }
      }
    },
    {
      "fullUrl": "urn:uuid:3fe4a1fb-34ec-4713-80c2-424aac1e5a8f",
      "resource": {
        "resourceType": "Observation",
        "id": "3fe4a1fb-34ec-4713-80c2-424aac1e5a8f",
        "meta": {
          "profile": [
            "http://hl7.eu/fhir/laboratory/StructureDefinition/Observation-resultslab-eu-lab"
          ]
        },
        "performer": [
          {
            "display": "The Central European Lab"
          }
        ],
        "category": [
          {
            "coding": [
              {
                "system": "http://terminology.hl7.org/CodeSystem/observation-category",
                "code": "laboratory"
              }
            ]
          }
        ],
        "code": {
          "coding": [
            {
              "code": "5804-0",
              "system": "http://loinc.org",
              "display": "Protein [Mass/volume] in Urine by Test strip"
            }
          ],
          "text": "Protein [Mass/volume] in Urine by Test strip"
        },
        "valueQuantity": {
          "system": "http://unitsofmeasure.org",
          "value": 82.8,
          "unit": "mg/dL",
          "code": "mg/dL"
        },
        "referenceRange": [
          {
            "low": {
              "value": 0,
              "code": "mg/dL",
              "system": "http://unitsofmeasure.org"
            }
          },
          {
            "high": {
              "value": 150,
              "code": "mg/dL",
              "system": "http://unitsofmeasure.org"
            }
          }
        ],
        "text": {
          "status": "generated",
          "div": "<div xmlns=\"http://www.w3.org/1999/xhtml\"><table class=\"hl7__eu__lab__report\"><tr><th>Test</th><th>24-Jan-2019</th><th>Reference&#xA0;Range</th><th>Unit</th></tr><tr><td>Protein [Mass/volume] in Urine by Test strip</td><td>82.8</td><td>0 - 150</td><td></td><td>mg/dL</td></tr></table></div>"
        },
        "status": "final",
        "subject": {
          "reference": "urn:uuid:6ed1d804-59e5-44a8-98a8-fdb65fcfb6bf",
          "display": "Pelayo Casal"
        },
        "effectiveDateTime": "2019-01-24T05:38:59Z",
        "specimen": {
          "reference": "urn:uuid:93a3add3-59be-42ed-87c1-96c21be42c15"
        }
      }
    },
    {
      "fullUrl": "urn:uuid:f5c529c4-9734-4a70-bfb6-fe76f01324c1",
      "resource": {
        "resourceType": "Observation",
        "id": "f5c529c4-9734-4a70-bfb6-fe76f01324c1",
        "meta": {
          "profile": [
            "http://hl7.eu/fhir/laboratory/StructureDefinition/Observation-resultslab-eu-lab"
          ]
        },
        "performer": [
          {
            "display": "The Central European Lab"
          }
        ],
        "category": [
          {
            "coding": [
              {
                "system": "http://terminology.hl7.org/CodeSystem/observation-category",
                "code": "laboratory"
              }
            ]
          }
        ],
        "code": {
          "coding": [
            {
              "code": "20454-5",
              "system": "http://loinc.org",
              "display": "Protein [Presence] in Urine by Test strip"
            }
          ],
          "text": "Protein [Presence] in Urine by Test strip"
        },
        "text": {
          "status": "generated",
          "div": "<div xmlns=\"http://www.w3.org/1999/xhtml\"><table class=\"hl7__eu__lab__report\"><tr><th>Test</th><th>24-Jan-2019</th><th>Reference&#xA0;Range</th><th>Unit</th></tr><tr><td>Protein [Presence] in Urine by Test strip</td></tr></table></div>"
        },
        "status": "final",
        "subject": {
          "reference": "urn:uuid:6ed1d804-59e5-44a8-98a8-fdb65fcfb6bf",
          "display": "Pelayo Casal"
        },
        "effectiveDateTime": "2019-01-24T05:38:59Z",
        "specimen": {
          "reference": "urn:uuid:93a3add3-59be-42ed-87c1-96c21be42c15"
        }
      }
    },
    {
      "fullUrl": "urn:uuid:0b17098d-08e0-4e65-a152-8ad5db3428a7",
      "resource": {
        "resourceType": "Observation",
        "id": "0b17098d-08e0-4e65-a152-8ad5db3428a7",
        "meta": {
          "profile": [
            "http://hl7.eu/fhir/laboratory/StructureDefinition/Observation-resultslab-eu-lab"
          ]
        },
        "performer": [
          {
            "display": "The Central European Lab"
          }
        ],
        "category": [
          {
            "coding": [
              {
                "system": "http://terminology.hl7.org/CodeSystem/observation-category",
                "code": "laboratory"
              }
            ]
          }
        ],
        "code": {
          "coding": [
            {
              "code": "5802-4",
              "system": "http://loinc.org",
              "display": "Nitrite [Presence] in Urine by Test strip"
            }
          ],
          "text": "Nitrite [Presence] in Urine by Test strip"
        },
        "text": {
          "status": "generated",
          "div": "<div xmlns=\"http://www.w3.org/1999/xhtml\"><table class=\"hl7__eu__lab__report\"><tr><th>Test</th><th>24-Jan-2019</th><th>Reference&#xA0;Range</th><th>Unit</th></tr><tr><td>Nitrite [Presence] in Urine by Test strip</td></tr></table></div>"
        },
        "status": "final",
        "subject": {
          "reference": "urn:uuid:6ed1d804-59e5-44a8-98a8-fdb65fcfb6bf",
          "display": "Pelayo Casal"
        },
        "effectiveDateTime": "2019-01-24T05:38:59Z",
        "specimen": {
          "reference": "urn:uuid:93a3add3-59be-42ed-87c1-96c21be42c15"
        }
      }
    },
    {
      "fullUrl": "urn:uuid:237020bf-9994-4906-acca-294d59c0784d",
      "resource": {
        "resourceType": "Observation",
        "id": "237020bf-9994-4906-acca-294d59c0784d",
        "meta": {
          "profile": [
            "http://hl7.eu/fhir/laboratory/StructureDefinition/Observation-resultslab-eu-lab"
          ]
        },
        "performer": [
          {
            "display": "The Central European Lab"
          }
        ],
        "category": [
          {
            "coding": [
              {
                "system": "http://terminology.hl7.org/CodeSystem/observation-category",
                "code": "laboratory"
              }
            ]
          }
        ],
        "code": {
          "coding": [
            {
              "code": "5794-3",
              "system": "http://loinc.org",
              "display": "Hemoglobin [Presence] in Urine by Test strip"
            }
          ],
          "text": "Hemoglobin [Presence] in Urine by Test strip"
        },
        "text": {
          "status": "generated",
          "div": "<div xmlns=\"http://www.w3.org/1999/xhtml\"><table class=\"hl7__eu__lab__report\"><tr><th>Test</th><th>24-Jan-2019</th><th>Reference&#xA0;Range</th><th>Unit</th></tr><tr><td>Hemoglobin [Presence] in Urine by Test strip</td></tr></table></div>"
        },
        "status": "final",
        "subject": {
          "reference": "urn:uuid:6ed1d804-59e5-44a8-98a8-fdb65fcfb6bf",
          "display": "Pelayo Casal"
        },
        "effectiveDateTime": "2019-01-24T05:38:59Z",
        "specimen": {
          "reference": "urn:uuid:93a3add3-59be-42ed-87c1-96c21be42c15"
        }
      }
    },
    {
      "fullUrl": "urn:uuid:b245a19d-956a-4b8c-93cd-4e2c4a817014",
      "resource": {
        "resourceType": "Observation",
        "id": "b245a19d-956a-4b8c-93cd-4e2c4a817014",
        "meta": {
          "profile": [
            "http://hl7.eu/fhir/laboratory/StructureDefinition/Observation-resultslab-eu-lab"
          ]
        },
        "performer": [
          {
            "display": "The Central European Lab"
          }
        ],
        "category": [
          {
            "coding": [
              {
                "system": "http://terminology.hl7.org/CodeSystem/observation-category",
                "code": "laboratory"
              }
            ]
          }
        ],
        "code": {
          "coding": [
            {
              "code": "5799-2",
              "system": "http://loinc.org",
              "display": "Leukocyte esterase [Presence] in Urine by Test strip"
            }
          ],
          "text": "Leukocyte esterase [Presence] in Urine by Test strip"
        },
        "text": {
          "status": "generated",
          "div": "<div xmlns=\"http://www.w3.org/1999/xhtml\"><table class=\"hl7__eu__lab__report\"><tr><th>Test</th><th>24-Jan-2019</th><th>Reference&#xA0;Range</th><th>Unit</th></tr><tr><td>Leukocyte esterase [Presence] in Urine by Test strip</td></tr></table></div>"
        },
        "status": "final",
        "subject": {
          "reference": "urn:uuid:6ed1d804-59e5-44a8-98a8-fdb65fcfb6bf",
          "display": "Pelayo Casal"
        },
        "effectiveDateTime": "2019-01-24T05:38:59Z",
        "specimen": {
          "reference": "urn:uuid:93a3add3-59be-42ed-87c1-96c21be42c15"
        }
      }
    },
    {
      "fullUrl": "urn:uuid:81156fb0-9df3-42fb-9846-cd2ade3f53e4",
      "resource": {
        "resourceType": "Observation",
        "id": "81156fb0-9df3-42fb-9846-cd2ade3f53e4",
        "meta": {
          "profile": [
            "http://hl7.eu/fhir/laboratory/StructureDefinition/Observation-resultslab-eu-lab"
          ]
        },
        "performer": [
          {
            "display": "The Central European Lab"
          }
        ],
        "category": [
          {
            "coding": [
              {
                "system": "http://terminology.hl7.org/CodeSystem/observation-category",
                "code": "laboratory"
              }
            ]
          }
        ],
        "code": {
          "coding": [
            {
              "code": "4548-4",
              "system": "http://loinc.org",
              "display": "Hemoglobin A1c/Hemoglobin.total in Blood"
            }
          ],
          "text": "Hemoglobin A1c/Hemoglobin.total in Blood"
        },
        "valueQuantity": {
          "system": "http://unitsofmeasure.org",
          "value": 6.4,
          "unit": "%",
          "code": "%"
        },
        "referenceRange": [
          {
            "low": {
              "value": 4.5,
              "code": "%",
              "system": "http://unitsofmeasure.org"
            }
          },
          {
            "high": {
              "value": 6.4,
              "code": "%",
              "system": "http://unitsofmeasure.org"
            }
          }
        ],
        "text": {
          "status": "generated",
          "div": "<div xmlns=\"http://www.w3.org/1999/xhtml\"><table class=\"hl7__eu__lab__report\"><tr><th>Test</th><th>24-Jan-2019</th><th>Reference&#xA0;Range</th><th>Unit</th></tr><tr><td>Hemoglobin A1c/Hemoglobin.total in Blood</td><td>6.4</td><td>4.5 - 6.4</td><td></td><td>%</td></tr></table></div>"
        },
        "status": "final",
        "subject": {
          "reference": "urn:uuid:6ed1d804-59e5-44a8-98a8-fdb65fcfb6bf",
          "display": "Pelayo Casal"
        },
        "effectiveDateTime": "2019-01-24T05:38:59Z",
        "specimen": {
          "reference": "urn:uuid:814e137a-f5b1-4fd7-81c2-5f8d26267d39"
        }
      }
    },
    {
      "fullUrl": "urn:uuid:630d9be1-462e-431a-87e4-25dcbeeb24d6",
      "resource": {
        "resourceType": "Observation",
        "id": "630d9be1-462e-431a-87e4-25dcbeeb24d6",
        "meta": {
          "profile": [
            "http://hl7.eu/fhir/laboratory/StructureDefinition/Observation-resultslab-eu-lab"
          ]
        },
        "performer": [
          {
            "display": "The Central European Lab"
          }
        ],
        "category": [
          {
            "coding": [
              {
                "system": "http://terminology.hl7.org/CodeSystem/observation-category",
                "code": "laboratory"
              }
            ]
          }
        ],
        "code": {
          "coding": [
            {
              "code": "2339-0",
              "system": "http://loinc.org",
              "display": "Glucose [Mass/volume] in Blood"
            }
          ],
          "text": "Glucose [Mass/volume] in Blood"
        },
        "valueQuantity": {
          "system": "http://unitsofmeasure.org",
          "value": 98.1,
          "unit": "mg/dL",
          "code": "mg/dL"
        },
        "referenceRange": [
          {
            "low": {
              "value": 70,
              "code": "mg/dL",
              "system": "http://unitsofmeasure.org"
            }
          },
          {
            "high": {
              "value": 140,
              "code": "mg/dL",
              "system": "http://unitsofmeasure.org"
            }
          }
        ],
        "text": {
          "status": "generated",
          "div": "<div xmlns=\"http://www.w3.org/1999/xhtml\"><table class=\"hl7__eu__lab__report\"><tr><th>Test</th><th>24-Jan-2019</th><th>Reference&#xA0;Range</th><th>Unit</th></tr><tr><td>Glucose [Mass/volume] in Blood</td><td>98.1</td><td>70 - 140</td><td></td><td>mg/dL</td></tr></table></div>"
        },
        "status": "final",
        "subject": {
          "reference": "urn:uuid:6ed1d804-59e5-44a8-98a8-fdb65fcfb6bf",
          "display": "Pelayo Casal"
        },
        "effectiveDateTime": "2019-01-24T05:38:59Z",
        "specimen": {
          "reference": "urn:uuid:814e137a-f5b1-4fd7-81c2-5f8d26267d39"
        }
      }
    },
    {
      "fullUrl": "urn:uuid:a799f969-f6d6-4106-8233-cd71e1cfe8c2",
      "resource": {
        "resourceType": "Observation",
        "id": "a799f969-f6d6-4106-8233-cd71e1cfe8c2",
        "meta": {
          "profile": [
            "http://hl7.eu/fhir/laboratory/StructureDefinition/Observation-resultslab-eu-lab"
          ]
        },
        "performer": [
          {
            "display": "The Central European Lab"
          }
        ],
        "category": [
          {
            "coding": [
              {
                "system": "http://terminology.hl7.org/CodeSystem/observation-category",
                "code": "laboratory"
              }
            ]
          }
        ],
        "code": {
          "coding": [
            {
              "code": "6299-2",
              "system": "http://loinc.org",
              "display": "Urea nitrogen [Mass/volume] in Blood"
            }
          ],
          "text": "Urea nitrogen [Mass/volume] in Blood"
        },
        "valueQuantity": {
          "system": "http://unitsofmeasure.org",
          "value": 16.4,
          "unit": "mg/dL",
          "code": "mg/dL"
        },
        "referenceRange": [
          {
            "low": {
              "value": 7,
              "code": "mg/dL",
              "system": "http://unitsofmeasure.org"
            }
          },
          {
            "high": {
              "value": 25,
              "code": "mg/dL",
              "system": "http://unitsofmeasure.org"
            }
          }
        ],
        "text": {
          "status": "generated",
          "div": "<div xmlns=\"http://www.w3.org/1999/xhtml\"><table class=\"hl7__eu__lab__report\"><tr><th>Test</th><th>24-Jan-2019</th><th>Reference&#xA0;Range</th><th>Unit</th></tr><tr><td>Urea nitrogen [Mass/volume] in Blood</td><td>16.4</td><td>7 - 25</td><td></td><td>mg/dL</td></tr></table></div>"
        },
        "status": "final",
        "subject": {
          "reference": "urn:uuid:6ed1d804-59e5-44a8-98a8-fdb65fcfb6bf",
          "display": "Pelayo Casal"
        },
        "effectiveDateTime": "2019-01-24T05:38:59Z",
        "specimen": {
          "reference": "urn:uuid:814e137a-f5b1-4fd7-81c2-5f8d26267d39"
        }
      }
    },
    {
      "fullUrl": "urn:uuid:714d92a3-fa23-490a-a2d2-660eb0a58d32",
      "resource": {
        "resourceType": "Observation",
        "id": "714d92a3-fa23-490a-a2d2-660eb0a58d32",
        "meta": {
          "profile": [
            "http://hl7.eu/fhir/laboratory/StructureDefinition/Observation-resultslab-eu-lab"
          ]
        },
        "performer": [
          {
            "display": "The Central European Lab"
          }
        ],
        "category": [
          {
            "coding": [
              {
                "system": "http://terminology.hl7.org/CodeSystem/observation-category",
                "code": "laboratory"
              }
            ]
          }
        ],
        "code": {
          "coding": [
            {
              "code": "38483-4",
              "system": "http://loinc.org",
              "display": "Creatinine [Mass/volume] in Blood"
            }
          ],
          "text": "Creatinine [Mass/volume] in Blood"
        },
        "valueQuantity": {
          "system": "http://unitsofmeasure.org",
          "value": 1,
          "unit": "mg/dL",
          "code": "mg/dL"
        },
        "referenceRange": [
          {
            "low": {
              "value": 0.9,
              "code": "mg/dL",
              "system": "http://unitsofmeasure.org"
            }
          },
          {
            "high": {
              "value": 1.3,
              "code": "mg/dL",
              "system": "http://unitsofmeasure.org"
            }
          }
        ],
        "text": {
          "status": "generated",
          "div": "<div xmlns=\"http://www.w3.org/1999/xhtml\"><table class=\"hl7__eu__lab__report\"><tr><th>Test</th><th>24-Jan-2019</th><th>Reference&#xA0;Range</th><th>Unit</th></tr><tr><td>Creatinine [Mass/volume] in Blood</td><td>1.0</td><td>0.9 - 1.3</td><td></td><td>mg/dL</td></tr></table></div>"
        },
        "status": "final",
        "subject": {
          "reference": "urn:uuid:6ed1d804-59e5-44a8-98a8-fdb65fcfb6bf",
          "display": "Pelayo Casal"
        },
        "effectiveDateTime": "2019-01-24T05:38:59Z",
        "specimen": {
          "reference": "urn:uuid:814e137a-f5b1-4fd7-81c2-5f8d26267d39"
        }
      }
    },
    {
      "fullUrl": "urn:uuid:26b26cb2-134a-4914-b1f4-dcae65cc42ab",
      "resource": {
        "resourceType": "Observation",
        "id": "26b26cb2-134a-4914-b1f4-dcae65cc42ab",
        "meta": {
          "profile": [
            "http://hl7.eu/fhir/laboratory/StructureDefinition/Observation-resultslab-eu-lab"
          ]
        },
        "performer": [
          {
            "display": "The Central European Lab"
          }
        ],
        "category": [
          {
            "coding": [
              {
                "system": "http://terminology.hl7.org/CodeSystem/observation-category",
                "code": "laboratory"
              }
            ]
          }
        ],
        "code": {
          "coding": [
            {
              "code": "49765-1",
              "system": "http://loinc.org",
              "display": "Calcium [Mass/volume] in Blood"
            }
          ],
          "text": "Calcium [Mass/volume] in Blood"
        },
        "valueQuantity": {
          "system": "http://unitsofmeasure.org",
          "value": 9.2,
          "unit": "mg/dL",
          "code": "mg/dL"
        },
        "referenceRange": [
          {
            "low": {
              "value": 8.6,
              "code": "mg/dL",
              "system": "http://unitsofmeasure.org"
            }
          },
          {
            "high": {
              "value": 10.2,
              "code": "mg/dL",
              "system": "http://unitsofmeasure.org"
            }
          }
        ],
        "text": {
          "status": "generated",
          "div": "<div xmlns=\"http://www.w3.org/1999/xhtml\"><table class=\"hl7__eu__lab__report\"><tr><th>Test</th><th>24-Jan-2019</th><th>Reference&#xA0;Range</th><th>Unit</th></tr><tr><td>Calcium [Mass/volume] in Blood</td><td>9.2</td><td>8.6 - 10.2</td><td></td><td>mg/dL</td></tr></table></div>"
        },
        "status": "final",
        "subject": {
          "reference": "urn:uuid:6ed1d804-59e5-44a8-98a8-fdb65fcfb6bf",
          "display": "Pelayo Casal"
        },
        "effectiveDateTime": "2019-01-24T05:38:59Z",
        "specimen": {
          "reference": "urn:uuid:814e137a-f5b1-4fd7-81c2-5f8d26267d39"
        }
      }
    },
    {
      "fullUrl": "urn:uuid:b8d0c03b-fe7b-4f9e-9dc2-11ccbc3732f9",
      "resource": {
        "resourceType": "Observation",
        "id": "b8d0c03b-fe7b-4f9e-9dc2-11ccbc3732f9",
        "meta": {
          "profile": [
            "http://hl7.eu/fhir/laboratory/StructureDefinition/Observation-resultslab-eu-lab"
          ]
        },
        "performer": [
          {
            "display": "The Central European Lab"
          }
        ],
        "category": [
          {
            "coding": [
              {
                "system": "http://terminology.hl7.org/CodeSystem/observation-category",
                "code": "laboratory"
              }
            ]
          }
        ],
        "code": {
          "coding": [
            {
              "code": "2947-0",
              "system": "http://loinc.org",
              "display": "Sodium [Moles/volume] in Blood"
            }
          ],
          "text": "Sodium [Moles/volume] in Blood"
        },
        "valueQuantity": {
          "system": "http://unitsofmeasure.org",
          "value": 144,
          "unit": "mmol/L",
          "code": "mmol/L"
        },
        "referenceRange": [
          {
            "low": {
              "value": 135,
              "code": "mmol/L",
              "system": "http://unitsofmeasure.org"
            }
          },
          {
            "high": {
              "value": 145,
              "code": "mmol/L",
              "system": "http://unitsofmeasure.org"
            }
          }
        ],
        "text": {
          "status": "generated",
          "div": "<div xmlns=\"http://www.w3.org/1999/xhtml\"><table class=\"hl7__eu__lab__report\"><tr><th>Test</th><th>24-Jan-2019</th><th>Reference&#xA0;Range</th><th>Unit</th></tr><tr><td>Sodium [Moles/volume] in Blood</td><td>144.0</td><td>135 - 145</td><td></td><td>mmol/L</td></tr></table></div>"
        },
        "status": "final",
        "subject": {
          "reference": "urn:uuid:6ed1d804-59e5-44a8-98a8-fdb65fcfb6bf",
          "display": "Pelayo Casal"
        },
        "effectiveDateTime": "2019-01-24T05:38:59Z",
        "specimen": {
          "reference": "urn:uuid:814e137a-f5b1-4fd7-81c2-5f8d26267d39"
        }
      }
    },
    {
      "fullUrl": "urn:uuid:fb014ca1-5857-402c-9e47-facb4bc85981",
      "resource": {
        "resourceType": "Observation",
        "id": "fb014ca1-5857-402c-9e47-facb4bc85981",
        "meta": {
          "profile": [
            "http://hl7.eu/fhir/laboratory/StructureDefinition/Observation-resultslab-eu-lab"
          ]
        },
        "performer": [
          {
            "display": "The Central European Lab"
          }
        ],
        "category": [
          {
            "coding": [
              {
                "system": "http://terminology.hl7.org/CodeSystem/observation-category",
                "code": "laboratory"
              }
            ]
          }
        ],
        "code": {
          "coding": [
            {
              "code": "6298-4",
              "system": "http://loinc.org",
              "display": "Potassium [Moles/volume] in Blood"
            }
          ],
          "text": "Potassium [Moles/volume] in Blood"
        },
        "valueQuantity": {
          "system": "http://unitsofmeasure.org",
          "value": 4.2,
          "unit": "mmol/L",
          "code": "mmol/L"
        },
        "referenceRange": [
          {
            "low": {
              "value": 3.5,
              "code": "mmol/L",
              "system": "http://unitsofmeasure.org"
            }
          },
          {
            "high": {
              "value": 5.1,
              "code": "mmol/L",
              "system": "http://unitsofmeasure.org"
            }
          }
        ],
        "text": {
          "status": "generated",
          "div": "<div xmlns=\"http://www.w3.org/1999/xhtml\"><table class=\"hl7__eu__lab__report\"><tr><th>Test</th><th>24-Jan-2019</th><th>Reference&#xA0;Range</th><th>Unit</th></tr><tr><td>Potassium [Moles/volume] in Blood</td><td>4.2</td><td>3.5 - 5.1</td><td></td><td>mmol/L</td></tr></table></div>"
        },
        "status": "final",
        "subject": {
          "reference": "urn:uuid:6ed1d804-59e5-44a8-98a8-fdb65fcfb6bf",
          "display": "Pelayo Casal"
        },
        "effectiveDateTime": "2019-01-24T05:38:59Z",
        "specimen": {
          "reference": "urn:uuid:814e137a-f5b1-4fd7-81c2-5f8d26267d39"
        }
      }
    },
    {
      "fullUrl": "urn:uuid:29f76ed0-726d-47be-8f04-6cbfcf0c0355",
      "resource": {
        "resourceType": "Observation",
        "id": "29f76ed0-726d-47be-8f04-6cbfcf0c0355",
        "meta": {
          "profile": [
            "http://hl7.eu/fhir/laboratory/StructureDefinition/Observation-resultslab-eu-lab"
          ]
        },
        "performer": [
          {
            "display": "The Central European Lab"
          }
        ],
        "category": [
          {
            "coding": [
              {
                "system": "http://terminology.hl7.org/CodeSystem/observation-category",
                "code": "laboratory"
              }
            ]
          }
        ],
        "code": {
          "coding": [
            {
              "code": "2069-3",
              "system": "http://loinc.org",
              "display": "Chloride [Moles/volume] in Blood"
            }
          ],
          "text": "Chloride [Moles/volume] in Blood"
        },
        "valueQuantity": {
          "system": "http://unitsofmeasure.org",
          "value": 103.1,
          "unit": "mmol/L",
          "code": "mmol/L"
        },
        "referenceRange": [
          {
            "low": {
              "value": 98,
              "code": "mmol/L",
              "system": "http://unitsofmeasure.org"
            }
          },
          {
            "high": {
              "value": 108,
              "code": "mmol/L",
              "system": "http://unitsofmeasure.org"
            }
          }
        ],
        "text": {
          "status": "generated",
          "div": "<div xmlns=\"http://www.w3.org/1999/xhtml\"><table class=\"hl7__eu__lab__report\"><tr><th>Test</th><th>24-Jan-2019</th><th>Reference&#xA0;Range</th><th>Unit</th></tr><tr><td>Chloride [Moles/volume] in Blood</td><td>103.1</td><td>98 - 108</td><td></td><td>mmol/L</td></tr></table></div>"
        },
        "status": "final",
        "subject": {
          "reference": "urn:uuid:6ed1d804-59e5-44a8-98a8-fdb65fcfb6bf",
          "display": "Pelayo Casal"
        },
        "effectiveDateTime": "2019-01-24T05:38:59Z",
        "specimen": {
          "reference": "urn:uuid:814e137a-f5b1-4fd7-81c2-5f8d26267d39"
        }
      }
    },
    {
      "fullUrl": "urn:uuid:fc0a2b52-20fa-4633-88f4-485f03126ff2",
      "resource": {
        "resourceType": "Observation",
        "id": "fc0a2b52-20fa-4633-88f4-485f03126ff2",
        "meta": {
          "profile": [
            "http://hl7.eu/fhir/laboratory/StructureDefinition/Observation-resultslab-eu-lab"
          ]
        },
        "performer": [
          {
            "display": "The Central European Lab"
          }
        ],
        "category": [
          {
            "coding": [
              {
                "system": "http://terminology.hl7.org/CodeSystem/observation-category",
                "code": "laboratory"
              }
            ]
          }
        ],
        "code": {
          "coding": [
            {
              "code": "20565-8",
              "system": "http://loinc.org",
              "display": "Carbon dioxide, total [Moles/volume] in Blood"
            }
          ],
          "text": "Carbon dioxide, total [Moles/volume] in Blood"
        },
        "valueQuantity": {
          "system": "http://unitsofmeasure.org",
          "value": 26.4,
          "unit": "mmol/L",
          "code": "mmol/L"
        },
        "referenceRange": [
          {
            "low": {
              "value": 22,
              "code": "mmol/L",
              "system": "http://unitsofmeasure.org"
            }
          },
          {
            "high": {
              "value": 32,
              "code": "mmol/L",
              "system": "http://unitsofmeasure.org"
            }
          }
        ],
        "text": {
          "status": "generated",
          "div": "<div xmlns=\"http://www.w3.org/1999/xhtml\"><table class=\"hl7__eu__lab__report\"><tr><th>Test</th><th>24-Jan-2019</th><th>Reference&#xA0;Range</th><th>Unit</th></tr><tr><td>Carbon dioxide, total [Moles/volume] in Blood</td><td>26.4</td><td>22 - 32</td><td></td><td>mmol/L</td></tr></table></div>"
        },
        "status": "final",
        "subject": {
          "reference": "urn:uuid:6ed1d804-59e5-44a8-98a8-fdb65fcfb6bf",
          "display": "Pelayo Casal"
        },
        "effectiveDateTime": "2019-01-24T05:38:59Z",
        "specimen": {
          "reference": "urn:uuid:814e137a-f5b1-4fd7-81c2-5f8d26267d39"
        }
      }
    },
    {
      "fullUrl": "urn:uuid:b6515c29-41a3-4247-995a-750f642954ef",
      "resource": {
        "resourceType": "Device",
        "id": "b6515c29-41a3-4247-995a-750f642954ef",
        "deviceName": [
          {
            "name": "SYNDERAI Synthetic Generator",
            "type": "manufacturer-name"
          }
        ],
        "version": [
          {
            "value": "5.0"
          }
        ],
        "text": {
          "status": "generated",
          "div": "<div xmlns=\"http://www.w3.org/1999/xhtml\">SYNDERAI Synthetic Generator v5.0</div>"
        },
        "status": "active\"",
        "distinctIdentifier": "synderai-generator-50",
        "manufacturer": "SYNDERAI Project"
      }
    },
    {
      "fullUrl": "urn:uuid:a121ae78-9e8c-4e29-af48-4ef931bf68a8",
      "resource": {
        "resourceType": "Provenance",
        "id": "a121ae78-9e8c-4e29-af48-4ef931bf68a8",
        "target": [
          {
            "reference": "Patient/6ed1d804-59e5-44a8-98a8-fdb65fcfb6bf"
          },
          {
            "reference": "Bundle/a997a983-a41d-46b6-907b-5bc7a370a31f"
          },
          {
            "reference": "Composition/c6810649-cf63-43a4-9207-a34f0700428b"
          },
          {
            "reference": "PractitionerRole/9cd592d1-f39f-47a0-b04e-268d5f9bf0d1"
          },
          {
            "reference": "Practitioner/6b806425-7773-435a-9c64-67dc9e5baf13"
          },
          {
            "reference": "PractitionerRole/040c2325-6cbb-44f7-9dcb-fd90363f5d53"
          },
          {
            "reference": "Organization/7ef2589d-5bb2-468f-82d3-ffabb1f26978"
          }
        ],
        "activity": {
          "text": "Synthetic Example Data Generation"
        },
        "policy": [
          "https://synderai.net/synderai-synthetic-data-policy"
        ],
        "agent": [
          {
            "type": {
              "text": "author"
            },
            "who": {
              "reference": "Device/b6515c29-41a3-4247-995a-750f642954ef"
            }
          }
        ],
        "reason": [
          {
            "text": "Interoperability Testing and Training (non-clinical use)"
          }
        ],
        "text": {
          "status": "generated",
          "div": "<div xmlns=\"http://www.w3.org/1999/xhtml\">Provenance for SYNDERAI Synthetic Example Data Resource</div>"
        },
        "recorded": "2019-01-24T06:38:59Z"
      }
    },
    {
      "fullUrl": "urn:uuid:9cd592d1-f39f-47a0-b04e-268d5f9bf0d1",
      "resource": {
        "resourceType": "PractitionerRole",
        "id": "9cd592d1-f39f-47a0-b04e-268d5f9bf0d1",
        "meta": {
          "profile": [
            "http://hl7.eu/fhir/base/StructureDefinition/practitionerRole-eu"
          ]
        },
        "text": {
          "status": "generated",
          "div": "<div xmlns=\"http://www.w3.org/1999/xhtml\">Laboratory Role Id: 9cd592d1-f39f-47a0-b04e-268d5f9bf0d1</div>"
        },
        "practitioner": {
          "reference": "urn:uuid:6b806425-7773-435a-9c64-67dc9e5baf13"
        }
      }
    },
    {
      "fullUrl": "urn:uuid:6b806425-7773-435a-9c64-67dc9e5baf13",
      "resource": {
        "resourceType": "Practitioner",
        "id": "6b806425-7773-435a-9c64-67dc9e5baf13",
        "meta": {
          "profile": [
            "http://hl7.eu/fhir/base/StructureDefinition/practitioner-eu"
          ]
        },
        "identifier": [
          {
            "assigner": {
              "display": "HL7 Europe"
            },
            "system": "urn:oid:2.16.840.1.113883.2.51.999",
            "value": "743d38cf-381a-4e85-8d07-2de9635af19a"
          }
        ],
        "name": [
          {
            "prefix": [
              "dr"
            ],
            "given": [
              "Ex"
            ],
            "family": "Ample"
          }
        ],
        "address": [
          {
            "line": [
              "Laboratoire Central Européenne",
              "Boulevard du Jardin Botanique 32"
            ],
            "postalCode": "1000",
            "city": "Brussels",
            "country": "Belgium"
          }
        ],
        "text": {
          "status": "generated",
          "div": "<div xmlns=\"http://www.w3.org/1999/xhtml\">Laboratory: Laboratoire Central Européenne, 1000 Brussels, Belgium</div>"
        }
      }
    }
  ],
  "type": "document",
  "timestamp": "2019-01-24T06:38:59Z"
}
