{
  "resourceType": "Bundle",
  "id": "7159a41c-2a82-4c27-96d0-f884f35d26ce",
  "meta": {
    "profile": [
      "http://hl7.eu/fhir/laboratory/StructureDefinition/Bundle-eu-lab"
    ]
  },
  "identifier": {
    "assigner": {
      "display": "HL7 Europe"
    },
    "system": "urn:oid:2.16.840.1.113883.2.51.999",
    "value": "a195631a-8546-481b-aabe-cd3ab09f2d6f"
  },
  "entry": [
    {
      "fullUrl": "urn:uuid:f157bd4d-9a4b-4689-b846-4bcd468a1b99",
      "resource": {
        "resourceType": "Composition",
        "id": "f157bd4d-9a4b-4689-b846-4bcd468a1b99",
        "meta": {
          "profile": [
            "http://hl7.eu/fhir/laboratory/StructureDefinition/Composition-eu-lab"
          ]
        },
        "identifier": {
          "assigner": {
            "display": "HL7 Europe"
          },
          "system": "urn:oid:2.16.840.1.113883.2.51.999",
          "value": "aab8809c-7786-44dd-a5a0-05228e5dc08e"
        },
        "author": [
          {
            "reference": "urn:uuid:48b0e7f6-e73e-4a20-b771-fc665c78df1d"
          }
        ],
        "category": [
          {
            "coding": [
              {
                "code": "26436-6",
                "system": "http://loinc.org",
                "display": "Laboratory studies (set)"
              }
            ]
          }
        ],
        "type": {
          "coding": [
            {
              "code": "11502-2",
              "system": "http://loinc.org",
              "display": "Laboratory report"
            }
          ],
          "text": "Laboratory Report"
        },
        "section": [
          {
            "code": {
              "coding": [
                {
                  "code": "26436-6",
                  "system": "http://loinc.org",
                  "display": "Laboratory studies (set)"
                }
              ],
              "text": "Laboratory studies"
            },
            "section": [
              {
                "code": {
                  "coding": [
                    {
                      "code": "$18723-7",
                      "system": "http://loinc.org",
                      "display": "Hematology studies (set)"
                    }
                  ],
                  "text": "Hematology"
                },
                "entry": [
                  {
                    "reference": "urn:uuid:02995246-402f-4e15-abf3-0b16a400850d"
                  },
                  {
                    "reference": "urn:uuid:d3c87988-eb64-4618-9b72-afa0a0c08627"
                  },
                  {
                    "reference": "urn:uuid:b6425b7f-cb19-4fe2-a654-c2cc07b18230"
                  },
                  {
                    "reference": "urn:uuid:0c808ac4-e8ad-45f9-b13b-75e17554582e"
                  },
                  {
                    "reference": "urn:uuid:e5b9fbf5-3566-4a69-95ea-2b4ad56391be"
                  },
                  {
                    "reference": "urn:uuid:2880a261-d2d0-4675-ab6b-096cc1868d8b"
                  },
                  {
                    "reference": "urn:uuid:86fa67cc-824d-433e-a0e3-83ae97165b33"
                  },
                  {
                    "reference": "urn:uuid:91db7b1e-d9c7-41cc-b2be-b406fbe9da34"
                  },
                  {
                    "reference": "urn:uuid:21db7857-1955-4bbb-9ca8-8b8177b00b55"
                  },
                  {
                    "reference": "urn:uuid:93eccf4e-dde0-4df6-903c-aee0cd903ddf"
                  },
                  {
                    "reference": "urn:uuid:83fee53e-b8d4-4f1b-b061-2d6f8e22a821"
                  }
                ],
                "text": {
                  "status": "generated",
                  "div": "<div xmlns=\"http://www.w3.org/1999/xhtml\"><h3>Hematology</h3><table class=\"hl7__eu__lab__report\"><thead><tr><th>Test</th><th>05-JUL-2025</th><th>Reference&#xA0;Range</th><th>Unit</th></tr></thead><tbody><tr><td>Leukocytes [#/volume] in Blood by Automated count</td><td>9.2</td><td>4 - 11</td><td>10*3/uL</td></tr><tr><td>Erythrocytes [#/volume] in Blood by Automated count</td><td>4.8</td><td>3.8 - 5.7</td><td>10*6/uL</td></tr><tr><td>Hemoglobin [Mass/volume] in Blood</td><td><strong>17.1 H</strong></td><td>12 - 16</td><td>g/dL</td></tr><tr><td>Hematocrit [Volume Fraction] of Blood by Automated count</td><td>43.3</td><td>38 - 56</td><td>%</td></tr><tr><td>MCV [Entitic volume] by Automated count</td><td>81.7</td><td>78 - 98</td><td>fL</td></tr><tr><td>MCH [Entitic mass] by Automated count</td><td>29.8</td><td>27 - 34</td><td>pg</td></tr><tr><td>MCHC [Mass/volume] by Automated count</td><td><strong>35.8 H</strong></td><td>32 - 35</td><td>g/dL</td></tr><tr><td>Erythrocyte distribution width [Entitic volume] by Automated count</td><td>44.1</td><td>36 - 55</td><td>fL</td></tr><tr><td>Platelets [#/volume] in Blood by Automated count</td><td>211.7</td><td>157 - 415</td><td>10*3/uL</td></tr><tr><td>Platelet distribution width [Entitic volume] in Blood by Automated count</td><td><strong>491.4 H</strong></td><td>13.4 - 17.4</td><td>fL</td></tr><tr><td>Platelet mean volume [Entitic volume] in Blood by Automated count</td><td>9.8</td><td>7.4 - 12</td><td>fL</td></tr></tbody></table></div>"
                },
                "title": "Hematology"
              }
            ],
            "title": "Laboratory Report"
          },
          {
            "text": {
              "status": "generated",
              "div": "<div xmlns=\"http://www.w3.org/1999/xhtml\"><h3>Annotation</h3><table class=\"hl7__eu__lab__report\"><tr><th>Conclusion and Recommendations based on this report and previous findings known to us</th></tr><tr><td>The patient shows elevated hemoglobin and MCHC, which may suggest hemoconcentration or possible underlying erythrocytosis; clinical correlation is advised. Platelet count is normal, but platelet distribution width is markedly increased, possibly indicating platelet anisocytosis or activation. Other parameters are within normal limits. Further evaluation may be warranted depending on clinical context.</td></tr></table></div>"
            },
            "code": {
              "coding": [
                {
                  "system": "http://loinc.org",
                  "code": "48767-8",
                  "display": "Annotation comment"
                }
              ]
            },
            "title": "Annotation comment"
          }
        ],
        "status": "final",
        "subject": {
          "reference": "urn:uuid:2b83f6aa-3fec-4172-bda6-05cd7e04e4fd",
          "display": "Aniela Prażmo"
        },
        "date": "2025-07-05T15:25:25Z",
        "title": "Laboratory Report",
        "confidentiality": "N"
      }
    },
    {
      "fullUrl": "urn:uuid:6ce3028b-82f8-419c-a6eb-dc4c0fad054b",
      "resource": {
        "resourceType": "DiagnosticReport",
        "id": "6ce3028b-82f8-419c-a6eb-dc4c0fad054b",
        "meta": {
          "profile": [
            "http://hl7.eu/fhir/laboratory/StructureDefinition/DiagnosticReport-eu-lab"
          ]
        },
        "identifier": [
          {
            "assigner": {
              "display": "HL7 Europe"
            },
            "system": "urn:oid:2.16.840.1.113883.2.51.999",
            "value": "ed29e295-b4f7-4ec5-9a27-6b4fcf1fc888"
          }
        ],
        "extension": [
          {
            "url": "http://hl7.org/fhir/5.0/StructureDefinition/extension-DiagnosticReport.composition",
            "valueReference": {
              "reference": "urn:uuid:aab8809c-7786-44dd-a5a0-05228e5dc08e"
            }
          }
        ],
        "category": [
          {
            "coding": [
              {
                "code": "26436-6",
                "system": "http://loinc.org",
                "display": "Laboratory studies (set)"
              }
            ]
          }
        ],
        "specimen": [
          {
            "reference": "urn:uuid:ae549bd1-b424-4aa4-a2f7-1af15bc1a915"
          },
          {
            "reference": "urn:uuid:ae549bd1-b424-4aa4-a2f7-1af15bc1a915"
          }
        ],
        "result": [
          {
            "reference": "urn:uuid:02995246-402f-4e15-abf3-0b16a400850d"
          },
          {
            "reference": "urn:uuid:d3c87988-eb64-4618-9b72-afa0a0c08627"
          },
          {
            "reference": "urn:uuid:b6425b7f-cb19-4fe2-a654-c2cc07b18230"
          },
          {
            "reference": "urn:uuid:0c808ac4-e8ad-45f9-b13b-75e17554582e"
          },
          {
            "reference": "urn:uuid:e5b9fbf5-3566-4a69-95ea-2b4ad56391be"
          },
          {
            "reference": "urn:uuid:2880a261-d2d0-4675-ab6b-096cc1868d8b"
          },
          {
            "reference": "urn:uuid:86fa67cc-824d-433e-a0e3-83ae97165b33"
          },
          {
            "reference": "urn:uuid:91db7b1e-d9c7-41cc-b2be-b406fbe9da34"
          },
          {
            "reference": "urn:uuid:21db7857-1955-4bbb-9ca8-8b8177b00b55"
          },
          {
            "reference": "urn:uuid:93eccf4e-dde0-4df6-903c-aee0cd903ddf"
          },
          {
            "reference": "urn:uuid:83fee53e-b8d4-4f1b-b061-2d6f8e22a821"
          }
        ],
        "status": "registered",
        "code": {
          "coding": [
            {
              "code": "11502-2",
              "system": "http://loinc.org",
              "display": "Laboratory report"
            }
          ]
        },
        "subject": {
          "reference": "urn:uuid:2b83f6aa-3fec-4172-bda6-05cd7e04e4fd",
          "display": "Aniela Prażmo"
        }
      }
    },
    {
      "fullUrl": "urn:uuid:2b83f6aa-3fec-4172-bda6-05cd7e04e4fd",
      "resource": {
        "resourceType": "Patient",
        "id": "2b83f6aa-3fec-4172-bda6-05cd7e04e4fd",
        "meta": {
          "security": [
            {
              "system": "http://terminology.hl7.org/CodeSystem/v3-ActReason",
              "code": "HTEST"
            },
            {
              "system": "http://terminology.hl7.org/CodeSystem/v3-ActReason",
              "code": "TRAIN"
            }
          ],
          "tag": [
            {
              "system": "https://synderai.net/fhir/CodeSystem/tags",
              "code": "synthetic",
              "display": "SYNDERAI Synthetic data"
            }
          ],
          "profile": [
            "http://hl7.eu/fhir/base/StructureDefinition/patient-eu-core"
          ]
        },
        "identifier": [
          {
            "type": {
              "coding": [
                {
                  "code": "PT",
                  "system": "http://terminology.hl7.org/CodeSystem/v2-0203"
                }
              ]
            },
            "system": "http://ec.europa.eu/identifier/eci",
            "value": "9657-869171-7"
          },
          {
            "type": {
              "coding": [
                {
                  "code": "MR",
                  "system": "http://terminology.hl7.org/CodeSystem/v2-0203"
                }
              ]
            },
            "system": "http://local.setting.eu/identifier",
            "value": "ab00158c-e2d0-01e4-6cf5-730949937551"
          }
        ],
        "name": [
          {
            "family": "Prażmo"
          },
          {
            "given": [
              "Aniela"
            ]
          },
          {
            "text": "Aniela Prażmo"
          }
        ],
        "address": [
          {
            "line": [
              "pl. Kołłątaja 62/43"
            ],
            "use": "home",
            "type": "physical",
            "postalCode": "97-200",
            "city": "Tomaszów Mazowiecki",
            "country": "Poland"
          }
        ],
        "telecom": [
          {
            "system": "phone",
            "value": "+48 782 809 233"
          }
        ],
        "extension": [
          {
            "url": "http://hl7.org/fhir/StructureDefinition/patient-nationality",
            "valueCodeableConcept": {
              "coding": [
                {
                  "code": "PL",
                  "system": "http://hl7.org/fhir/ValueSet/country"
                }
              ]
            }
          }
        ],
        "text": {
          "status": "generated",
          "div": "<div xmlns=\"http://www.w3.org/1999/xhtml\"><table class=\"hl7__ips\"><tr><td>Aniela Prażmo</td><td>female</td><td>08-Feb-1941</td></tr></table></div>"
        },
        "gender": "female",
        "birthDate": "1941-02-08"
      }
    },
    {
      "fullUrl": "urn:uuid:1e9c57fb-337a-4bea-ba0f-f37f3eb56238",
      "resource": {
        "resourceType": "ServiceRequest",
        "id": "1e9c57fb-337a-4bea-ba0f-f37f3eb56238",
        "meta": {
          "profile": [
            "http://hl7.eu/fhir/laboratory/StructureDefinition/ServiceRequest-eu-lab"
          ]
        },
        "identifier": [
          {
            "system": "http://example.org",
            "value": "519d65c8-74a2-44bd-8249-5e1073146832"
          }
        ],
        "specimen": [
          {
            "reference": "urn:uuid:ae549bd1-b424-4aa4-a2f7-1af15bc1a915"
          }
        ],
        "reasonCode": [
          {
            "coding": [
              {
                "code": "64859006",
                "system": "http://snomed.info/sct",
                "display": "Osteoporosis"
              }
            ]
          },
          {
            "coding": [
              {
                "code": "55822004",
                "system": "http://snomed.info/sct",
                "display": "Hyperlipidemia"
              }
            ]
          },
          {
            "coding": [
              {
                "code": "414545008",
                "system": "http://snomed.info/sct",
                "display": "Ischemic heart disease"
              }
            ]
          },
          {
            "coding": [
              {
                "code": "59621000",
                "system": "http://snomed.info/sct",
                "display": "Essential hypertension"
              }
            ]
          },
          {
            "coding": [
              {
                "code": "40055000",
                "system": "http://snomed.info/sct",
                "display": "Chronic sinusitis"
              }
            ]
          }
        ],
        "status": "active",
        "intent": "order",
        "code": {
          "coding": [
            {
              "code": "108252007",
              "system": "http://snomed.info/sct",
              "display": "Laboratory procedure"
            }
          ]
        },
        "subject": {
          "reference": "urn:uuid:2b83f6aa-3fec-4172-bda6-05cd7e04e4fd",
          "display": "Aniela Prażmo"
        },
        "requester": {
          "reference": "urn:uuid:22e2031f-1d8f-4e03-b885-556214f61ee6"
        }
      }
    },
    {
      "fullUrl": "urn:uuid:22e2031f-1d8f-4e03-b885-556214f61ee6",
      "resource": {
        "resourceType": "PractitionerRole",
        "id": "22e2031f-1d8f-4e03-b885-556214f61ee6",
        "meta": {
          "profile": [
            "http://hl7.eu/fhir/base/StructureDefinition/practitionerRole-eu"
          ]
        },
        "text": {
          "status": "generated",
          "div": "<div xmlns=\"http://www.w3.org/1999/xhtml\">Provider Role Id: 22e2031f-1d8f-4e03-b885-556214f61ee6</div>"
        },
        "organization": {
          "reference": "urn:uuid:f5f0b5a0-f9af-457b-9576-808ea6249441"
        }
      }
    },
    {
      "fullUrl": "urn:uuid:f5f0b5a0-f9af-457b-9576-808ea6249441",
      "resource": {
        "resourceType": "Organization",
        "id": "f5f0b5a0-f9af-457b-9576-808ea6249441",
        "meta": {
          "profile": [
            "http://hl7.eu/fhir/base/StructureDefinition/organization-eu"
          ]
        },
        "identifier": [
          {
            "assigner": {
              "display": "HL7 Europe"
            },
            "system": "urn:oid:2.16.840.1.113883.2.51.999",
            "value": "9452a48b-c0c1-4d8f-8e5f-487f6e3d339b"
          }
        ],
        "address": [
          {
            "city": "Tomaszów Mazowiecki",
            "postalCode": "97-200",
            "country": "Poland"
          }
        ],
        "text": {
          "status": "generated",
          "div": "<div xmlns=\"http://www.w3.org/1999/xhtml\">Provider Organization: Poradnia rehabilitacyjna</div>"
        },
        "name": "Poradnia rehabilitacyjna"
      }
    },
    {
      "fullUrl": "urn:uuid:ae549bd1-b424-4aa4-a2f7-1af15bc1a915",
      "resource": {
        "resourceType": "Specimen",
        "id": "ae549bd1-b424-4aa4-a2f7-1af15bc1a915",
        "meta": {
          "profile": [
            "http://hl7.eu/fhir/laboratory/StructureDefinition/Specimen-eu-lab"
          ]
        },
        "collection": {
          "collectedDateTime": "2025-07-05"
        },
        "text": {
          "status": "generated",
          "div": "<div xmlns=\"http://www.w3.org/1999/xhtml\"><table class=\"hl7__eu__lab__report\"><tr><th>Specimen</th><th>Collection Date</th></tr><tr><td>Whole blood specimen (specimen)</td><td><span class=\"nb\">05-Jul-2025</span></td></tr></table></div>"
        },
        "type": {
          "coding": [
            {
              "code": "258580003",
              "system": "http://snomed.info/sct",
              "display": "Whole blood specimen (specimen)"
            }
          ]
        }
      }
    },
    {
      "fullUrl": "urn:uuid:ae549bd1-b424-4aa4-a2f7-1af15bc1a915",
      "resource": {
        "resourceType": "Specimen",
        "id": "ae549bd1-b424-4aa4-a2f7-1af15bc1a915",
        "meta": {
          "profile": [
            "http://hl7.eu/fhir/laboratory/StructureDefinition/Specimen-eu-lab"
          ]
        },
        "collection": {
          "collectedDateTime": "2025-07-05"
        },
        "text": {
          "status": "generated",
          "div": "<div xmlns=\"http://www.w3.org/1999/xhtml\"><table class=\"hl7__eu__lab__report\"><tr><th>Specimen</th><th>Collection Date</th></tr><tr><td>Whole blood specimen (specimen)</td><td><span class=\"nb\">05-Jul-2025</span></td></tr></table></div>"
        },
        "type": {
          "coding": [
            {
              "code": "258580003",
              "system": "http://snomed.info/sct",
              "display": "Whole blood specimen (specimen)"
            }
          ]
        }
      }
    },
    {
      "fullUrl": "urn:uuid:02995246-402f-4e15-abf3-0b16a400850d",
      "resource": {
        "resourceType": "Observation",
        "id": "02995246-402f-4e15-abf3-0b16a400850d",
        "meta": {
          "profile": [
            "http://hl7.eu/fhir/laboratory/StructureDefinition/Observation-resultslab-eu-lab"
          ]
        },
        "performer": [
          {
            "display": "The Central European Lab"
          }
        ],
        "category": [
          {
            "coding": [
              {
                "system": "http://terminology.hl7.org/CodeSystem/observation-category",
                "code": "laboratory"
              }
            ]
          }
        ],
        "code": {
          "coding": [
            {
              "code": "6690-2",
              "system": "http://loinc.org",
              "display": "Leukocytes [#/volume] in Blood by Automated count"
            }
          ],
          "text": "Leukocytes [#/volume] in Blood by Automated count"
        },
        "valueQuantity": {
          "system": "http://unitsofmeasure.org",
          "value": 9.2,
          "unit": "10*3/uL",
          "code": "10*3/uL"
        },
        "referenceRange": [
          {
            "low": {
              "value": 4,
              "code": "10*3/uL",
              "system": "http://unitsofmeasure.org"
            }
          },
          {
            "high": {
              "value": 11,
              "code": "10*3/uL",
              "system": "http://unitsofmeasure.org"
            }
          }
        ],
        "text": {
          "status": "generated",
          "div": "<div xmlns=\"http://www.w3.org/1999/xhtml\"><table class=\"hl7__eu__lab__report\"><tr><th>Test</th><th>05-Jul-2025</th><th>Reference&#xA0;Range</th><th>Unit</th></tr><tr><td>Leukocytes [#/volume] in Blood by Automated count</td><td>9.2</td><td>4 - 11</td><td></td><td>10*3/uL</td></tr></table></div>"
        },
        "status": "final",
        "subject": {
          "reference": "urn:uuid:2b83f6aa-3fec-4172-bda6-05cd7e04e4fd",
          "display": "Aniela Prażmo"
        },
        "effectiveDateTime": "2025-07-05T13:25:25Z",
        "specimen": {
          "reference": "urn:uuid:ae549bd1-b424-4aa4-a2f7-1af15bc1a915"
        }
      }
    },
    {
      "fullUrl": "urn:uuid:d3c87988-eb64-4618-9b72-afa0a0c08627",
      "resource": {
        "resourceType": "Observation",
        "id": "d3c87988-eb64-4618-9b72-afa0a0c08627",
        "meta": {
          "profile": [
            "http://hl7.eu/fhir/laboratory/StructureDefinition/Observation-resultslab-eu-lab"
          ]
        },
        "performer": [
          {
            "display": "The Central European Lab"
          }
        ],
        "category": [
          {
            "coding": [
              {
                "system": "http://terminology.hl7.org/CodeSystem/observation-category",
                "code": "laboratory"
              }
            ]
          }
        ],
        "code": {
          "coding": [
            {
              "code": "789-8",
              "system": "http://loinc.org",
              "display": "Erythrocytes [#/volume] in Blood by Automated count"
            }
          ],
          "text": "Erythrocytes [#/volume] in Blood by Automated count"
        },
        "valueQuantity": {
          "system": "http://unitsofmeasure.org",
          "value": 4.8,
          "unit": "10*6/uL",
          "code": "10*6/uL"
        },
        "referenceRange": [
          {
            "low": {
              "value": 3.8,
              "code": "10*6/uL",
              "system": "http://unitsofmeasure.org"
            }
          },
          {
            "high": {
              "value": 5.7,
              "code": "10*6/uL",
              "system": "http://unitsofmeasure.org"
            }
          }
        ],
        "text": {
          "status": "generated",
          "div": "<div xmlns=\"http://www.w3.org/1999/xhtml\"><table class=\"hl7__eu__lab__report\"><tr><th>Test</th><th>05-Jul-2025</th><th>Reference&#xA0;Range</th><th>Unit</th></tr><tr><td>Erythrocytes [#/volume] in Blood by Automated count</td><td>4.8</td><td>3.8 - 5.7</td><td></td><td>10*6/uL</td></tr></table></div>"
        },
        "status": "final",
        "subject": {
          "reference": "urn:uuid:2b83f6aa-3fec-4172-bda6-05cd7e04e4fd",
          "display": "Aniela Prażmo"
        },
        "effectiveDateTime": "2025-07-05T13:25:25Z",
        "specimen": {
          "reference": "urn:uuid:ae549bd1-b424-4aa4-a2f7-1af15bc1a915"
        }
      }
    },
    {
      "fullUrl": "urn:uuid:b6425b7f-cb19-4fe2-a654-c2cc07b18230",
      "resource": {
        "resourceType": "Observation",
        "id": "b6425b7f-cb19-4fe2-a654-c2cc07b18230",
        "meta": {
          "profile": [
            "http://hl7.eu/fhir/laboratory/StructureDefinition/Observation-resultslab-eu-lab"
          ]
        },
        "performer": [
          {
            "display": "The Central European Lab"
          }
        ],
        "category": [
          {
            "coding": [
              {
                "system": "http://terminology.hl7.org/CodeSystem/observation-category",
                "code": "laboratory"
              }
            ]
          }
        ],
        "code": {
          "coding": [
            {
              "code": "718-7",
              "system": "http://loinc.org",
              "display": "Hemoglobin [Mass/volume] in Blood"
            }
          ],
          "text": "Hemoglobin [Mass/volume] in Blood"
        },
        "valueQuantity": {
          "system": "http://unitsofmeasure.org",
          "value": 17.1,
          "unit": "g/dL",
          "code": "g/dL"
        },
        "referenceRange": [
          {
            "low": {
              "value": 12,
              "code": "g/dL",
              "system": "http://unitsofmeasure.org"
            }
          },
          {
            "high": {
              "value": 16,
              "code": "g/dL",
              "system": "http://unitsofmeasure.org"
            }
          }
        ],
        "interpretation": [
          {
            "coding": [
              {
                "code": "H",
                "system": "http://terminology.hl7.org/CodeSystem/v3-ObservationInterpretation",
                "display": "High"
              }
            ]
          }
        ],
        "text": {
          "status": "generated",
          "div": "<div xmlns=\"http://www.w3.org/1999/xhtml\"><table class=\"hl7__eu__lab__report\"><tr><th>Test</th><th>05-Jul-2025</th><th>Reference&#xA0;Range</th><th>Unit</th></tr><tr><td>Hemoglobin [Mass/volume] in Blood</td><td>17.1</td><td>12 - 16</td><td>H</td><td>g/dL</td></tr></table></div>"
        },
        "status": "final",
        "subject": {
          "reference": "urn:uuid:2b83f6aa-3fec-4172-bda6-05cd7e04e4fd",
          "display": "Aniela Prażmo"
        },
        "effectiveDateTime": "2025-07-05T13:25:25Z",
        "specimen": {
          "reference": "urn:uuid:ae549bd1-b424-4aa4-a2f7-1af15bc1a915"
        }
      }
    },
    {
      "fullUrl": "urn:uuid:0c808ac4-e8ad-45f9-b13b-75e17554582e",
      "resource": {
        "resourceType": "Observation",
        "id": "0c808ac4-e8ad-45f9-b13b-75e17554582e",
        "meta": {
          "profile": [
            "http://hl7.eu/fhir/laboratory/StructureDefinition/Observation-resultslab-eu-lab"
          ]
        },
        "performer": [
          {
            "display": "The Central European Lab"
          }
        ],
        "category": [
          {
            "coding": [
              {
                "system": "http://terminology.hl7.org/CodeSystem/observation-category",
                "code": "laboratory"
              }
            ]
          }
        ],
        "code": {
          "coding": [
            {
              "code": "4544-3",
              "system": "http://loinc.org",
              "display": "Hematocrit [Volume Fraction] of Blood by Automated count"
            }
          ],
          "text": "Hematocrit [Volume Fraction] of Blood by Automated count"
        },
        "valueQuantity": {
          "system": "http://unitsofmeasure.org",
          "value": 43.3,
          "unit": "%",
          "code": "%"
        },
        "referenceRange": [
          {
            "low": {
              "value": 38,
              "code": "%",
              "system": "http://unitsofmeasure.org"
            }
          },
          {
            "high": {
              "value": 56,
              "code": "%",
              "system": "http://unitsofmeasure.org"
            }
          }
        ],
        "text": {
          "status": "generated",
          "div": "<div xmlns=\"http://www.w3.org/1999/xhtml\"><table class=\"hl7__eu__lab__report\"><tr><th>Test</th><th>05-Jul-2025</th><th>Reference&#xA0;Range</th><th>Unit</th></tr><tr><td>Hematocrit [Volume Fraction] of Blood by Automated count</td><td>43.3</td><td>38 - 56</td><td></td><td>%</td></tr></table></div>"
        },
        "status": "final",
        "subject": {
          "reference": "urn:uuid:2b83f6aa-3fec-4172-bda6-05cd7e04e4fd",
          "display": "Aniela Prażmo"
        },
        "effectiveDateTime": "2025-07-05T13:25:25Z",
        "specimen": {
          "reference": "urn:uuid:ae549bd1-b424-4aa4-a2f7-1af15bc1a915"
        }
      }
    },
    {
      "fullUrl": "urn:uuid:e5b9fbf5-3566-4a69-95ea-2b4ad56391be",
      "resource": {
        "resourceType": "Observation",
        "id": "e5b9fbf5-3566-4a69-95ea-2b4ad56391be",
        "meta": {
          "profile": [
            "http://hl7.eu/fhir/laboratory/StructureDefinition/Observation-resultslab-eu-lab"
          ]
        },
        "performer": [
          {
            "display": "The Central European Lab"
          }
        ],
        "category": [
          {
            "coding": [
              {
                "system": "http://terminology.hl7.org/CodeSystem/observation-category",
                "code": "laboratory"
              }
            ]
          }
        ],
        "code": {
          "coding": [
            {
              "code": "787-2",
              "system": "http://loinc.org",
              "display": "MCV [Entitic volume] by Automated count"
            }
          ],
          "text": "MCV [Entitic volume] by Automated count"
        },
        "valueQuantity": {
          "system": "http://unitsofmeasure.org",
          "value": 81.7,
          "unit": "fL",
          "code": "fL"
        },
        "referenceRange": [
          {
            "low": {
              "value": 78,
              "code": "fL",
              "system": "http://unitsofmeasure.org"
            }
          },
          {
            "high": {
              "value": 98,
              "code": "fL",
              "system": "http://unitsofmeasure.org"
            }
          }
        ],
        "text": {
          "status": "generated",
          "div": "<div xmlns=\"http://www.w3.org/1999/xhtml\"><table class=\"hl7__eu__lab__report\"><tr><th>Test</th><th>05-Jul-2025</th><th>Reference&#xA0;Range</th><th>Unit</th></tr><tr><td>MCV [Entitic volume] by Automated count</td><td>81.7</td><td>78 - 98</td><td></td><td>fL</td></tr></table></div>"
        },
        "status": "final",
        "subject": {
          "reference": "urn:uuid:2b83f6aa-3fec-4172-bda6-05cd7e04e4fd",
          "display": "Aniela Prażmo"
        },
        "effectiveDateTime": "2025-07-05T13:25:25Z",
        "specimen": {
          "reference": "urn:uuid:ae549bd1-b424-4aa4-a2f7-1af15bc1a915"
        }
      }
    },
    {
      "fullUrl": "urn:uuid:2880a261-d2d0-4675-ab6b-096cc1868d8b",
      "resource": {
        "resourceType": "Observation",
        "id": "2880a261-d2d0-4675-ab6b-096cc1868d8b",
        "meta": {
          "profile": [
            "http://hl7.eu/fhir/laboratory/StructureDefinition/Observation-resultslab-eu-lab"
          ]
        },
        "performer": [
          {
            "display": "The Central European Lab"
          }
        ],
        "category": [
          {
            "coding": [
              {
                "system": "http://terminology.hl7.org/CodeSystem/observation-category",
                "code": "laboratory"
              }
            ]
          }
        ],
        "code": {
          "coding": [
            {
              "code": "785-6",
              "system": "http://loinc.org",
              "display": "MCH [Entitic mass] by Automated count"
            }
          ],
          "text": "MCH [Entitic mass] by Automated count"
        },
        "valueQuantity": {
          "system": "http://unitsofmeasure.org",
          "value": 29.8,
          "unit": "pg",
          "code": "pg"
        },
        "referenceRange": [
          {
            "low": {
              "value": 27,
              "code": "pg",
              "system": "http://unitsofmeasure.org"
            }
          },
          {
            "high": {
              "value": 34,
              "code": "pg",
              "system": "http://unitsofmeasure.org"
            }
          }
        ],
        "text": {
          "status": "generated",
          "div": "<div xmlns=\"http://www.w3.org/1999/xhtml\"><table class=\"hl7__eu__lab__report\"><tr><th>Test</th><th>05-Jul-2025</th><th>Reference&#xA0;Range</th><th>Unit</th></tr><tr><td>MCH [Entitic mass] by Automated count</td><td>29.8</td><td>27 - 34</td><td></td><td>pg</td></tr></table></div>"
        },
        "status": "final",
        "subject": {
          "reference": "urn:uuid:2b83f6aa-3fec-4172-bda6-05cd7e04e4fd",
          "display": "Aniela Prażmo"
        },
        "effectiveDateTime": "2025-07-05T13:25:25Z",
        "specimen": {
          "reference": "urn:uuid:ae549bd1-b424-4aa4-a2f7-1af15bc1a915"
        }
      }
    },
    {
      "fullUrl": "urn:uuid:86fa67cc-824d-433e-a0e3-83ae97165b33",
      "resource": {
        "resourceType": "Observation",
        "id": "86fa67cc-824d-433e-a0e3-83ae97165b33",
        "meta": {
          "profile": [
            "http://hl7.eu/fhir/laboratory/StructureDefinition/Observation-resultslab-eu-lab"
          ]
        },
        "performer": [
          {
            "display": "The Central European Lab"
          }
        ],
        "category": [
          {
            "coding": [
              {
                "system": "http://terminology.hl7.org/CodeSystem/observation-category",
                "code": "laboratory"
              }
            ]
          }
        ],
        "code": {
          "coding": [
            {
              "code": "786-4",
              "system": "http://loinc.org",
              "display": "MCHC [Mass/volume] by Automated count"
            }
          ],
          "text": "MCHC [Mass/volume] by Automated count"
        },
        "valueQuantity": {
          "system": "http://unitsofmeasure.org",
          "value": 35.8,
          "unit": "g/dL",
          "code": "g/dL"
        },
        "referenceRange": [
          {
            "low": {
              "value": 32,
              "code": "g/dL",
              "system": "http://unitsofmeasure.org"
            }
          },
          {
            "high": {
              "value": 35,
              "code": "g/dL",
              "system": "http://unitsofmeasure.org"
            }
          }
        ],
        "interpretation": [
          {
            "coding": [
              {
                "code": "H",
                "system": "http://terminology.hl7.org/CodeSystem/v3-ObservationInterpretation",
                "display": "High"
              }
            ]
          }
        ],
        "text": {
          "status": "generated",
          "div": "<div xmlns=\"http://www.w3.org/1999/xhtml\"><table class=\"hl7__eu__lab__report\"><tr><th>Test</th><th>05-Jul-2025</th><th>Reference&#xA0;Range</th><th>Unit</th></tr><tr><td>MCHC [Mass/volume] by Automated count</td><td>35.8</td><td>32 - 35</td><td>H</td><td>g/dL</td></tr></table></div>"
        },
        "status": "final",
        "subject": {
          "reference": "urn:uuid:2b83f6aa-3fec-4172-bda6-05cd7e04e4fd",
          "display": "Aniela Prażmo"
        },
        "effectiveDateTime": "2025-07-05T13:25:25Z",
        "specimen": {
          "reference": "urn:uuid:ae549bd1-b424-4aa4-a2f7-1af15bc1a915"
        }
      }
    },
    {
      "fullUrl": "urn:uuid:91db7b1e-d9c7-41cc-b2be-b406fbe9da34",
      "resource": {
        "resourceType": "Observation",
        "id": "91db7b1e-d9c7-41cc-b2be-b406fbe9da34",
        "meta": {
          "profile": [
            "http://hl7.eu/fhir/laboratory/StructureDefinition/Observation-resultslab-eu-lab"
          ]
        },
        "performer": [
          {
            "display": "The Central European Lab"
          }
        ],
        "category": [
          {
            "coding": [
              {
                "system": "http://terminology.hl7.org/CodeSystem/observation-category",
                "code": "laboratory"
              }
            ]
          }
        ],
        "code": {
          "coding": [
            {
              "code": "21000-5",
              "system": "http://loinc.org",
              "display": "Erythrocyte distribution width [Entitic volume] by Automated count"
            }
          ],
          "text": "Erythrocyte distribution width [Entitic volume] by Automated count"
        },
        "valueQuantity": {
          "system": "http://unitsofmeasure.org",
          "value": 44.1,
          "unit": "fL",
          "code": "fL"
        },
        "referenceRange": [
          {
            "low": {
              "value": 36,
              "code": "fL",
              "system": "http://unitsofmeasure.org"
            }
          },
          {
            "high": {
              "value": 55,
              "code": "fL",
              "system": "http://unitsofmeasure.org"
            }
          }
        ],
        "text": {
          "status": "generated",
          "div": "<div xmlns=\"http://www.w3.org/1999/xhtml\"><table class=\"hl7__eu__lab__report\"><tr><th>Test</th><th>05-Jul-2025</th><th>Reference&#xA0;Range</th><th>Unit</th></tr><tr><td>Erythrocyte distribution width [Entitic volume] by Automated count</td><td>44.1</td><td>36 - 55</td><td></td><td>fL</td></tr></table></div>"
        },
        "status": "final",
        "subject": {
          "reference": "urn:uuid:2b83f6aa-3fec-4172-bda6-05cd7e04e4fd",
          "display": "Aniela Prażmo"
        },
        "effectiveDateTime": "2025-07-05T13:25:25Z",
        "specimen": {
          "reference": "urn:uuid:ae549bd1-b424-4aa4-a2f7-1af15bc1a915"
        }
      }
    },
    {
      "fullUrl": "urn:uuid:21db7857-1955-4bbb-9ca8-8b8177b00b55",
      "resource": {
        "resourceType": "Observation",
        "id": "21db7857-1955-4bbb-9ca8-8b8177b00b55",
        "meta": {
          "profile": [
            "http://hl7.eu/fhir/laboratory/StructureDefinition/Observation-resultslab-eu-lab"
          ]
        },
        "performer": [
          {
            "display": "The Central European Lab"
          }
        ],
        "category": [
          {
            "coding": [
              {
                "system": "http://terminology.hl7.org/CodeSystem/observation-category",
                "code": "laboratory"
              }
            ]
          }
        ],
        "code": {
          "coding": [
            {
              "code": "777-3",
              "system": "http://loinc.org",
              "display": "Platelets [#/volume] in Blood by Automated count"
            }
          ],
          "text": "Platelets [#/volume] in Blood by Automated count"
        },
        "valueQuantity": {
          "system": "http://unitsofmeasure.org",
          "value": 211.7,
          "unit": "10*3/uL",
          "code": "10*3/uL"
        },
        "referenceRange": [
          {
            "low": {
              "value": 157,
              "code": "10*3/uL",
              "system": "http://unitsofmeasure.org"
            }
          },
          {
            "high": {
              "value": 415,
              "code": "10*3/uL",
              "system": "http://unitsofmeasure.org"
            }
          }
        ],
        "text": {
          "status": "generated",
          "div": "<div xmlns=\"http://www.w3.org/1999/xhtml\"><table class=\"hl7__eu__lab__report\"><tr><th>Test</th><th>05-Jul-2025</th><th>Reference&#xA0;Range</th><th>Unit</th></tr><tr><td>Platelets [#/volume] in Blood by Automated count</td><td>211.7</td><td>157 - 415</td><td></td><td>10*3/uL</td></tr></table></div>"
        },
        "status": "final",
        "subject": {
          "reference": "urn:uuid:2b83f6aa-3fec-4172-bda6-05cd7e04e4fd",
          "display": "Aniela Prażmo"
        },
        "effectiveDateTime": "2025-07-05T13:25:25Z",
        "specimen": {
          "reference": "urn:uuid:ae549bd1-b424-4aa4-a2f7-1af15bc1a915"
        }
      }
    },
    {
      "fullUrl": "urn:uuid:93eccf4e-dde0-4df6-903c-aee0cd903ddf",
      "resource": {
        "resourceType": "Observation",
        "id": "93eccf4e-dde0-4df6-903c-aee0cd903ddf",
        "meta": {
          "profile": [
            "http://hl7.eu/fhir/laboratory/StructureDefinition/Observation-resultslab-eu-lab"
          ]
        },
        "performer": [
          {
            "display": "The Central European Lab"
          }
        ],
        "category": [
          {
            "coding": [
              {
                "system": "http://terminology.hl7.org/CodeSystem/observation-category",
                "code": "laboratory"
              }
            ]
          }
        ],
        "code": {
          "coding": [
            {
              "code": "32207-3",
              "system": "http://loinc.org",
              "display": "Platelet distribution width [Entitic volume] in Blood by Automated count"
            }
          ],
          "text": "Platelet distribution width [Entitic volume] in Blood by Automated count"
        },
        "valueQuantity": {
          "system": "http://unitsofmeasure.org",
          "value": 491.4,
          "unit": "fL",
          "code": "fL"
        },
        "referenceRange": [
          {
            "low": {
              "value": 13.4,
              "code": "fL",
              "system": "http://unitsofmeasure.org"
            }
          },
          {
            "high": {
              "value": 17.4,
              "code": "fL",
              "system": "http://unitsofmeasure.org"
            }
          }
        ],
        "interpretation": [
          {
            "coding": [
              {
                "code": "H",
                "system": "http://terminology.hl7.org/CodeSystem/v3-ObservationInterpretation",
                "display": "High"
              }
            ]
          }
        ],
        "text": {
          "status": "generated",
          "div": "<div xmlns=\"http://www.w3.org/1999/xhtml\"><table class=\"hl7__eu__lab__report\"><tr><th>Test</th><th>05-Jul-2025</th><th>Reference&#xA0;Range</th><th>Unit</th></tr><tr><td>Platelet distribution width [Entitic volume] in Blood by Automated count</td><td>491.4</td><td>13.4 - 17.4</td><td>H</td><td>fL</td></tr></table></div>"
        },
        "status": "final",
        "subject": {
          "reference": "urn:uuid:2b83f6aa-3fec-4172-bda6-05cd7e04e4fd",
          "display": "Aniela Prażmo"
        },
        "effectiveDateTime": "2025-07-05T13:25:25Z",
        "specimen": {
          "reference": "urn:uuid:ae549bd1-b424-4aa4-a2f7-1af15bc1a915"
        }
      }
    },
    {
      "fullUrl": "urn:uuid:83fee53e-b8d4-4f1b-b061-2d6f8e22a821",
      "resource": {
        "resourceType": "Observation",
        "id": "83fee53e-b8d4-4f1b-b061-2d6f8e22a821",
        "meta": {
          "profile": [
            "http://hl7.eu/fhir/laboratory/StructureDefinition/Observation-resultslab-eu-lab"
          ]
        },
        "performer": [
          {
            "display": "The Central European Lab"
          }
        ],
        "category": [
          {
            "coding": [
              {
                "system": "http://terminology.hl7.org/CodeSystem/observation-category",
                "code": "laboratory"
              }
            ]
          }
        ],
        "code": {
          "coding": [
            {
              "code": "32623-1",
              "system": "http://loinc.org",
              "display": "Platelet mean volume [Entitic volume] in Blood by Automated count"
            }
          ],
          "text": "Platelet mean volume [Entitic volume] in Blood by Automated count"
        },
        "valueQuantity": {
          "system": "http://unitsofmeasure.org",
          "value": 9.8,
          "unit": "fL",
          "code": "fL"
        },
        "referenceRange": [
          {
            "low": {
              "value": 7.4,
              "code": "fL",
              "system": "http://unitsofmeasure.org"
            }
          },
          {
            "high": {
              "value": 12,
              "code": "fL",
              "system": "http://unitsofmeasure.org"
            }
          }
        ],
        "text": {
          "status": "generated",
          "div": "<div xmlns=\"http://www.w3.org/1999/xhtml\"><table class=\"hl7__eu__lab__report\"><tr><th>Test</th><th>05-Jul-2025</th><th>Reference&#xA0;Range</th><th>Unit</th></tr><tr><td>Platelet mean volume [Entitic volume] in Blood by Automated count</td><td>9.8</td><td>7.4 - 12</td><td></td><td>fL</td></tr></table></div>"
        },
        "status": "final",
        "subject": {
          "reference": "urn:uuid:2b83f6aa-3fec-4172-bda6-05cd7e04e4fd",
          "display": "Aniela Prażmo"
        },
        "effectiveDateTime": "2025-07-05T13:25:25Z",
        "specimen": {
          "reference": "urn:uuid:ae549bd1-b424-4aa4-a2f7-1af15bc1a915"
        }
      }
    },
    {
      "fullUrl": "urn:uuid:c721e348-fe79-4093-acde-3fd1e7e20d97",
      "resource": {
        "resourceType": "Device",
        "id": "c721e348-fe79-4093-acde-3fd1e7e20d97",
        "deviceName": [
          {
            "name": "SYNDERAI Synthetic Generator",
            "type": "manufacturer-name"
          }
        ],
        "version": [
          {
            "value": "5.0"
          }
        ],
        "text": {
          "status": "generated",
          "div": "<div xmlns=\"http://www.w3.org/1999/xhtml\">SYNDERAI Synthetic Generator v5.0</div>"
        },
        "status": "active\"",
        "distinctIdentifier": "synderai-generator-50",
        "manufacturer": "SYNDERAI Project"
      }
    },
    {
      "fullUrl": "urn:uuid:969db832-727e-4ee4-a80b-21fba0e353a0",
      "resource": {
        "resourceType": "Provenance",
        "id": "969db832-727e-4ee4-a80b-21fba0e353a0",
        "target": [
          {
            "reference": "Patient/2b83f6aa-3fec-4172-bda6-05cd7e04e4fd"
          },
          {
            "reference": "Bundle/7159a41c-2a82-4c27-96d0-f884f35d26ce"
          },
          {
            "reference": "Composition/f157bd4d-9a4b-4689-b846-4bcd468a1b99"
          },
          {
            "reference": "PractitionerRole/48b0e7f6-e73e-4a20-b771-fc665c78df1d"
          },
          {
            "reference": "Practitioner/683afcb6-0af2-4e6f-b220-e18e168ac069"
          },
          {
            "reference": "PractitionerRole/22e2031f-1d8f-4e03-b885-556214f61ee6"
          },
          {
            "reference": "Organization/f5f0b5a0-f9af-457b-9576-808ea6249441"
          }
        ],
        "activity": {
          "text": "Synthetic Example Data Generation"
        },
        "policy": [
          "https://synderai.net/synderai-synthetic-data-policy"
        ],
        "agent": [
          {
            "type": {
              "text": "author"
            },
            "who": {
              "reference": "Device/c721e348-fe79-4093-acde-3fd1e7e20d97"
            }
          }
        ],
        "reason": [
          {
            "text": "Interoperability Testing and Training (non-clinical use)"
          }
        ],
        "text": {
          "status": "generated",
          "div": "<div xmlns=\"http://www.w3.org/1999/xhtml\">Provenance for SYNDERAI Synthetic Example Data Resource</div>"
        },
        "recorded": "2025-07-05T15:25:25Z"
      }
    },
    {
      "fullUrl": "urn:uuid:48b0e7f6-e73e-4a20-b771-fc665c78df1d",
      "resource": {
        "resourceType": "PractitionerRole",
        "id": "48b0e7f6-e73e-4a20-b771-fc665c78df1d",
        "meta": {
          "profile": [
            "http://hl7.eu/fhir/base/StructureDefinition/practitionerRole-eu"
          ]
        },
        "text": {
          "status": "generated",
          "div": "<div xmlns=\"http://www.w3.org/1999/xhtml\">Laboratory Role Id: 48b0e7f6-e73e-4a20-b771-fc665c78df1d</div>"
        },
        "practitioner": {
          "reference": "urn:uuid:683afcb6-0af2-4e6f-b220-e18e168ac069"
        }
      }
    },
    {
      "fullUrl": "urn:uuid:683afcb6-0af2-4e6f-b220-e18e168ac069",
      "resource": {
        "resourceType": "Practitioner",
        "id": "683afcb6-0af2-4e6f-b220-e18e168ac069",
        "meta": {
          "profile": [
            "http://hl7.eu/fhir/base/StructureDefinition/practitioner-eu"
          ]
        },
        "identifier": [
          {
            "assigner": {
              "display": "HL7 Europe"
            },
            "system": "urn:oid:2.16.840.1.113883.2.51.999",
            "value": "f92d8077-436f-49e2-a67b-e3e8dc3d048c"
          }
        ],
        "name": [
          {
            "prefix": [
              "dr"
            ],
            "given": [
              "Ex"
            ],
            "family": "Ample"
          }
        ],
        "address": [
          {
            "line": [
              "Laboratoire Central Européenne",
              "Boulevard du Jardin Botanique 32"
            ],
            "postalCode": "1000",
            "city": "Brussels",
            "country": "Belgium"
          }
        ],
        "text": {
          "status": "generated",
          "div": "<div xmlns=\"http://www.w3.org/1999/xhtml\">Laboratory: Laboratoire Central Européenne, 1000 Brussels, Belgium</div>"
        }
      }
    }
  ],
  "type": "document",
  "timestamp": "2025-07-05T15:25:25Z"
}
