{
  "resourceType": "Bundle",
  "id": "8201c013-3230-4e5d-92f8-ce2754c72392",
  "meta": {
    "profile": [
      "http://hl7.eu/fhir/laboratory/StructureDefinition/Bundle-eu-lab"
    ]
  },
  "identifier": {
    "assigner": {
      "display": "HL7 Europe"
    },
    "system": "urn:oid:2.16.840.1.113883.2.51.999",
    "value": "6b86075f-13a0-4e63-a9af-1d1795e7bdaa"
  },
  "entry": [
    {
      "fullUrl": "urn:uuid:8c59fe0b-49a6-4cff-b8dd-ef7d9e3c7e9b",
      "resource": {
        "resourceType": "Composition",
        "id": "8c59fe0b-49a6-4cff-b8dd-ef7d9e3c7e9b",
        "meta": {
          "profile": [
            "http://hl7.eu/fhir/laboratory/StructureDefinition/Composition-eu-lab"
          ]
        },
        "identifier": {
          "assigner": {
            "display": "HL7 Europe"
          },
          "system": "urn:oid:2.16.840.1.113883.2.51.999",
          "value": "0559297f-1f27-4251-acee-2457bb0cd55e"
        },
        "author": [
          {
            "reference": "urn:uuid:2b6786e3-2132-4ef8-97c6-8511683447c6"
          }
        ],
        "category": [
          {
            "coding": [
              {
                "code": "26436-6",
                "system": "http://loinc.org",
                "display": "Laboratory studies (set)"
              }
            ]
          }
        ],
        "type": {
          "coding": [
            {
              "code": "11502-2",
              "system": "http://loinc.org",
              "display": "Laboratory report"
            }
          ],
          "text": "Laboratory Report"
        },
        "section": [
          {
            "code": {
              "coding": [
                {
                  "code": "26436-6",
                  "system": "http://loinc.org",
                  "display": "Laboratory studies (set)"
                }
              ],
              "text": "Laboratory studies"
            },
            "section": [
              {
                "code": {
                  "coding": [
                    {
                      "code": "$18719-5",
                      "system": "http://loinc.org",
                      "display": "Chemistry studies (set)"
                    }
                  ],
                  "text": "Chemistry"
                },
                "entry": [
                  {
                    "reference": "urn:uuid:98ea3a2f-b39b-4bfc-beff-4926527348df"
                  },
                  {
                    "reference": "urn:uuid:a0de0a29-d989-4c1d-a5a0-9fbb77e80802"
                  },
                  {
                    "reference": "urn:uuid:4128994d-37d1-420f-8307-12d8c8393551"
                  },
                  {
                    "reference": "urn:uuid:80bf81a0-3d81-4daa-a58c-062ae527e26b"
                  },
                  {
                    "reference": "urn:uuid:22756ae3-10e3-4ad6-b2d7-536de43617f3"
                  },
                  {
                    "reference": "urn:uuid:e2bce4b1-7fb8-4549-9dc4-5f0538897615"
                  },
                  {
                    "reference": "urn:uuid:031abb67-2133-4fdd-921f-eba930ec79dc"
                  },
                  {
                    "reference": "urn:uuid:1eefb788-362e-48b0-affc-93e22734b9b7"
                  },
                  {
                    "reference": "urn:uuid:0f0ada65-5ea4-4f4a-871b-46f11ea5c25f"
                  },
                  {
                    "reference": "urn:uuid:166a3626-177c-4659-a3c2-c228e72ebf07"
                  },
                  {
                    "reference": "urn:uuid:ed052d5e-ad66-471d-b3d3-1b93413e0e5a"
                  },
                  {
                    "reference": "urn:uuid:6665cbb0-566e-4653-8a60-21cd080e0809"
                  },
                  {
                    "reference": "urn:uuid:d1a69b7d-3cb9-4f76-9af1-fb34d52b1542"
                  }
                ],
                "text": {
                  "status": "generated",
                  "div": "<div xmlns=\"http://www.w3.org/1999/xhtml\"><h3>Chemistry</h3><table class=\"hl7__eu__lab__report\"><thead><tr><th>Test</th><th>23-NOV-2024</th><th>Reference&#xA0;Range</th><th>Unit</th></tr></thead><tbody><tr><td>Hemoglobin A1c/Hemoglobin.total in Blood</td><td>5.9</td><td>4.5 - 6.4</td><td>%</td></tr><tr><td>Glucose [Mass/volume] in Blood</td><td>73.1</td><td>70 - 140</td><td>mg/dL</td></tr><tr><td>Urea nitrogen [Mass/volume] in Blood</td><td>9.7</td><td>7 - 25</td><td>mg/dL</td></tr><tr><td>Creatinine [Mass/volume] in Blood</td><td>0.6</td><td>0.6 - 1.1</td><td>mg/dL</td></tr><tr><td>Calcium [Mass/volume] in Blood</td><td>9.3</td><td>8.6 - 10.4</td><td>mg/dL</td></tr><tr><td>Sodium [Moles/volume] in Blood</td><td>141.1</td><td>135 - 145</td><td>mmol/L</td></tr><tr><td>Potassium [Moles/volume] in Blood</td><td>4.8</td><td>3.5 - 5.3</td><td>mmol/L</td></tr><tr><td>Chloride [Moles/volume] in Blood</td><td>107.0</td><td>98 - 108</td><td>mmol/L</td></tr><tr><td>Carbon dioxide, total [Moles/volume] in Blood</td><td>23.3</td><td>22 - 32</td><td>mmol/L</td></tr><tr><td>Cholesterol [Mass/volume] in Serum or Plasma</td><td>155.3</td><td>125 - 200</td><td>mg/dL</td></tr><tr><td>Triglyceride [Mass/volume] in Serum or Plasma</td><td>143.6</td><td>10 - 175</td><td>mg/dL</td></tr><tr><td>Cholesterol in LDL [Mass/volume] in Serum or Plasma by Direct assay</td><td>76.2</td><td>0 - 130</td><td>mg/dL</td></tr><tr><td>Cholesterol in HDL [Mass/volume] in Serum or Plasma</td><td>50.5</td><td>50 - 100</td><td>mg/dL</td></tr></tbody></table></div>"
                },
                "title": "Chemistry"
              }
            ],
            "title": "Laboratory Report"
          },
          {
            "text": {
              "status": "generated",
              "div": "<div xmlns=\"http://www.w3.org/1999/xhtml\"><h3>Annotation</h3><table class=\"hl7__eu__lab__report\"><tr><th>Conclusion and Recommendations based on this report and previous findings known to us</th></tr><tr><td>All measured parameters are within normal limits for this 85-year-old female patient. Glycemic control, renal function, electrolytes, and lipid profile are unremarkable. No laboratory evidence of acute or chronic metabolic, renal, or lipid abnormalities at this time. Continued routine monitoring is recommended.</td></tr></table></div>"
            },
            "code": {
              "coding": [
                {
                  "system": "http://loinc.org",
                  "code": "48767-8",
                  "display": "Annotation comment"
                }
              ]
            },
            "title": "Annotation comment"
          }
        ],
        "status": "final",
        "subject": {
          "reference": "urn:uuid:f4156db1-1c33-45c3-bfd3-912793f06aab",
          "display": "Helene Andresen"
        },
        "date": "2024-11-23T23:53:36Z",
        "title": "Laboratory Report",
        "confidentiality": "N"
      }
    },
    {
      "fullUrl": "urn:uuid:38fdc5d7-f6b4-4917-9020-1f20af714a1a",
      "resource": {
        "resourceType": "DiagnosticReport",
        "id": "38fdc5d7-f6b4-4917-9020-1f20af714a1a",
        "meta": {
          "profile": [
            "http://hl7.eu/fhir/laboratory/StructureDefinition/DiagnosticReport-eu-lab"
          ]
        },
        "identifier": [
          {
            "assigner": {
              "display": "HL7 Europe"
            },
            "system": "urn:oid:2.16.840.1.113883.2.51.999",
            "value": "a15c94c1-d955-4156-b11e-e31873227cfc"
          }
        ],
        "extension": [
          {
            "url": "http://hl7.org/fhir/5.0/StructureDefinition/extension-DiagnosticReport.composition",
            "valueReference": {
              "reference": "urn:uuid:0559297f-1f27-4251-acee-2457bb0cd55e"
            }
          }
        ],
        "category": [
          {
            "coding": [
              {
                "code": "26436-6",
                "system": "http://loinc.org",
                "display": "Laboratory studies (set)"
              }
            ]
          }
        ],
        "specimen": [
          {
            "reference": "urn:uuid:eb7efc17-daaf-43e2-872b-87e3433a9fcc"
          },
          {
            "reference": "urn:uuid:14be7a9f-2896-4951-a947-7a755bb27cae"
          }
        ],
        "result": [
          {
            "reference": "urn:uuid:98ea3a2f-b39b-4bfc-beff-4926527348df"
          },
          {
            "reference": "urn:uuid:a0de0a29-d989-4c1d-a5a0-9fbb77e80802"
          },
          {
            "reference": "urn:uuid:4128994d-37d1-420f-8307-12d8c8393551"
          },
          {
            "reference": "urn:uuid:80bf81a0-3d81-4daa-a58c-062ae527e26b"
          },
          {
            "reference": "urn:uuid:22756ae3-10e3-4ad6-b2d7-536de43617f3"
          },
          {
            "reference": "urn:uuid:e2bce4b1-7fb8-4549-9dc4-5f0538897615"
          },
          {
            "reference": "urn:uuid:031abb67-2133-4fdd-921f-eba930ec79dc"
          },
          {
            "reference": "urn:uuid:1eefb788-362e-48b0-affc-93e22734b9b7"
          },
          {
            "reference": "urn:uuid:0f0ada65-5ea4-4f4a-871b-46f11ea5c25f"
          },
          {
            "reference": "urn:uuid:166a3626-177c-4659-a3c2-c228e72ebf07"
          },
          {
            "reference": "urn:uuid:ed052d5e-ad66-471d-b3d3-1b93413e0e5a"
          },
          {
            "reference": "urn:uuid:6665cbb0-566e-4653-8a60-21cd080e0809"
          },
          {
            "reference": "urn:uuid:d1a69b7d-3cb9-4f76-9af1-fb34d52b1542"
          }
        ],
        "status": "registered",
        "code": {
          "coding": [
            {
              "code": "11502-2",
              "system": "http://loinc.org",
              "display": "Laboratory report"
            }
          ]
        },
        "subject": {
          "reference": "urn:uuid:f4156db1-1c33-45c3-bfd3-912793f06aab",
          "display": "Helene Andresen"
        }
      }
    },
    {
      "fullUrl": "urn:uuid:f4156db1-1c33-45c3-bfd3-912793f06aab",
      "resource": {
        "resourceType": "Patient",
        "id": "f4156db1-1c33-45c3-bfd3-912793f06aab",
        "meta": {
          "security": [
            {
              "system": "http://terminology.hl7.org/CodeSystem/v3-ActReason",
              "code": "HTEST"
            },
            {
              "system": "http://terminology.hl7.org/CodeSystem/v3-ActReason",
              "code": "TRAIN"
            }
          ],
          "tag": [
            {
              "system": "https://synderai.net/fhir/CodeSystem/tags",
              "code": "synthetic",
              "display": "SYNDERAI Synthetic data"
            }
          ],
          "profile": [
            "http://hl7.eu/fhir/base/StructureDefinition/patient-eu-core"
          ]
        },
        "identifier": [
          {
            "type": {
              "coding": [
                {
                  "code": "PT",
                  "system": "http://terminology.hl7.org/CodeSystem/v2-0203"
                }
              ]
            },
            "system": "http://ec.europa.eu/identifier/eci",
            "value": "3450-170343-2"
          },
          {
            "type": {
              "coding": [
                {
                  "code": "MR",
                  "system": "http://terminology.hl7.org/CodeSystem/v2-0203"
                }
              ]
            },
            "system": "http://local.setting.eu/identifier",
            "value": "72e91c9c-0b01-42b0-a6a0-6dcc70aeec49"
          }
        ],
        "name": [
          {
            "family": "Andresen"
          },
          {
            "given": [
              "Helene"
            ]
          },
          {
            "text": "Helene Andresen"
          }
        ],
        "address": [
          {
            "line": [
              "Kristiansenberget 2"
            ],
            "use": "home",
            "type": "physical",
            "postalCode": "0172",
            "city": "Sørensen",
            "country": "Norway"
          }
        ],
        "telecom": [
          {
            "system": "phone",
            "value": "53 98 86 24"
          }
        ],
        "extension": [
          {
            "url": "http://hl7.org/fhir/StructureDefinition/patient-nationality",
            "valueCodeableConcept": {
              "coding": [
                {
                  "code": "NO",
                  "system": "http://hl7.org/fhir/ValueSet/country"
                }
              ]
            }
          }
        ],
        "text": {
          "status": "generated",
          "div": "<div xmlns=\"http://www.w3.org/1999/xhtml\"><table class=\"hl7__ips\"><tr><td>Helene Andresen</td><td>female</td><td>17-Oct-1939</td></tr></table></div>"
        },
        "gender": "female",
        "birthDate": "1939-10-17"
      }
    },
    {
      "fullUrl": "urn:uuid:a38da174-124f-49f6-a141-e0d34f747f5a",
      "resource": {
        "resourceType": "ServiceRequest",
        "id": "a38da174-124f-49f6-a141-e0d34f747f5a",
        "meta": {
          "profile": [
            "http://hl7.eu/fhir/laboratory/StructureDefinition/ServiceRequest-eu-lab"
          ]
        },
        "identifier": [
          {
            "system": "http://example.org",
            "value": "7c96fd9a-f9ab-435f-9387-3d29e39b6f02"
          }
        ],
        "specimen": [
          {
            "reference": "urn:uuid:eb7efc17-daaf-43e2-872b-87e3433a9fcc"
          },
          {
            "reference": "urn:uuid:14be7a9f-2896-4951-a947-7a755bb27cae"
          }
        ],
        "reasonCode": [
          {
            "coding": [
              {
                "code": "64859006",
                "system": "http://snomed.info/sct",
                "display": "Osteoporosis"
              }
            ]
          },
          {
            "coding": [
              {
                "code": "40055000",
                "system": "http://snomed.info/sct",
                "display": "Chronic sinusitis"
              }
            ]
          },
          {
            "coding": [
              {
                "code": "55822004",
                "system": "http://snomed.info/sct",
                "display": "Hyperlipidemia"
              }
            ]
          },
          {
            "coding": [
              {
                "code": "271737000",
                "system": "http://snomed.info/sct",
                "display": "Anemia"
              }
            ]
          },
          {
            "coding": [
              {
                "code": "15777000",
                "system": "http://snomed.info/sct",
                "display": "Prediabetes"
              }
            ]
          },
          {
            "coding": [
              {
                "code": "128613002",
                "system": "http://snomed.info/sct",
                "display": "Seizure disorder"
              }
            ]
          }
        ],
        "status": "active",
        "intent": "order",
        "code": {
          "coding": [
            {
              "code": "108252007",
              "system": "http://snomed.info/sct",
              "display": "Laboratory procedure"
            }
          ]
        },
        "subject": {
          "reference": "urn:uuid:f4156db1-1c33-45c3-bfd3-912793f06aab",
          "display": "Helene Andresen"
        },
        "requester": {
          "reference": "urn:uuid:8fb665e9-18d7-4834-9f31-7fd2883c90a0"
        }
      }
    },
    {
      "fullUrl": "urn:uuid:8fb665e9-18d7-4834-9f31-7fd2883c90a0",
      "resource": {
        "resourceType": "PractitionerRole",
        "id": "8fb665e9-18d7-4834-9f31-7fd2883c90a0",
        "meta": {
          "profile": [
            "http://hl7.eu/fhir/base/StructureDefinition/practitionerRole-eu"
          ]
        },
        "text": {
          "status": "generated",
          "div": "<div xmlns=\"http://www.w3.org/1999/xhtml\">Provider Role Id: 8fb665e9-18d7-4834-9f31-7fd2883c90a0</div>"
        },
        "organization": {
          "reference": "urn:uuid:51c3aa47-7d0c-455a-8937-15882a280d7d"
        }
      }
    },
    {
      "fullUrl": "urn:uuid:51c3aa47-7d0c-455a-8937-15882a280d7d",
      "resource": {
        "resourceType": "Organization",
        "id": "51c3aa47-7d0c-455a-8937-15882a280d7d",
        "meta": {
          "profile": [
            "http://hl7.eu/fhir/base/StructureDefinition/organization-eu"
          ]
        },
        "identifier": [
          {
            "assigner": {
              "display": "HL7 Europe"
            },
            "system": "urn:oid:2.16.840.1.113883.2.51.999",
            "value": "2d1abcf9-10f9-4372-a4a2-d684a62b3354"
          }
        ],
        "address": [
          {
            "city": "Oslo",
            "postalCode": "0155",
            "country": "Norway"
          }
        ],
        "text": {
          "status": "generated",
          "div": "<div xmlns=\"http://www.w3.org/1999/xhtml\">Provider Organization: Oslo universitetssykehus (Ullevål)</div>"
        },
        "name": "Oslo universitetssykehus (Ullevål)"
      }
    },
    {
      "fullUrl": "urn:uuid:eb7efc17-daaf-43e2-872b-87e3433a9fcc",
      "resource": {
        "resourceType": "Specimen",
        "id": "eb7efc17-daaf-43e2-872b-87e3433a9fcc",
        "meta": {
          "profile": [
            "http://hl7.eu/fhir/laboratory/StructureDefinition/Specimen-eu-lab"
          ]
        },
        "collection": {
          "collectedDateTime": "2024-11-23"
        },
        "text": {
          "status": "generated",
          "div": "<div xmlns=\"http://www.w3.org/1999/xhtml\"><table class=\"hl7__eu__lab__report\"><tr><th>Specimen</th><th>Collection Date</th></tr><tr><td>Whole blood specimen (specimen)</td><td><span class=\"nb\">23-Nov-2024</span></td></tr></table></div>"
        },
        "type": {
          "coding": [
            {
              "code": "258580003",
              "system": "http://snomed.info/sct",
              "display": "Whole blood specimen (specimen)"
            }
          ]
        }
      }
    },
    {
      "fullUrl": "urn:uuid:14be7a9f-2896-4951-a947-7a755bb27cae",
      "resource": {
        "resourceType": "Specimen",
        "id": "14be7a9f-2896-4951-a947-7a755bb27cae",
        "meta": {
          "profile": [
            "http://hl7.eu/fhir/laboratory/StructureDefinition/Specimen-eu-lab"
          ]
        },
        "collection": {
          "collectedDateTime": "2024-11-23"
        },
        "text": {
          "status": "generated",
          "div": "<div xmlns=\"http://www.w3.org/1999/xhtml\"><table class=\"hl7__eu__lab__report\"><tr><th>Specimen</th><th>Collection Date</th></tr><tr><td>Acellular blood (serum or plasma) specimen</td><td><span class=\"nb\">23-Nov-2024</span></td></tr></table></div>"
        },
        "type": {
          "coding": [
            {
              "code": "122592007",
              "system": "http://snomed.info/sct",
              "display": "Acellular blood (serum or plasma) specimen"
            }
          ]
        }
      }
    },
    {
      "fullUrl": "urn:uuid:98ea3a2f-b39b-4bfc-beff-4926527348df",
      "resource": {
        "resourceType": "Observation",
        "id": "98ea3a2f-b39b-4bfc-beff-4926527348df",
        "meta": {
          "profile": [
            "http://hl7.eu/fhir/laboratory/StructureDefinition/Observation-resultslab-eu-lab"
          ]
        },
        "performer": [
          {
            "display": "The Central European Lab"
          }
        ],
        "category": [
          {
            "coding": [
              {
                "system": "http://terminology.hl7.org/CodeSystem/observation-category",
                "code": "laboratory"
              }
            ]
          }
        ],
        "code": {
          "coding": [
            {
              "code": "4548-4",
              "system": "http://loinc.org",
              "display": "Hemoglobin A1c/Hemoglobin.total in Blood"
            }
          ],
          "text": "Hemoglobin A1c/Hemoglobin.total in Blood"
        },
        "valueQuantity": {
          "system": "http://unitsofmeasure.org",
          "value": 5.9,
          "unit": "%",
          "code": "%"
        },
        "referenceRange": [
          {
            "low": {
              "value": 4.5,
              "code": "%",
              "system": "http://unitsofmeasure.org"
            }
          },
          {
            "high": {
              "value": 6.4,
              "code": "%",
              "system": "http://unitsofmeasure.org"
            }
          }
        ],
        "text": {
          "status": "generated",
          "div": "<div xmlns=\"http://www.w3.org/1999/xhtml\"><table class=\"hl7__eu__lab__report\"><tr><th>Test</th><th>23-Nov-2024</th><th>Reference&#xA0;Range</th><th>Unit</th></tr><tr><td>Hemoglobin A1c/Hemoglobin.total in Blood</td><td>5.9</td><td>4.5 - 6.4</td><td></td><td>%</td></tr></table></div>"
        },
        "status": "final",
        "subject": {
          "reference": "urn:uuid:f4156db1-1c33-45c3-bfd3-912793f06aab",
          "display": "Helene Andresen"
        },
        "effectiveDateTime": "2024-11-23T22:53:36Z",
        "specimen": {
          "reference": "urn:uuid:eb7efc17-daaf-43e2-872b-87e3433a9fcc"
        }
      }
    },
    {
      "fullUrl": "urn:uuid:a0de0a29-d989-4c1d-a5a0-9fbb77e80802",
      "resource": {
        "resourceType": "Observation",
        "id": "a0de0a29-d989-4c1d-a5a0-9fbb77e80802",
        "meta": {
          "profile": [
            "http://hl7.eu/fhir/laboratory/StructureDefinition/Observation-resultslab-eu-lab"
          ]
        },
        "performer": [
          {
            "display": "The Central European Lab"
          }
        ],
        "category": [
          {
            "coding": [
              {
                "system": "http://terminology.hl7.org/CodeSystem/observation-category",
                "code": "laboratory"
              }
            ]
          }
        ],
        "code": {
          "coding": [
            {
              "code": "2339-0",
              "system": "http://loinc.org",
              "display": "Glucose [Mass/volume] in Blood"
            }
          ],
          "text": "Glucose [Mass/volume] in Blood"
        },
        "valueQuantity": {
          "system": "http://unitsofmeasure.org",
          "value": 73.1,
          "unit": "mg/dL",
          "code": "mg/dL"
        },
        "referenceRange": [
          {
            "low": {
              "value": 70,
              "code": "mg/dL",
              "system": "http://unitsofmeasure.org"
            }
          },
          {
            "high": {
              "value": 140,
              "code": "mg/dL",
              "system": "http://unitsofmeasure.org"
            }
          }
        ],
        "text": {
          "status": "generated",
          "div": "<div xmlns=\"http://www.w3.org/1999/xhtml\"><table class=\"hl7__eu__lab__report\"><tr><th>Test</th><th>23-Nov-2024</th><th>Reference&#xA0;Range</th><th>Unit</th></tr><tr><td>Glucose [Mass/volume] in Blood</td><td>73.1</td><td>70 - 140</td><td></td><td>mg/dL</td></tr></table></div>"
        },
        "status": "final",
        "subject": {
          "reference": "urn:uuid:f4156db1-1c33-45c3-bfd3-912793f06aab",
          "display": "Helene Andresen"
        },
        "effectiveDateTime": "2024-11-23T22:53:36Z",
        "specimen": {
          "reference": "urn:uuid:eb7efc17-daaf-43e2-872b-87e3433a9fcc"
        }
      }
    },
    {
      "fullUrl": "urn:uuid:4128994d-37d1-420f-8307-12d8c8393551",
      "resource": {
        "resourceType": "Observation",
        "id": "4128994d-37d1-420f-8307-12d8c8393551",
        "meta": {
          "profile": [
            "http://hl7.eu/fhir/laboratory/StructureDefinition/Observation-resultslab-eu-lab"
          ]
        },
        "performer": [
          {
            "display": "The Central European Lab"
          }
        ],
        "category": [
          {
            "coding": [
              {
                "system": "http://terminology.hl7.org/CodeSystem/observation-category",
                "code": "laboratory"
              }
            ]
          }
        ],
        "code": {
          "coding": [
            {
              "code": "6299-2",
              "system": "http://loinc.org",
              "display": "Urea nitrogen [Mass/volume] in Blood"
            }
          ],
          "text": "Urea nitrogen [Mass/volume] in Blood"
        },
        "valueQuantity": {
          "system": "http://unitsofmeasure.org",
          "value": 9.7,
          "unit": "mg/dL",
          "code": "mg/dL"
        },
        "referenceRange": [
          {
            "low": {
              "value": 7,
              "code": "mg/dL",
              "system": "http://unitsofmeasure.org"
            }
          },
          {
            "high": {
              "value": 25,
              "code": "mg/dL",
              "system": "http://unitsofmeasure.org"
            }
          }
        ],
        "text": {
          "status": "generated",
          "div": "<div xmlns=\"http://www.w3.org/1999/xhtml\"><table class=\"hl7__eu__lab__report\"><tr><th>Test</th><th>23-Nov-2024</th><th>Reference&#xA0;Range</th><th>Unit</th></tr><tr><td>Urea nitrogen [Mass/volume] in Blood</td><td>9.7</td><td>7 - 25</td><td></td><td>mg/dL</td></tr></table></div>"
        },
        "status": "final",
        "subject": {
          "reference": "urn:uuid:f4156db1-1c33-45c3-bfd3-912793f06aab",
          "display": "Helene Andresen"
        },
        "effectiveDateTime": "2024-11-23T22:53:36Z",
        "specimen": {
          "reference": "urn:uuid:eb7efc17-daaf-43e2-872b-87e3433a9fcc"
        }
      }
    },
    {
      "fullUrl": "urn:uuid:80bf81a0-3d81-4daa-a58c-062ae527e26b",
      "resource": {
        "resourceType": "Observation",
        "id": "80bf81a0-3d81-4daa-a58c-062ae527e26b",
        "meta": {
          "profile": [
            "http://hl7.eu/fhir/laboratory/StructureDefinition/Observation-resultslab-eu-lab"
          ]
        },
        "performer": [
          {
            "display": "The Central European Lab"
          }
        ],
        "category": [
          {
            "coding": [
              {
                "system": "http://terminology.hl7.org/CodeSystem/observation-category",
                "code": "laboratory"
              }
            ]
          }
        ],
        "code": {
          "coding": [
            {
              "code": "38483-4",
              "system": "http://loinc.org",
              "display": "Creatinine [Mass/volume] in Blood"
            }
          ],
          "text": "Creatinine [Mass/volume] in Blood"
        },
        "valueQuantity": {
          "system": "http://unitsofmeasure.org",
          "value": 0.6,
          "unit": "mg/dL",
          "code": "mg/dL"
        },
        "referenceRange": [
          {
            "low": {
              "value": 0.6,
              "code": "mg/dL",
              "system": "http://unitsofmeasure.org"
            }
          },
          {
            "high": {
              "value": 1.1,
              "code": "mg/dL",
              "system": "http://unitsofmeasure.org"
            }
          }
        ],
        "text": {
          "status": "generated",
          "div": "<div xmlns=\"http://www.w3.org/1999/xhtml\"><table class=\"hl7__eu__lab__report\"><tr><th>Test</th><th>23-Nov-2024</th><th>Reference&#xA0;Range</th><th>Unit</th></tr><tr><td>Creatinine [Mass/volume] in Blood</td><td>0.6</td><td>0.6 - 1.1</td><td></td><td>mg/dL</td></tr></table></div>"
        },
        "status": "final",
        "subject": {
          "reference": "urn:uuid:f4156db1-1c33-45c3-bfd3-912793f06aab",
          "display": "Helene Andresen"
        },
        "effectiveDateTime": "2024-11-23T22:53:36Z",
        "specimen": {
          "reference": "urn:uuid:eb7efc17-daaf-43e2-872b-87e3433a9fcc"
        }
      }
    },
    {
      "fullUrl": "urn:uuid:22756ae3-10e3-4ad6-b2d7-536de43617f3",
      "resource": {
        "resourceType": "Observation",
        "id": "22756ae3-10e3-4ad6-b2d7-536de43617f3",
        "meta": {
          "profile": [
            "http://hl7.eu/fhir/laboratory/StructureDefinition/Observation-resultslab-eu-lab"
          ]
        },
        "performer": [
          {
            "display": "The Central European Lab"
          }
        ],
        "category": [
          {
            "coding": [
              {
                "system": "http://terminology.hl7.org/CodeSystem/observation-category",
                "code": "laboratory"
              }
            ]
          }
        ],
        "code": {
          "coding": [
            {
              "code": "49765-1",
              "system": "http://loinc.org",
              "display": "Calcium [Mass/volume] in Blood"
            }
          ],
          "text": "Calcium [Mass/volume] in Blood"
        },
        "valueQuantity": {
          "system": "http://unitsofmeasure.org",
          "value": 9.3,
          "unit": "mg/dL",
          "code": "mg/dL"
        },
        "referenceRange": [
          {
            "low": {
              "value": 8.6,
              "code": "mg/dL",
              "system": "http://unitsofmeasure.org"
            }
          },
          {
            "high": {
              "value": 10.4,
              "code": "mg/dL",
              "system": "http://unitsofmeasure.org"
            }
          }
        ],
        "text": {
          "status": "generated",
          "div": "<div xmlns=\"http://www.w3.org/1999/xhtml\"><table class=\"hl7__eu__lab__report\"><tr><th>Test</th><th>23-Nov-2024</th><th>Reference&#xA0;Range</th><th>Unit</th></tr><tr><td>Calcium [Mass/volume] in Blood</td><td>9.3</td><td>8.6 - 10.4</td><td></td><td>mg/dL</td></tr></table></div>"
        },
        "status": "final",
        "subject": {
          "reference": "urn:uuid:f4156db1-1c33-45c3-bfd3-912793f06aab",
          "display": "Helene Andresen"
        },
        "effectiveDateTime": "2024-11-23T22:53:36Z",
        "specimen": {
          "reference": "urn:uuid:eb7efc17-daaf-43e2-872b-87e3433a9fcc"
        }
      }
    },
    {
      "fullUrl": "urn:uuid:e2bce4b1-7fb8-4549-9dc4-5f0538897615",
      "resource": {
        "resourceType": "Observation",
        "id": "e2bce4b1-7fb8-4549-9dc4-5f0538897615",
        "meta": {
          "profile": [
            "http://hl7.eu/fhir/laboratory/StructureDefinition/Observation-resultslab-eu-lab"
          ]
        },
        "performer": [
          {
            "display": "The Central European Lab"
          }
        ],
        "category": [
          {
            "coding": [
              {
                "system": "http://terminology.hl7.org/CodeSystem/observation-category",
                "code": "laboratory"
              }
            ]
          }
        ],
        "code": {
          "coding": [
            {
              "code": "2947-0",
              "system": "http://loinc.org",
              "display": "Sodium [Moles/volume] in Blood"
            }
          ],
          "text": "Sodium [Moles/volume] in Blood"
        },
        "valueQuantity": {
          "system": "http://unitsofmeasure.org",
          "value": 141.1,
          "unit": "mmol/L",
          "code": "mmol/L"
        },
        "referenceRange": [
          {
            "low": {
              "value": 135,
              "code": "mmol/L",
              "system": "http://unitsofmeasure.org"
            }
          },
          {
            "high": {
              "value": 145,
              "code": "mmol/L",
              "system": "http://unitsofmeasure.org"
            }
          }
        ],
        "text": {
          "status": "generated",
          "div": "<div xmlns=\"http://www.w3.org/1999/xhtml\"><table class=\"hl7__eu__lab__report\"><tr><th>Test</th><th>23-Nov-2024</th><th>Reference&#xA0;Range</th><th>Unit</th></tr><tr><td>Sodium [Moles/volume] in Blood</td><td>141.1</td><td>135 - 145</td><td></td><td>mmol/L</td></tr></table></div>"
        },
        "status": "final",
        "subject": {
          "reference": "urn:uuid:f4156db1-1c33-45c3-bfd3-912793f06aab",
          "display": "Helene Andresen"
        },
        "effectiveDateTime": "2024-11-23T22:53:36Z",
        "specimen": {
          "reference": "urn:uuid:eb7efc17-daaf-43e2-872b-87e3433a9fcc"
        }
      }
    },
    {
      "fullUrl": "urn:uuid:031abb67-2133-4fdd-921f-eba930ec79dc",
      "resource": {
        "resourceType": "Observation",
        "id": "031abb67-2133-4fdd-921f-eba930ec79dc",
        "meta": {
          "profile": [
            "http://hl7.eu/fhir/laboratory/StructureDefinition/Observation-resultslab-eu-lab"
          ]
        },
        "performer": [
          {
            "display": "The Central European Lab"
          }
        ],
        "category": [
          {
            "coding": [
              {
                "system": "http://terminology.hl7.org/CodeSystem/observation-category",
                "code": "laboratory"
              }
            ]
          }
        ],
        "code": {
          "coding": [
            {
              "code": "6298-4",
              "system": "http://loinc.org",
              "display": "Potassium [Moles/volume] in Blood"
            }
          ],
          "text": "Potassium [Moles/volume] in Blood"
        },
        "valueQuantity": {
          "system": "http://unitsofmeasure.org",
          "value": 4.8,
          "unit": "mmol/L",
          "code": "mmol/L"
        },
        "referenceRange": [
          {
            "low": {
              "value": 3.5,
              "code": "mmol/L",
              "system": "http://unitsofmeasure.org"
            }
          },
          {
            "high": {
              "value": 5.3,
              "code": "mmol/L",
              "system": "http://unitsofmeasure.org"
            }
          }
        ],
        "text": {
          "status": "generated",
          "div": "<div xmlns=\"http://www.w3.org/1999/xhtml\"><table class=\"hl7__eu__lab__report\"><tr><th>Test</th><th>23-Nov-2024</th><th>Reference&#xA0;Range</th><th>Unit</th></tr><tr><td>Potassium [Moles/volume] in Blood</td><td>4.8</td><td>3.5 - 5.3</td><td></td><td>mmol/L</td></tr></table></div>"
        },
        "status": "final",
        "subject": {
          "reference": "urn:uuid:f4156db1-1c33-45c3-bfd3-912793f06aab",
          "display": "Helene Andresen"
        },
        "effectiveDateTime": "2024-11-23T22:53:36Z",
        "specimen": {
          "reference": "urn:uuid:eb7efc17-daaf-43e2-872b-87e3433a9fcc"
        }
      }
    },
    {
      "fullUrl": "urn:uuid:1eefb788-362e-48b0-affc-93e22734b9b7",
      "resource": {
        "resourceType": "Observation",
        "id": "1eefb788-362e-48b0-affc-93e22734b9b7",
        "meta": {
          "profile": [
            "http://hl7.eu/fhir/laboratory/StructureDefinition/Observation-resultslab-eu-lab"
          ]
        },
        "performer": [
          {
            "display": "The Central European Lab"
          }
        ],
        "category": [
          {
            "coding": [
              {
                "system": "http://terminology.hl7.org/CodeSystem/observation-category",
                "code": "laboratory"
              }
            ]
          }
        ],
        "code": {
          "coding": [
            {
              "code": "2069-3",
              "system": "http://loinc.org",
              "display": "Chloride [Moles/volume] in Blood"
            }
          ],
          "text": "Chloride [Moles/volume] in Blood"
        },
        "valueQuantity": {
          "system": "http://unitsofmeasure.org",
          "value": 107,
          "unit": "mmol/L",
          "code": "mmol/L"
        },
        "referenceRange": [
          {
            "low": {
              "value": 98,
              "code": "mmol/L",
              "system": "http://unitsofmeasure.org"
            }
          },
          {
            "high": {
              "value": 108,
              "code": "mmol/L",
              "system": "http://unitsofmeasure.org"
            }
          }
        ],
        "text": {
          "status": "generated",
          "div": "<div xmlns=\"http://www.w3.org/1999/xhtml\"><table class=\"hl7__eu__lab__report\"><tr><th>Test</th><th>23-Nov-2024</th><th>Reference&#xA0;Range</th><th>Unit</th></tr><tr><td>Chloride [Moles/volume] in Blood</td><td>107.0</td><td>98 - 108</td><td></td><td>mmol/L</td></tr></table></div>"
        },
        "status": "final",
        "subject": {
          "reference": "urn:uuid:f4156db1-1c33-45c3-bfd3-912793f06aab",
          "display": "Helene Andresen"
        },
        "effectiveDateTime": "2024-11-23T22:53:36Z",
        "specimen": {
          "reference": "urn:uuid:eb7efc17-daaf-43e2-872b-87e3433a9fcc"
        }
      }
    },
    {
      "fullUrl": "urn:uuid:0f0ada65-5ea4-4f4a-871b-46f11ea5c25f",
      "resource": {
        "resourceType": "Observation",
        "id": "0f0ada65-5ea4-4f4a-871b-46f11ea5c25f",
        "meta": {
          "profile": [
            "http://hl7.eu/fhir/laboratory/StructureDefinition/Observation-resultslab-eu-lab"
          ]
        },
        "performer": [
          {
            "display": "The Central European Lab"
          }
        ],
        "category": [
          {
            "coding": [
              {
                "system": "http://terminology.hl7.org/CodeSystem/observation-category",
                "code": "laboratory"
              }
            ]
          }
        ],
        "code": {
          "coding": [
            {
              "code": "20565-8",
              "system": "http://loinc.org",
              "display": "Carbon dioxide, total [Moles/volume] in Blood"
            }
          ],
          "text": "Carbon dioxide, total [Moles/volume] in Blood"
        },
        "valueQuantity": {
          "system": "http://unitsofmeasure.org",
          "value": 23.3,
          "unit": "mmol/L",
          "code": "mmol/L"
        },
        "referenceRange": [
          {
            "low": {
              "value": 22,
              "code": "mmol/L",
              "system": "http://unitsofmeasure.org"
            }
          },
          {
            "high": {
              "value": 32,
              "code": "mmol/L",
              "system": "http://unitsofmeasure.org"
            }
          }
        ],
        "text": {
          "status": "generated",
          "div": "<div xmlns=\"http://www.w3.org/1999/xhtml\"><table class=\"hl7__eu__lab__report\"><tr><th>Test</th><th>23-Nov-2024</th><th>Reference&#xA0;Range</th><th>Unit</th></tr><tr><td>Carbon dioxide, total [Moles/volume] in Blood</td><td>23.3</td><td>22 - 32</td><td></td><td>mmol/L</td></tr></table></div>"
        },
        "status": "final",
        "subject": {
          "reference": "urn:uuid:f4156db1-1c33-45c3-bfd3-912793f06aab",
          "display": "Helene Andresen"
        },
        "effectiveDateTime": "2024-11-23T22:53:36Z",
        "specimen": {
          "reference": "urn:uuid:eb7efc17-daaf-43e2-872b-87e3433a9fcc"
        }
      }
    },
    {
      "fullUrl": "urn:uuid:166a3626-177c-4659-a3c2-c228e72ebf07",
      "resource": {
        "resourceType": "Observation",
        "id": "166a3626-177c-4659-a3c2-c228e72ebf07",
        "meta": {
          "profile": [
            "http://hl7.eu/fhir/laboratory/StructureDefinition/Observation-resultslab-eu-lab"
          ]
        },
        "performer": [
          {
            "display": "The Central European Lab"
          }
        ],
        "category": [
          {
            "coding": [
              {
                "system": "http://terminology.hl7.org/CodeSystem/observation-category",
                "code": "laboratory"
              }
            ]
          }
        ],
        "code": {
          "coding": [
            {
              "code": "2093-3",
              "system": "http://loinc.org",
              "display": "Cholesterol [Mass/volume] in Serum or Plasma"
            }
          ],
          "text": "Cholesterol [Mass/volume] in Serum or Plasma"
        },
        "valueQuantity": {
          "system": "http://unitsofmeasure.org",
          "value": 155.3,
          "unit": "mg/dL",
          "code": "mg/dL"
        },
        "referenceRange": [
          {
            "low": {
              "value": 125,
              "code": "mg/dL",
              "system": "http://unitsofmeasure.org"
            }
          },
          {
            "high": {
              "value": 200,
              "code": "mg/dL",
              "system": "http://unitsofmeasure.org"
            }
          }
        ],
        "text": {
          "status": "generated",
          "div": "<div xmlns=\"http://www.w3.org/1999/xhtml\"><table class=\"hl7__eu__lab__report\"><tr><th>Test</th><th>23-Nov-2024</th><th>Reference&#xA0;Range</th><th>Unit</th></tr><tr><td>Cholesterol [Mass/volume] in Serum or Plasma</td><td>155.3</td><td>125 - 200</td><td></td><td>mg/dL</td></tr></table></div>"
        },
        "status": "final",
        "subject": {
          "reference": "urn:uuid:f4156db1-1c33-45c3-bfd3-912793f06aab",
          "display": "Helene Andresen"
        },
        "effectiveDateTime": "2024-11-23T22:53:36Z",
        "specimen": {
          "reference": "urn:uuid:14be7a9f-2896-4951-a947-7a755bb27cae"
        }
      }
    },
    {
      "fullUrl": "urn:uuid:ed052d5e-ad66-471d-b3d3-1b93413e0e5a",
      "resource": {
        "resourceType": "Observation",
        "id": "ed052d5e-ad66-471d-b3d3-1b93413e0e5a",
        "meta": {
          "profile": [
            "http://hl7.eu/fhir/laboratory/StructureDefinition/Observation-resultslab-eu-lab"
          ]
        },
        "performer": [
          {
            "display": "The Central European Lab"
          }
        ],
        "category": [
          {
            "coding": [
              {
                "system": "http://terminology.hl7.org/CodeSystem/observation-category",
                "code": "laboratory"
              }
            ]
          }
        ],
        "code": {
          "coding": [
            {
              "code": "2571-8",
              "system": "http://loinc.org",
              "display": "Triglyceride [Mass/volume] in Serum or Plasma"
            }
          ],
          "text": "Triglyceride [Mass/volume] in Serum or Plasma"
        },
        "valueQuantity": {
          "system": "http://unitsofmeasure.org",
          "value": 143.6,
          "unit": "mg/dL",
          "code": "mg/dL"
        },
        "referenceRange": [
          {
            "low": {
              "value": 10,
              "code": "mg/dL",
              "system": "http://unitsofmeasure.org"
            }
          },
          {
            "high": {
              "value": 175,
              "code": "mg/dL",
              "system": "http://unitsofmeasure.org"
            }
          }
        ],
        "text": {
          "status": "generated",
          "div": "<div xmlns=\"http://www.w3.org/1999/xhtml\"><table class=\"hl7__eu__lab__report\"><tr><th>Test</th><th>23-Nov-2024</th><th>Reference&#xA0;Range</th><th>Unit</th></tr><tr><td>Triglyceride [Mass/volume] in Serum or Plasma</td><td>143.6</td><td>10 - 175</td><td></td><td>mg/dL</td></tr></table></div>"
        },
        "status": "final",
        "subject": {
          "reference": "urn:uuid:f4156db1-1c33-45c3-bfd3-912793f06aab",
          "display": "Helene Andresen"
        },
        "effectiveDateTime": "2024-11-23T22:53:36Z",
        "specimen": {
          "reference": "urn:uuid:14be7a9f-2896-4951-a947-7a755bb27cae"
        }
      }
    },
    {
      "fullUrl": "urn:uuid:6665cbb0-566e-4653-8a60-21cd080e0809",
      "resource": {
        "resourceType": "Observation",
        "id": "6665cbb0-566e-4653-8a60-21cd080e0809",
        "meta": {
          "profile": [
            "http://hl7.eu/fhir/laboratory/StructureDefinition/Observation-resultslab-eu-lab"
          ]
        },
        "performer": [
          {
            "display": "The Central European Lab"
          }
        ],
        "category": [
          {
            "coding": [
              {
                "system": "http://terminology.hl7.org/CodeSystem/observation-category",
                "code": "laboratory"
              }
            ]
          }
        ],
        "code": {
          "coding": [
            {
              "code": "18262-6",
              "system": "http://loinc.org",
              "display": "Cholesterol in LDL [Mass/volume] in Serum or Plasma by Direct assay"
            }
          ],
          "text": "Cholesterol in LDL [Mass/volume] in Serum or Plasma by Direct assay"
        },
        "valueQuantity": {
          "system": "http://unitsofmeasure.org",
          "value": 76.2,
          "unit": "mg/dL",
          "code": "mg/dL"
        },
        "referenceRange": [
          {
            "low": {
              "value": 0,
              "code": "mg/dL",
              "system": "http://unitsofmeasure.org"
            }
          },
          {
            "high": {
              "value": 130,
              "code": "mg/dL",
              "system": "http://unitsofmeasure.org"
            }
          }
        ],
        "text": {
          "status": "generated",
          "div": "<div xmlns=\"http://www.w3.org/1999/xhtml\"><table class=\"hl7__eu__lab__report\"><tr><th>Test</th><th>23-Nov-2024</th><th>Reference&#xA0;Range</th><th>Unit</th></tr><tr><td>Cholesterol in LDL [Mass/volume] in Serum or Plasma by Direct assay</td><td>76.2</td><td>0 - 130</td><td></td><td>mg/dL</td></tr></table></div>"
        },
        "status": "final",
        "subject": {
          "reference": "urn:uuid:f4156db1-1c33-45c3-bfd3-912793f06aab",
          "display": "Helene Andresen"
        },
        "effectiveDateTime": "2024-11-23T22:53:36Z",
        "specimen": {
          "reference": "urn:uuid:14be7a9f-2896-4951-a947-7a755bb27cae"
        }
      }
    },
    {
      "fullUrl": "urn:uuid:d1a69b7d-3cb9-4f76-9af1-fb34d52b1542",
      "resource": {
        "resourceType": "Observation",
        "id": "d1a69b7d-3cb9-4f76-9af1-fb34d52b1542",
        "meta": {
          "profile": [
            "http://hl7.eu/fhir/laboratory/StructureDefinition/Observation-resultslab-eu-lab"
          ]
        },
        "performer": [
          {
            "display": "The Central European Lab"
          }
        ],
        "category": [
          {
            "coding": [
              {
                "system": "http://terminology.hl7.org/CodeSystem/observation-category",
                "code": "laboratory"
              }
            ]
          }
        ],
        "code": {
          "coding": [
            {
              "code": "2085-9",
              "system": "http://loinc.org",
              "display": "Cholesterol in HDL [Mass/volume] in Serum or Plasma"
            }
          ],
          "text": "Cholesterol in HDL [Mass/volume] in Serum or Plasma"
        },
        "valueQuantity": {
          "system": "http://unitsofmeasure.org",
          "value": 50.5,
          "unit": "mg/dL",
          "code": "mg/dL"
        },
        "referenceRange": [
          {
            "low": {
              "value": 50,
              "code": "mg/dL",
              "system": "http://unitsofmeasure.org"
            }
          },
          {
            "high": {
              "value": 100,
              "code": "mg/dL",
              "system": "http://unitsofmeasure.org"
            }
          }
        ],
        "text": {
          "status": "generated",
          "div": "<div xmlns=\"http://www.w3.org/1999/xhtml\"><table class=\"hl7__eu__lab__report\"><tr><th>Test</th><th>23-Nov-2024</th><th>Reference&#xA0;Range</th><th>Unit</th></tr><tr><td>Cholesterol in HDL [Mass/volume] in Serum or Plasma</td><td>50.5</td><td>50 - 100</td><td></td><td>mg/dL</td></tr></table></div>"
        },
        "status": "final",
        "subject": {
          "reference": "urn:uuid:f4156db1-1c33-45c3-bfd3-912793f06aab",
          "display": "Helene Andresen"
        },
        "effectiveDateTime": "2024-11-23T22:53:36Z",
        "specimen": {
          "reference": "urn:uuid:14be7a9f-2896-4951-a947-7a755bb27cae"
        }
      }
    },
    {
      "fullUrl": "urn:uuid:210db879-dce0-407a-bb05-4d09adaa74a9",
      "resource": {
        "resourceType": "Device",
        "id": "210db879-dce0-407a-bb05-4d09adaa74a9",
        "deviceName": [
          {
            "name": "SYNDERAI Synthetic Generator",
            "type": "manufacturer-name"
          }
        ],
        "version": [
          {
            "value": "5.0"
          }
        ],
        "text": {
          "status": "generated",
          "div": "<div xmlns=\"http://www.w3.org/1999/xhtml\">SYNDERAI Synthetic Generator v5.0</div>"
        },
        "status": "active\"",
        "distinctIdentifier": "synderai-generator-50",
        "manufacturer": "SYNDERAI Project"
      }
    },
    {
      "fullUrl": "urn:uuid:6e5c64a7-751d-4a11-9e91-684bff42b61b",
      "resource": {
        "resourceType": "Provenance",
        "id": "6e5c64a7-751d-4a11-9e91-684bff42b61b",
        "target": [
          {
            "reference": "Patient/f4156db1-1c33-45c3-bfd3-912793f06aab"
          },
          {
            "reference": "Bundle/8201c013-3230-4e5d-92f8-ce2754c72392"
          },
          {
            "reference": "Composition/8c59fe0b-49a6-4cff-b8dd-ef7d9e3c7e9b"
          },
          {
            "reference": "PractitionerRole/2b6786e3-2132-4ef8-97c6-8511683447c6"
          },
          {
            "reference": "Practitioner/e1cef873-1796-45f3-bd0f-c357921dad3a"
          },
          {
            "reference": "PractitionerRole/8fb665e9-18d7-4834-9f31-7fd2883c90a0"
          },
          {
            "reference": "Organization/51c3aa47-7d0c-455a-8937-15882a280d7d"
          }
        ],
        "activity": {
          "text": "Synthetic Example Data Generation"
        },
        "policy": [
          "https://synderai.net/synderai-synthetic-data-policy"
        ],
        "agent": [
          {
            "type": {
              "text": "author"
            },
            "who": {
              "reference": "Device/210db879-dce0-407a-bb05-4d09adaa74a9"
            }
          }
        ],
        "reason": [
          {
            "text": "Interoperability Testing and Training (non-clinical use)"
          }
        ],
        "text": {
          "status": "generated",
          "div": "<div xmlns=\"http://www.w3.org/1999/xhtml\">Provenance for SYNDERAI Synthetic Example Data Resource</div>"
        },
        "recorded": "2024-11-23T23:53:36Z"
      }
    },
    {
      "fullUrl": "urn:uuid:2b6786e3-2132-4ef8-97c6-8511683447c6",
      "resource": {
        "resourceType": "PractitionerRole",
        "id": "2b6786e3-2132-4ef8-97c6-8511683447c6",
        "meta": {
          "profile": [
            "http://hl7.eu/fhir/base/StructureDefinition/practitionerRole-eu"
          ]
        },
        "text": {
          "status": "generated",
          "div": "<div xmlns=\"http://www.w3.org/1999/xhtml\">Laboratory Role Id: 2b6786e3-2132-4ef8-97c6-8511683447c6</div>"
        },
        "practitioner": {
          "reference": "urn:uuid:e1cef873-1796-45f3-bd0f-c357921dad3a"
        }
      }
    },
    {
      "fullUrl": "urn:uuid:e1cef873-1796-45f3-bd0f-c357921dad3a",
      "resource": {
        "resourceType": "Practitioner",
        "id": "e1cef873-1796-45f3-bd0f-c357921dad3a",
        "meta": {
          "profile": [
            "http://hl7.eu/fhir/base/StructureDefinition/practitioner-eu"
          ]
        },
        "identifier": [
          {
            "assigner": {
              "display": "HL7 Europe"
            },
            "system": "urn:oid:2.16.840.1.113883.2.51.999",
            "value": "11183aa9-7063-44c9-bfa1-e6d699c7514b"
          }
        ],
        "name": [
          {
            "prefix": [
              "dr"
            ],
            "given": [
              "Ex"
            ],
            "family": "Ample"
          }
        ],
        "address": [
          {
            "line": [
              "Laboratoire Central Européenne",
              "Boulevard du Jardin Botanique 32"
            ],
            "postalCode": "1000",
            "city": "Brussels",
            "country": "Belgium"
          }
        ],
        "text": {
          "status": "generated",
          "div": "<div xmlns=\"http://www.w3.org/1999/xhtml\">Laboratory: Laboratoire Central Européenne, 1000 Brussels, Belgium</div>"
        }
      }
    }
  ],
  "type": "document",
  "timestamp": "2024-11-23T23:53:36Z"
}
