{
  "resourceType": "Bundle",
  "id": "e00f81b6-4863-45ae-8c6b-e089a032011b",
  "meta": {
    "profile": [
      "http://hl7.eu/fhir/laboratory/StructureDefinition/Bundle-eu-lab"
    ]
  },
  "identifier": {
    "assigner": {
      "display": "HL7 Europe"
    },
    "system": "urn:oid:2.16.840.1.113883.2.51.999",
    "value": "ff5d35e2-89c9-435e-ab96-fbf53dd395b1"
  },
  "entry": [
    {
      "fullUrl": "urn:uuid:a1f7e79b-628c-4112-b0b0-9e74cb4e33a1",
      "resource": {
        "resourceType": "Composition",
        "id": "a1f7e79b-628c-4112-b0b0-9e74cb4e33a1",
        "meta": {
          "profile": [
            "http://hl7.eu/fhir/laboratory/StructureDefinition/Composition-eu-lab"
          ]
        },
        "identifier": {
          "assigner": {
            "display": "HL7 Europe"
          },
          "system": "urn:oid:2.16.840.1.113883.2.51.999",
          "value": "7404c247-ac88-4de6-8e0d-c1271190fd3c"
        },
        "author": [
          {
            "reference": "urn:uuid:0414bbc6-9198-4571-a295-859b3eb69349"
          }
        ],
        "category": [
          {
            "coding": [
              {
                "code": "26436-6",
                "system": "http://loinc.org",
                "display": "Laboratory studies (set)"
              }
            ]
          }
        ],
        "type": {
          "coding": [
            {
              "code": "11502-2",
              "system": "http://loinc.org",
              "display": "Laboratory report"
            }
          ],
          "text": "Laboratory Report"
        },
        "section": [
          {
            "code": {
              "coding": [
                {
                  "code": "26436-6",
                  "system": "http://loinc.org",
                  "display": "Laboratory studies (set)"
                }
              ],
              "text": "Laboratory studies"
            },
            "section": [
              {
                "code": {
                  "coding": [
                    {
                      "code": "$18719-5",
                      "system": "http://loinc.org",
                      "display": "Chemistry studies (set)"
                    }
                  ],
                  "text": "Chemistry"
                },
                "entry": [
                  {
                    "reference": "urn:uuid:2fd12a66-8e70-4768-9623-3e037acf3fad"
                  },
                  {
                    "reference": "urn:uuid:ad1c5917-4949-4a4e-8b5d-e216cfb773d3"
                  },
                  {
                    "reference": "urn:uuid:a62a283b-bec6-4b7e-bd95-e979a13da7f6"
                  },
                  {
                    "reference": "urn:uuid:a907956a-25d8-420b-88b4-5317e342515d"
                  },
                  {
                    "reference": "urn:uuid:e953226f-cb4b-461c-a558-46d5e29b4961"
                  },
                  {
                    "reference": "urn:uuid:566bd967-1928-47a0-9f1f-a9fcaa5241ae"
                  },
                  {
                    "reference": "urn:uuid:4d670b74-bfb4-4eec-a7ad-860507725714"
                  },
                  {
                    "reference": "urn:uuid:bc208a0f-e8b6-409b-aa4a-4dc1d756f1ee"
                  },
                  {
                    "reference": "urn:uuid:105f1e6b-47e1-4c97-b99e-01e6dc82b128"
                  },
                  {
                    "reference": "urn:uuid:bb1db8e0-40f7-448c-beff-c9854d6a01d5"
                  },
                  {
                    "reference": "urn:uuid:fd3ef226-f3bf-4e82-803d-4e5627bf2252"
                  },
                  {
                    "reference": "urn:uuid:e868bd4d-4b47-4cad-80ea-941193eb0bab"
                  },
                  {
                    "reference": "urn:uuid:664aeeed-72cc-4315-93fe-5186ff821218"
                  }
                ],
                "text": {
                  "status": "generated",
                  "div": "<div xmlns=\"http://www.w3.org/1999/xhtml\"><h3>Chemistry</h3><table class=\"hl7__eu__lab__report\"><thead><tr><th>Test</th><th>14-APR-2024</th><th>Reference Range</th><th>Unit</th></tr></thead><tbody><tr><td>Hemoglobin A1c/Hemoglobin.total in Blood</td><td><strong>6.3 H</strong></td><td>4.8 - 5.7</td><td>%</td></tr><tr><td>Glucose [Mass/volume] in Blood</td><td><strong>64.9 L</strong></td><td>70 - 99</td><td>mg/dL</td></tr><tr><td>Urea nitrogen [Mass/volume] in Blood</td><td>19.5</td><td>7 - 20</td><td>mg/dL</td></tr><tr><td>Creatinine [Mass/volume] in Blood</td><td><strong>1.8 H</strong></td><td>0.6 - 1.1</td><td>mg/dL</td></tr><tr><td>Calcium [Mass/volume] in Blood</td><td>9.6</td><td>8.5 - 10.4</td><td>mg/dL</td></tr><tr><td>Sodium [Moles/volume] in Blood</td><td>143.8</td><td>135 - 145</td><td>mmol/L</td></tr><tr><td>Potassium [Moles/volume] in Blood</td><td>5.1</td><td>3.5 - 5.1</td><td>mmol/L</td></tr><tr><td>Chloride [Moles/volume] in Blood</td><td>102.2</td><td>98 - 107</td><td>mmol/L</td></tr><tr><td>Carbon dioxide, total [Moles/volume] in Blood</td><td>26.2</td><td>22 - 29</td><td>mmol/L</td></tr><tr><td>Cholesterol [Mass/volume] in Serum or Plasma</td><td>178.4</td><td>125 - 200</td><td>mg/dL</td></tr><tr><td>Triglyceride [Mass/volume] in Serum or Plasma</td><td>112.0</td><td>35 - 150</td><td>mg/dL</td></tr><tr><td>Cholesterol in LDL [Mass/volume] in Serum or Plasma by Direct assay</td><td>97.4</td><td>0 - 130</td><td>mg/dL</td></tr><tr><td>Cholesterol in HDL [Mass/volume] in Serum or Plasma</td><td>58.5</td><td>35 - 82</td><td>mg/dL</td></tr></tbody></table></div>"
                },
                "title": "Chemistry"
              }
            ],
            "title": "Laboratory Report"
          },
          {
            "text": {
              "status": "generated",
              "div": "<div xmlns=\"http://www.w3.org/1999/xhtml\"><h3>Annotation</h3><table class=\"hl7__eu__lab__report\"><tr><th>Conclusion and Recommendations based on this report and previous findings known to us</th></tr><tr><td>The patient shows elevated HbA1c (6.3%), indicating poor long-term glycemic control, despite a low current glucose (64.9 mg/dL), which may suggest recent hypoglycemia or glucose variability. Creatinine is elevated (1.8 mg/dL), raising concern for possible renal impairment. Other parameters, including lipids and electrolytes, are within normal limits. Recommend further evaluation of renal function and diabetes management.</td></tr></table></div>"
            },
            "code": {
              "coding": [
                {
                  "system": "http://loinc.org",
                  "code": "48767-8",
                  "display": "Annotation comment"
                }
              ]
            },
            "title": "Annotation comment"
          }
        ],
        "status": "final",
        "subject": {
          "reference": "urn:uuid:82e7f6e3-c5d6-4130-8cb3-debec769b1f1",
          "display": "Olga Bąbel"
        },
        "date": "2024-04-14T05:55:50Z",
        "title": "Laboratory Report",
        "confidentiality": "N"
      }
    },
    {
      "fullUrl": "urn:uuid:2cd6d487-282f-4bee-a17d-3f11b9e4ecf1",
      "resource": {
        "resourceType": "DiagnosticReport",
        "id": "2cd6d487-282f-4bee-a17d-3f11b9e4ecf1",
        "meta": {
          "profile": [
            "http://hl7.eu/fhir/laboratory/StructureDefinition/DiagnosticReport-eu-lab"
          ]
        },
        "identifier": [
          {
            "assigner": {
              "display": "HL7 Europe"
            },
            "system": "urn:oid:2.16.840.1.113883.2.51.999",
            "value": "3b4bf443-eb92-4751-b938-5059feaa3736"
          }
        ],
        "extension": [
          {
            "url": "http://hl7.org/fhir/5.0/StructureDefinition/extension-DiagnosticReport.composition",
            "valueReference": {
              "reference": "urn:uuid:7404c247-ac88-4de6-8e0d-c1271190fd3c"
            }
          }
        ],
        "category": [
          {
            "coding": [
              {
                "code": "26436-6",
                "system": "http://loinc.org",
                "display": "Laboratory studies (set)"
              }
            ]
          }
        ],
        "specimen": [
          {
            "reference": "urn:uuid:56c38168-2467-437a-9667-78cb86d03bdc"
          },
          {
            "reference": "urn:uuid:ba21a5bc-0049-4f85-bb6e-03cf7fb0e183"
          }
        ],
        "result": [
          {
            "reference": "urn:uuid:2fd12a66-8e70-4768-9623-3e037acf3fad"
          },
          {
            "reference": "urn:uuid:ad1c5917-4949-4a4e-8b5d-e216cfb773d3"
          },
          {
            "reference": "urn:uuid:a62a283b-bec6-4b7e-bd95-e979a13da7f6"
          },
          {
            "reference": "urn:uuid:a907956a-25d8-420b-88b4-5317e342515d"
          },
          {
            "reference": "urn:uuid:e953226f-cb4b-461c-a558-46d5e29b4961"
          },
          {
            "reference": "urn:uuid:566bd967-1928-47a0-9f1f-a9fcaa5241ae"
          },
          {
            "reference": "urn:uuid:4d670b74-bfb4-4eec-a7ad-860507725714"
          },
          {
            "reference": "urn:uuid:bc208a0f-e8b6-409b-aa4a-4dc1d756f1ee"
          },
          {
            "reference": "urn:uuid:105f1e6b-47e1-4c97-b99e-01e6dc82b128"
          },
          {
            "reference": "urn:uuid:bb1db8e0-40f7-448c-beff-c9854d6a01d5"
          },
          {
            "reference": "urn:uuid:fd3ef226-f3bf-4e82-803d-4e5627bf2252"
          },
          {
            "reference": "urn:uuid:e868bd4d-4b47-4cad-80ea-941193eb0bab"
          },
          {
            "reference": "urn:uuid:664aeeed-72cc-4315-93fe-5186ff821218"
          }
        ],
        "status": "registered",
        "code": {
          "coding": [
            {
              "code": "11502-2",
              "system": "http://loinc.org",
              "display": "Laboratory report"
            }
          ]
        },
        "subject": {
          "reference": "urn:uuid:82e7f6e3-c5d6-4130-8cb3-debec769b1f1",
          "display": "Olga Bąbel"
        }
      }
    },
    {
      "fullUrl": "urn:uuid:82e7f6e3-c5d6-4130-8cb3-debec769b1f1",
      "resource": {
        "resourceType": "Patient",
        "id": "82e7f6e3-c5d6-4130-8cb3-debec769b1f1",
        "meta": {
          "security": [
            {
              "system": "http://terminology.hl7.org/CodeSystem/v3-ActReason",
              "code": "HTEST"
            },
            {
              "system": "http://terminology.hl7.org/CodeSystem/v3-ActReason",
              "code": "TRAIN"
            }
          ],
          "tag": [
            {
              "system": "https://synderai.net/fhir/CodeSystem/tags",
              "code": "synthetic",
              "display": "SYNDERAI Synthetic data"
            }
          ],
          "profile": [
            "http://hl7.eu/fhir/base/StructureDefinition/patient-eu-core"
          ]
        },
        "identifier": [
          {
            "type": {
              "coding": [
                {
                  "code": "PT",
                  "system": "http://terminology.hl7.org/CodeSystem/v2-0203"
                }
              ]
            },
            "system": "http://ec.europa.eu/identifier/eci",
            "value": "5030-866518-6"
          },
          {
            "type": {
              "coding": [
                {
                  "code": "MR",
                  "system": "http://terminology.hl7.org/CodeSystem/v2-0203"
                }
              ]
            },
            "system": "http://local.setting.eu/identifier",
            "value": "90f4ce41-5cb2-20e8-d5ac-80001edd2b41"
          }
        ],
        "name": [
          {
            "family": "Bąbel"
          },
          {
            "given": [
              "Olga"
            ]
          },
          {
            "text": "Olga Bąbel"
          }
        ],
        "address": [
          {
            "line": [
              "ul. Podleśna 13/38"
            ],
            "use": "home",
            "type": "physical",
            "postalCode": "05-200",
            "city": "Wołomin",
            "country": "Poland"
          }
        ],
        "telecom": [
          {
            "system": "phone",
            "value": "+48 506 354 073"
          }
        ],
        "extension": [
          {
            "url": "http://hl7.org/fhir/StructureDefinition/patient-nationality",
            "valueCodeableConcept": {
              "coding": [
                {
                  "code": "PL",
                  "system": "http://hl7.org/fhir/ValueSet/country"
                }
              ]
            }
          }
        ],
        "text": {
          "status": "generated",
          "div": "<div xmlns=\"http://www.w3.org/1999/xhtml\"><table class=\"hl7__ips\"><tr><td>Olga Bąbel</td><td>female</td><td>05-Jun-1993</td></tr></table></div>"
        },
        "gender": "female",
        "birthDate": "1993-06-05"
      }
    },
    {
      "fullUrl": "urn:uuid:2ee701e1-863b-4ec3-81ac-661813aaed6e",
      "resource": {
        "resourceType": "ServiceRequest",
        "id": "2ee701e1-863b-4ec3-81ac-661813aaed6e",
        "meta": {
          "profile": [
            "http://hl7.eu/fhir/laboratory/StructureDefinition/ServiceRequest-eu-lab"
          ]
        },
        "identifier": [
          {
            "system": "http://example.org",
            "value": "336ed7f1-dba9-41b8-8485-f822045f8ee4"
          }
        ],
        "specimen": [
          {
            "reference": "urn:uuid:56c38168-2467-437a-9667-78cb86d03bdc"
          },
          {
            "reference": "urn:uuid:ba21a5bc-0049-4f85-bb6e-03cf7fb0e183"
          }
        ],
        "reasonCode": [
          {
            "coding": [
              {
                "code": "15777000",
                "system": "http://snomed.info/sct",
                "display": "Prediabetes"
              }
            ]
          },
          {
            "coding": [
              {
                "code": "271737000",
                "system": "http://snomed.info/sct",
                "display": "Anemia"
              }
            ]
          }
        ],
        "status": "active",
        "intent": "order",
        "code": {
          "coding": [
            {
              "code": "108252007",
              "system": "http://snomed.info/sct",
              "display": "Laboratory procedure"
            }
          ]
        },
        "subject": {
          "reference": "urn:uuid:82e7f6e3-c5d6-4130-8cb3-debec769b1f1",
          "display": "Olga Bąbel"
        },
        "requester": {
          "reference": "urn:uuid:8111fa28-02aa-49fc-85ec-1c3cac5c3909"
        }
      }
    },
    {
      "fullUrl": "urn:uuid:8111fa28-02aa-49fc-85ec-1c3cac5c3909",
      "resource": {
        "resourceType": "PractitionerRole",
        "id": "8111fa28-02aa-49fc-85ec-1c3cac5c3909",
        "meta": {
          "profile": [
            "http://hl7.eu/fhir/base/StructureDefinition/practitionerRole-eu"
          ]
        },
        "text": {
          "status": "generated",
          "div": "<div xmlns=\"http://www.w3.org/1999/xhtml\">Provider Role Id: 8111fa28-02aa-49fc-85ec-1c3cac5c3909</div>"
        },
        "organization": {
          "reference": "urn:uuid:6f367782-20b7-4cd7-a2f8-4c58f30b31f7"
        }
      }
    },
    {
      "fullUrl": "urn:uuid:6f367782-20b7-4cd7-a2f8-4c58f30b31f7",
      "resource": {
        "resourceType": "Organization",
        "id": "6f367782-20b7-4cd7-a2f8-4c58f30b31f7",
        "meta": {
          "profile": [
            "http://hl7.eu/fhir/base/StructureDefinition/organization-eu"
          ]
        },
        "identifier": [
          {
            "assigner": {
              "display": "HL7 Europe"
            },
            "system": "urn:oid:2.16.840.1.113883.2.51.999",
            "value": "e7ccc4f7-c864-4ae5-8cc9-afc497c67a67"
          }
        ],
        "address": [
          {
            "line": [
              "Ignacego Prądzyńskiego 11"
            ],
            "city": "Wołomin",
            "postalCode": "05-200",
            "country": "Poland"
          }
        ],
        "text": {
          "status": "generated",
          "div": "<div xmlns=\"http://www.w3.org/1999/xhtml\">Provider Organization: Miejski Samodzielny Publiczny Zakład Opieki Zdrowotnej Nr 1</div>"
        },
        "name": "Miejski Samodzielny Publiczny Zakład Opieki Zdrowotnej Nr 1"
      }
    },
    {
      "fullUrl": "urn:uuid:56c38168-2467-437a-9667-78cb86d03bdc",
      "resource": {
        "resourceType": "Specimen",
        "id": "56c38168-2467-437a-9667-78cb86d03bdc",
        "meta": {
          "profile": [
            "http://hl7.eu/fhir/laboratory/StructureDefinition/Specimen-eu-lab"
          ]
        },
        "collection": {
          "collectedDateTime": "2024-04-14"
        },
        "text": {
          "status": "generated",
          "div": "<div xmlns=\"http://www.w3.org/1999/xhtml\"><table class=\"hl7__eu__lab__report\"><tr><th>Specimen</th><th>Collection Date</th></tr><tr><td>Whole blood specimen (specimen)</td><td><span class=\"nb\">14-Apr-2024</span></td></tr></table></div>"
        },
        "type": {
          "coding": [
            {
              "code": "258580003",
              "system": "http://snomed.info/sct",
              "display": "Whole blood specimen (specimen)"
            }
          ]
        }
      }
    },
    {
      "fullUrl": "urn:uuid:ba21a5bc-0049-4f85-bb6e-03cf7fb0e183",
      "resource": {
        "resourceType": "Specimen",
        "id": "ba21a5bc-0049-4f85-bb6e-03cf7fb0e183",
        "meta": {
          "profile": [
            "http://hl7.eu/fhir/laboratory/StructureDefinition/Specimen-eu-lab"
          ]
        },
        "collection": {
          "collectedDateTime": "2024-04-14"
        },
        "text": {
          "status": "generated",
          "div": "<div xmlns=\"http://www.w3.org/1999/xhtml\"><table class=\"hl7__eu__lab__report\"><tr><th>Specimen</th><th>Collection Date</th></tr><tr><td>Acellular blood (serum or plasma) specimen</td><td><span class=\"nb\">14-Apr-2024</span></td></tr></table></div>"
        },
        "type": {
          "coding": [
            {
              "code": "122592007",
              "system": "http://snomed.info/sct",
              "display": "Acellular blood (serum or plasma) specimen"
            }
          ]
        }
      }
    },
    {
      "fullUrl": "urn:uuid:2fd12a66-8e70-4768-9623-3e037acf3fad",
      "resource": {
        "resourceType": "Observation",
        "id": "2fd12a66-8e70-4768-9623-3e037acf3fad",
        "meta": {
          "profile": [
            "http://hl7.eu/fhir/laboratory/StructureDefinition/Observation-resultslab-eu-lab"
          ]
        },
        "performer": [
          {
            "display": "The Central European Lab"
          }
        ],
        "category": [
          {
            "coding": [
              {
                "system": "http://terminology.hl7.org/CodeSystem/observation-category",
                "code": "laboratory"
              }
            ]
          }
        ],
        "code": {
          "coding": [
            {
              "code": "4548-4",
              "system": "http://loinc.org",
              "display": "Hemoglobin A1c/Hemoglobin.total in Blood"
            }
          ],
          "text": "Hemoglobin A1c/Hemoglobin.total in Blood"
        },
        "valueQuantity": {
          "system": "http://unitsofmeasure.org",
          "value": 6.3,
          "unit": "%",
          "code": "%"
        },
        "referenceRange": [
          {
            "low": {
              "value": 4.8,
              "code": "%",
              "system": "http://unitsofmeasure.org"
            }
          },
          {
            "high": {
              "value": 5.7,
              "code": "%",
              "system": "http://unitsofmeasure.org"
            }
          }
        ],
        "interpretation": [
          {
            "coding": [
              {
                "code": "H",
                "system": "http://terminology.hl7.org/CodeSystem/v3-ObservationInterpretation",
                "display": "High"
              }
            ]
          }
        ],
        "text": {
          "status": "generated",
          "div": "<div xmlns=\"http://www.w3.org/1999/xhtml\"><table class=\"hl7__eu__lab__report\"><tr><th>Test</th><th>14-Apr-2024</th><th>Reference Range</th><th>Unit</th></tr><tr><td>Hemoglobin A1c/Hemoglobin.total in Blood</td><td>6.3</td><td>4.8 - 5.7</td><td>H</td><td>%</td></tr></table></div>"
        },
        "status": "final",
        "subject": {
          "reference": "urn:uuid:82e7f6e3-c5d6-4130-8cb3-debec769b1f1",
          "display": "Olga Bąbel"
        },
        "effectiveDateTime": "2024-04-14T03:55:50Z",
        "specimen": {
          "reference": "urn:uuid:56c38168-2467-437a-9667-78cb86d03bdc"
        }
      }
    },
    {
      "fullUrl": "urn:uuid:ad1c5917-4949-4a4e-8b5d-e216cfb773d3",
      "resource": {
        "resourceType": "Observation",
        "id": "ad1c5917-4949-4a4e-8b5d-e216cfb773d3",
        "meta": {
          "profile": [
            "http://hl7.eu/fhir/laboratory/StructureDefinition/Observation-resultslab-eu-lab"
          ]
        },
        "performer": [
          {
            "display": "The Central European Lab"
          }
        ],
        "category": [
          {
            "coding": [
              {
                "system": "http://terminology.hl7.org/CodeSystem/observation-category",
                "code": "laboratory"
              }
            ]
          }
        ],
        "code": {
          "coding": [
            {
              "code": "2339-0",
              "system": "http://loinc.org",
              "display": "Glucose [Mass/volume] in Blood"
            }
          ],
          "text": "Glucose [Mass/volume] in Blood"
        },
        "valueQuantity": {
          "system": "http://unitsofmeasure.org",
          "value": 64.9,
          "unit": "mg/dL",
          "code": "mg/dL"
        },
        "referenceRange": [
          {
            "low": {
              "value": 70,
              "code": "mg/dL",
              "system": "http://unitsofmeasure.org"
            }
          },
          {
            "high": {
              "value": 99,
              "code": "mg/dL",
              "system": "http://unitsofmeasure.org"
            }
          }
        ],
        "interpretation": [
          {
            "coding": [
              {
                "code": "L",
                "system": "http://terminology.hl7.org/CodeSystem/v3-ObservationInterpretation",
                "display": "Low"
              }
            ]
          }
        ],
        "text": {
          "status": "generated",
          "div": "<div xmlns=\"http://www.w3.org/1999/xhtml\"><table class=\"hl7__eu__lab__report\"><tr><th>Test</th><th>14-Apr-2024</th><th>Reference Range</th><th>Unit</th></tr><tr><td>Glucose [Mass/volume] in Blood</td><td>64.9</td><td>70 - 99</td><td>L</td><td>mg/dL</td></tr></table></div>"
        },
        "status": "final",
        "subject": {
          "reference": "urn:uuid:82e7f6e3-c5d6-4130-8cb3-debec769b1f1",
          "display": "Olga Bąbel"
        },
        "effectiveDateTime": "2024-04-14T03:55:50Z",
        "specimen": {
          "reference": "urn:uuid:56c38168-2467-437a-9667-78cb86d03bdc"
        }
      }
    },
    {
      "fullUrl": "urn:uuid:a62a283b-bec6-4b7e-bd95-e979a13da7f6",
      "resource": {
        "resourceType": "Observation",
        "id": "a62a283b-bec6-4b7e-bd95-e979a13da7f6",
        "meta": {
          "profile": [
            "http://hl7.eu/fhir/laboratory/StructureDefinition/Observation-resultslab-eu-lab"
          ]
        },
        "performer": [
          {
            "display": "The Central European Lab"
          }
        ],
        "category": [
          {
            "coding": [
              {
                "system": "http://terminology.hl7.org/CodeSystem/observation-category",
                "code": "laboratory"
              }
            ]
          }
        ],
        "code": {
          "coding": [
            {
              "code": "6299-2",
              "system": "http://loinc.org",
              "display": "Urea nitrogen [Mass/volume] in Blood"
            }
          ],
          "text": "Urea nitrogen [Mass/volume] in Blood"
        },
        "valueQuantity": {
          "system": "http://unitsofmeasure.org",
          "value": 19.5,
          "unit": "mg/dL",
          "code": "mg/dL"
        },
        "referenceRange": [
          {
            "low": {
              "value": 7,
              "code": "mg/dL",
              "system": "http://unitsofmeasure.org"
            }
          },
          {
            "high": {
              "value": 20,
              "code": "mg/dL",
              "system": "http://unitsofmeasure.org"
            }
          }
        ],
        "text": {
          "status": "generated",
          "div": "<div xmlns=\"http://www.w3.org/1999/xhtml\"><table class=\"hl7__eu__lab__report\"><tr><th>Test</th><th>14-Apr-2024</th><th>Reference Range</th><th>Unit</th></tr><tr><td>Urea nitrogen [Mass/volume] in Blood</td><td>19.5</td><td>7 - 20</td><td></td><td>mg/dL</td></tr></table></div>"
        },
        "status": "final",
        "subject": {
          "reference": "urn:uuid:82e7f6e3-c5d6-4130-8cb3-debec769b1f1",
          "display": "Olga Bąbel"
        },
        "effectiveDateTime": "2024-04-14T03:55:50Z",
        "specimen": {
          "reference": "urn:uuid:56c38168-2467-437a-9667-78cb86d03bdc"
        }
      }
    },
    {
      "fullUrl": "urn:uuid:a907956a-25d8-420b-88b4-5317e342515d",
      "resource": {
        "resourceType": "Observation",
        "id": "a907956a-25d8-420b-88b4-5317e342515d",
        "meta": {
          "profile": [
            "http://hl7.eu/fhir/laboratory/StructureDefinition/Observation-resultslab-eu-lab"
          ]
        },
        "performer": [
          {
            "display": "The Central European Lab"
          }
        ],
        "category": [
          {
            "coding": [
              {
                "system": "http://terminology.hl7.org/CodeSystem/observation-category",
                "code": "laboratory"
              }
            ]
          }
        ],
        "code": {
          "coding": [
            {
              "code": "38483-4",
              "system": "http://loinc.org",
              "display": "Creatinine [Mass/volume] in Blood"
            }
          ],
          "text": "Creatinine [Mass/volume] in Blood"
        },
        "valueQuantity": {
          "system": "http://unitsofmeasure.org",
          "value": 1.8,
          "unit": "mg/dL",
          "code": "mg/dL"
        },
        "referenceRange": [
          {
            "low": {
              "value": 0.6,
              "code": "mg/dL",
              "system": "http://unitsofmeasure.org"
            }
          },
          {
            "high": {
              "value": 1.1,
              "code": "mg/dL",
              "system": "http://unitsofmeasure.org"
            }
          }
        ],
        "interpretation": [
          {
            "coding": [
              {
                "code": "H",
                "system": "http://terminology.hl7.org/CodeSystem/v3-ObservationInterpretation",
                "display": "High"
              }
            ]
          }
        ],
        "text": {
          "status": "generated",
          "div": "<div xmlns=\"http://www.w3.org/1999/xhtml\"><table class=\"hl7__eu__lab__report\"><tr><th>Test</th><th>14-Apr-2024</th><th>Reference Range</th><th>Unit</th></tr><tr><td>Creatinine [Mass/volume] in Blood</td><td>1.8</td><td>0.6 - 1.1</td><td>H</td><td>mg/dL</td></tr></table></div>"
        },
        "status": "final",
        "subject": {
          "reference": "urn:uuid:82e7f6e3-c5d6-4130-8cb3-debec769b1f1",
          "display": "Olga Bąbel"
        },
        "effectiveDateTime": "2024-04-14T03:55:50Z",
        "specimen": {
          "reference": "urn:uuid:56c38168-2467-437a-9667-78cb86d03bdc"
        }
      }
    },
    {
      "fullUrl": "urn:uuid:e953226f-cb4b-461c-a558-46d5e29b4961",
      "resource": {
        "resourceType": "Observation",
        "id": "e953226f-cb4b-461c-a558-46d5e29b4961",
        "meta": {
          "profile": [
            "http://hl7.eu/fhir/laboratory/StructureDefinition/Observation-resultslab-eu-lab"
          ]
        },
        "performer": [
          {
            "display": "The Central European Lab"
          }
        ],
        "category": [
          {
            "coding": [
              {
                "system": "http://terminology.hl7.org/CodeSystem/observation-category",
                "code": "laboratory"
              }
            ]
          }
        ],
        "code": {
          "coding": [
            {
              "code": "49765-1",
              "system": "http://loinc.org",
              "display": "Calcium [Mass/volume] in Blood"
            }
          ],
          "text": "Calcium [Mass/volume] in Blood"
        },
        "valueQuantity": {
          "system": "http://unitsofmeasure.org",
          "value": 9.6,
          "unit": "mg/dL",
          "code": "mg/dL"
        },
        "referenceRange": [
          {
            "low": {
              "value": 8.5,
              "code": "mg/dL",
              "system": "http://unitsofmeasure.org"
            }
          },
          {
            "high": {
              "value": 10.4,
              "code": "mg/dL",
              "system": "http://unitsofmeasure.org"
            }
          }
        ],
        "text": {
          "status": "generated",
          "div": "<div xmlns=\"http://www.w3.org/1999/xhtml\"><table class=\"hl7__eu__lab__report\"><tr><th>Test</th><th>14-Apr-2024</th><th>Reference Range</th><th>Unit</th></tr><tr><td>Calcium [Mass/volume] in Blood</td><td>9.6</td><td>8.5 - 10.4</td><td></td><td>mg/dL</td></tr></table></div>"
        },
        "status": "final",
        "subject": {
          "reference": "urn:uuid:82e7f6e3-c5d6-4130-8cb3-debec769b1f1",
          "display": "Olga Bąbel"
        },
        "effectiveDateTime": "2024-04-14T03:55:50Z",
        "specimen": {
          "reference": "urn:uuid:56c38168-2467-437a-9667-78cb86d03bdc"
        }
      }
    },
    {
      "fullUrl": "urn:uuid:566bd967-1928-47a0-9f1f-a9fcaa5241ae",
      "resource": {
        "resourceType": "Observation",
        "id": "566bd967-1928-47a0-9f1f-a9fcaa5241ae",
        "meta": {
          "profile": [
            "http://hl7.eu/fhir/laboratory/StructureDefinition/Observation-resultslab-eu-lab"
          ]
        },
        "performer": [
          {
            "display": "The Central European Lab"
          }
        ],
        "category": [
          {
            "coding": [
              {
                "system": "http://terminology.hl7.org/CodeSystem/observation-category",
                "code": "laboratory"
              }
            ]
          }
        ],
        "code": {
          "coding": [
            {
              "code": "2947-0",
              "system": "http://loinc.org",
              "display": "Sodium [Moles/volume] in Blood"
            }
          ],
          "text": "Sodium [Moles/volume] in Blood"
        },
        "valueQuantity": {
          "system": "http://unitsofmeasure.org",
          "value": 143.8,
          "unit": "mmol/L",
          "code": "mmol/L"
        },
        "referenceRange": [
          {
            "low": {
              "value": 135,
              "code": "mmol/L",
              "system": "http://unitsofmeasure.org"
            }
          },
          {
            "high": {
              "value": 145,
              "code": "mmol/L",
              "system": "http://unitsofmeasure.org"
            }
          }
        ],
        "text": {
          "status": "generated",
          "div": "<div xmlns=\"http://www.w3.org/1999/xhtml\"><table class=\"hl7__eu__lab__report\"><tr><th>Test</th><th>14-Apr-2024</th><th>Reference Range</th><th>Unit</th></tr><tr><td>Sodium [Moles/volume] in Blood</td><td>143.8</td><td>135 - 145</td><td></td><td>mmol/L</td></tr></table></div>"
        },
        "status": "final",
        "subject": {
          "reference": "urn:uuid:82e7f6e3-c5d6-4130-8cb3-debec769b1f1",
          "display": "Olga Bąbel"
        },
        "effectiveDateTime": "2024-04-14T03:55:50Z",
        "specimen": {
          "reference": "urn:uuid:56c38168-2467-437a-9667-78cb86d03bdc"
        }
      }
    },
    {
      "fullUrl": "urn:uuid:4d670b74-bfb4-4eec-a7ad-860507725714",
      "resource": {
        "resourceType": "Observation",
        "id": "4d670b74-bfb4-4eec-a7ad-860507725714",
        "meta": {
          "profile": [
            "http://hl7.eu/fhir/laboratory/StructureDefinition/Observation-resultslab-eu-lab"
          ]
        },
        "performer": [
          {
            "display": "The Central European Lab"
          }
        ],
        "category": [
          {
            "coding": [
              {
                "system": "http://terminology.hl7.org/CodeSystem/observation-category",
                "code": "laboratory"
              }
            ]
          }
        ],
        "code": {
          "coding": [
            {
              "code": "6298-4",
              "system": "http://loinc.org",
              "display": "Potassium [Moles/volume] in Blood"
            }
          ],
          "text": "Potassium [Moles/volume] in Blood"
        },
        "valueQuantity": {
          "system": "http://unitsofmeasure.org",
          "value": 5.1,
          "unit": "mmol/L",
          "code": "mmol/L"
        },
        "referenceRange": [
          {
            "low": {
              "value": 3.5,
              "code": "mmol/L",
              "system": "http://unitsofmeasure.org"
            }
          },
          {
            "high": {
              "value": 5.1,
              "code": "mmol/L",
              "system": "http://unitsofmeasure.org"
            }
          }
        ],
        "text": {
          "status": "generated",
          "div": "<div xmlns=\"http://www.w3.org/1999/xhtml\"><table class=\"hl7__eu__lab__report\"><tr><th>Test</th><th>14-Apr-2024</th><th>Reference Range</th><th>Unit</th></tr><tr><td>Potassium [Moles/volume] in Blood</td><td>5.1</td><td>3.5 - 5.1</td><td></td><td>mmol/L</td></tr></table></div>"
        },
        "status": "final",
        "subject": {
          "reference": "urn:uuid:82e7f6e3-c5d6-4130-8cb3-debec769b1f1",
          "display": "Olga Bąbel"
        },
        "effectiveDateTime": "2024-04-14T03:55:50Z",
        "specimen": {
          "reference": "urn:uuid:56c38168-2467-437a-9667-78cb86d03bdc"
        }
      }
    },
    {
      "fullUrl": "urn:uuid:bc208a0f-e8b6-409b-aa4a-4dc1d756f1ee",
      "resource": {
        "resourceType": "Observation",
        "id": "bc208a0f-e8b6-409b-aa4a-4dc1d756f1ee",
        "meta": {
          "profile": [
            "http://hl7.eu/fhir/laboratory/StructureDefinition/Observation-resultslab-eu-lab"
          ]
        },
        "performer": [
          {
            "display": "The Central European Lab"
          }
        ],
        "category": [
          {
            "coding": [
              {
                "system": "http://terminology.hl7.org/CodeSystem/observation-category",
                "code": "laboratory"
              }
            ]
          }
        ],
        "code": {
          "coding": [
            {
              "code": "2069-3",
              "system": "http://loinc.org",
              "display": "Chloride [Moles/volume] in Blood"
            }
          ],
          "text": "Chloride [Moles/volume] in Blood"
        },
        "valueQuantity": {
          "system": "http://unitsofmeasure.org",
          "value": 102.2,
          "unit": "mmol/L",
          "code": "mmol/L"
        },
        "referenceRange": [
          {
            "low": {
              "value": 98,
              "code": "mmol/L",
              "system": "http://unitsofmeasure.org"
            }
          },
          {
            "high": {
              "value": 107,
              "code": "mmol/L",
              "system": "http://unitsofmeasure.org"
            }
          }
        ],
        "text": {
          "status": "generated",
          "div": "<div xmlns=\"http://www.w3.org/1999/xhtml\"><table class=\"hl7__eu__lab__report\"><tr><th>Test</th><th>14-Apr-2024</th><th>Reference Range</th><th>Unit</th></tr><tr><td>Chloride [Moles/volume] in Blood</td><td>102.2</td><td>98 - 107</td><td></td><td>mmol/L</td></tr></table></div>"
        },
        "status": "final",
        "subject": {
          "reference": "urn:uuid:82e7f6e3-c5d6-4130-8cb3-debec769b1f1",
          "display": "Olga Bąbel"
        },
        "effectiveDateTime": "2024-04-14T03:55:50Z",
        "specimen": {
          "reference": "urn:uuid:56c38168-2467-437a-9667-78cb86d03bdc"
        }
      }
    },
    {
      "fullUrl": "urn:uuid:105f1e6b-47e1-4c97-b99e-01e6dc82b128",
      "resource": {
        "resourceType": "Observation",
        "id": "105f1e6b-47e1-4c97-b99e-01e6dc82b128",
        "meta": {
          "profile": [
            "http://hl7.eu/fhir/laboratory/StructureDefinition/Observation-resultslab-eu-lab"
          ]
        },
        "performer": [
          {
            "display": "The Central European Lab"
          }
        ],
        "category": [
          {
            "coding": [
              {
                "system": "http://terminology.hl7.org/CodeSystem/observation-category",
                "code": "laboratory"
              }
            ]
          }
        ],
        "code": {
          "coding": [
            {
              "code": "20565-8",
              "system": "http://loinc.org",
              "display": "Carbon dioxide, total [Moles/volume] in Blood"
            }
          ],
          "text": "Carbon dioxide, total [Moles/volume] in Blood"
        },
        "valueQuantity": {
          "system": "http://unitsofmeasure.org",
          "value": 26.2,
          "unit": "mmol/L",
          "code": "mmol/L"
        },
        "referenceRange": [
          {
            "low": {
              "value": 22,
              "code": "mmol/L",
              "system": "http://unitsofmeasure.org"
            }
          },
          {
            "high": {
              "value": 29,
              "code": "mmol/L",
              "system": "http://unitsofmeasure.org"
            }
          }
        ],
        "text": {
          "status": "generated",
          "div": "<div xmlns=\"http://www.w3.org/1999/xhtml\"><table class=\"hl7__eu__lab__report\"><tr><th>Test</th><th>14-Apr-2024</th><th>Reference Range</th><th>Unit</th></tr><tr><td>Carbon dioxide, total [Moles/volume] in Blood</td><td>26.2</td><td>22 - 29</td><td></td><td>mmol/L</td></tr></table></div>"
        },
        "status": "final",
        "subject": {
          "reference": "urn:uuid:82e7f6e3-c5d6-4130-8cb3-debec769b1f1",
          "display": "Olga Bąbel"
        },
        "effectiveDateTime": "2024-04-14T03:55:50Z",
        "specimen": {
          "reference": "urn:uuid:56c38168-2467-437a-9667-78cb86d03bdc"
        }
      }
    },
    {
      "fullUrl": "urn:uuid:bb1db8e0-40f7-448c-beff-c9854d6a01d5",
      "resource": {
        "resourceType": "Observation",
        "id": "bb1db8e0-40f7-448c-beff-c9854d6a01d5",
        "meta": {
          "profile": [
            "http://hl7.eu/fhir/laboratory/StructureDefinition/Observation-resultslab-eu-lab"
          ]
        },
        "performer": [
          {
            "display": "The Central European Lab"
          }
        ],
        "category": [
          {
            "coding": [
              {
                "system": "http://terminology.hl7.org/CodeSystem/observation-category",
                "code": "laboratory"
              }
            ]
          }
        ],
        "code": {
          "coding": [
            {
              "code": "2093-3",
              "system": "http://loinc.org",
              "display": "Cholesterol [Mass/volume] in Serum or Plasma"
            }
          ],
          "text": "Cholesterol [Mass/volume] in Serum or Plasma"
        },
        "valueQuantity": {
          "system": "http://unitsofmeasure.org",
          "value": 178.4,
          "unit": "mg/dL",
          "code": "mg/dL"
        },
        "referenceRange": [
          {
            "low": {
              "value": 125,
              "code": "mg/dL",
              "system": "http://unitsofmeasure.org"
            }
          },
          {
            "high": {
              "value": 200,
              "code": "mg/dL",
              "system": "http://unitsofmeasure.org"
            }
          }
        ],
        "text": {
          "status": "generated",
          "div": "<div xmlns=\"http://www.w3.org/1999/xhtml\"><table class=\"hl7__eu__lab__report\"><tr><th>Test</th><th>14-Apr-2024</th><th>Reference Range</th><th>Unit</th></tr><tr><td>Cholesterol [Mass/volume] in Serum or Plasma</td><td>178.4</td><td>125 - 200</td><td></td><td>mg/dL</td></tr></table></div>"
        },
        "status": "final",
        "subject": {
          "reference": "urn:uuid:82e7f6e3-c5d6-4130-8cb3-debec769b1f1",
          "display": "Olga Bąbel"
        },
        "effectiveDateTime": "2024-04-14T03:55:50Z",
        "specimen": {
          "reference": "urn:uuid:ba21a5bc-0049-4f85-bb6e-03cf7fb0e183"
        }
      }
    },
    {
      "fullUrl": "urn:uuid:fd3ef226-f3bf-4e82-803d-4e5627bf2252",
      "resource": {
        "resourceType": "Observation",
        "id": "fd3ef226-f3bf-4e82-803d-4e5627bf2252",
        "meta": {
          "profile": [
            "http://hl7.eu/fhir/laboratory/StructureDefinition/Observation-resultslab-eu-lab"
          ]
        },
        "performer": [
          {
            "display": "The Central European Lab"
          }
        ],
        "category": [
          {
            "coding": [
              {
                "system": "http://terminology.hl7.org/CodeSystem/observation-category",
                "code": "laboratory"
              }
            ]
          }
        ],
        "code": {
          "coding": [
            {
              "code": "2571-8",
              "system": "http://loinc.org",
              "display": "Triglyceride [Mass/volume] in Serum or Plasma"
            }
          ],
          "text": "Triglyceride [Mass/volume] in Serum or Plasma"
        },
        "valueQuantity": {
          "system": "http://unitsofmeasure.org",
          "value": 112,
          "unit": "mg/dL",
          "code": "mg/dL"
        },
        "referenceRange": [
          {
            "low": {
              "value": 35,
              "code": "mg/dL",
              "system": "http://unitsofmeasure.org"
            }
          },
          {
            "high": {
              "value": 150,
              "code": "mg/dL",
              "system": "http://unitsofmeasure.org"
            }
          }
        ],
        "text": {
          "status": "generated",
          "div": "<div xmlns=\"http://www.w3.org/1999/xhtml\"><table class=\"hl7__eu__lab__report\"><tr><th>Test</th><th>14-Apr-2024</th><th>Reference Range</th><th>Unit</th></tr><tr><td>Triglyceride [Mass/volume] in Serum or Plasma</td><td>112.0</td><td>35 - 150</td><td></td><td>mg/dL</td></tr></table></div>"
        },
        "status": "final",
        "subject": {
          "reference": "urn:uuid:82e7f6e3-c5d6-4130-8cb3-debec769b1f1",
          "display": "Olga Bąbel"
        },
        "effectiveDateTime": "2024-04-14T03:55:50Z",
        "specimen": {
          "reference": "urn:uuid:ba21a5bc-0049-4f85-bb6e-03cf7fb0e183"
        }
      }
    },
    {
      "fullUrl": "urn:uuid:e868bd4d-4b47-4cad-80ea-941193eb0bab",
      "resource": {
        "resourceType": "Observation",
        "id": "e868bd4d-4b47-4cad-80ea-941193eb0bab",
        "meta": {
          "profile": [
            "http://hl7.eu/fhir/laboratory/StructureDefinition/Observation-resultslab-eu-lab"
          ]
        },
        "performer": [
          {
            "display": "The Central European Lab"
          }
        ],
        "category": [
          {
            "coding": [
              {
                "system": "http://terminology.hl7.org/CodeSystem/observation-category",
                "code": "laboratory"
              }
            ]
          }
        ],
        "code": {
          "coding": [
            {
              "code": "18262-6",
              "system": "http://loinc.org",
              "display": "Cholesterol in LDL [Mass/volume] in Serum or Plasma by Direct assay"
            }
          ],
          "text": "Cholesterol in LDL [Mass/volume] in Serum or Plasma by Direct assay"
        },
        "valueQuantity": {
          "system": "http://unitsofmeasure.org",
          "value": 97.4,
          "unit": "mg/dL",
          "code": "mg/dL"
        },
        "referenceRange": [
          {
            "low": {
              "value": 0,
              "code": "mg/dL",
              "system": "http://unitsofmeasure.org"
            }
          },
          {
            "high": {
              "value": 130,
              "code": "mg/dL",
              "system": "http://unitsofmeasure.org"
            }
          }
        ],
        "text": {
          "status": "generated",
          "div": "<div xmlns=\"http://www.w3.org/1999/xhtml\"><table class=\"hl7__eu__lab__report\"><tr><th>Test</th><th>14-Apr-2024</th><th>Reference Range</th><th>Unit</th></tr><tr><td>Cholesterol in LDL [Mass/volume] in Serum or Plasma by Direct assay</td><td>97.4</td><td>0 - 130</td><td></td><td>mg/dL</td></tr></table></div>"
        },
        "status": "final",
        "subject": {
          "reference": "urn:uuid:82e7f6e3-c5d6-4130-8cb3-debec769b1f1",
          "display": "Olga Bąbel"
        },
        "effectiveDateTime": "2024-04-14T03:55:50Z",
        "specimen": {
          "reference": "urn:uuid:ba21a5bc-0049-4f85-bb6e-03cf7fb0e183"
        }
      }
    },
    {
      "fullUrl": "urn:uuid:664aeeed-72cc-4315-93fe-5186ff821218",
      "resource": {
        "resourceType": "Observation",
        "id": "664aeeed-72cc-4315-93fe-5186ff821218",
        "meta": {
          "profile": [
            "http://hl7.eu/fhir/laboratory/StructureDefinition/Observation-resultslab-eu-lab"
          ]
        },
        "performer": [
          {
            "display": "The Central European Lab"
          }
        ],
        "category": [
          {
            "coding": [
              {
                "system": "http://terminology.hl7.org/CodeSystem/observation-category",
                "code": "laboratory"
              }
            ]
          }
        ],
        "code": {
          "coding": [
            {
              "code": "2085-9",
              "system": "http://loinc.org",
              "display": "Cholesterol in HDL [Mass/volume] in Serum or Plasma"
            }
          ],
          "text": "Cholesterol in HDL [Mass/volume] in Serum or Plasma"
        },
        "valueQuantity": {
          "system": "http://unitsofmeasure.org",
          "value": 58.5,
          "unit": "mg/dL",
          "code": "mg/dL"
        },
        "referenceRange": [
          {
            "low": {
              "value": 35,
              "code": "mg/dL",
              "system": "http://unitsofmeasure.org"
            }
          },
          {
            "high": {
              "value": 82,
              "code": "mg/dL",
              "system": "http://unitsofmeasure.org"
            }
          }
        ],
        "text": {
          "status": "generated",
          "div": "<div xmlns=\"http://www.w3.org/1999/xhtml\"><table class=\"hl7__eu__lab__report\"><tr><th>Test</th><th>14-Apr-2024</th><th>Reference Range</th><th>Unit</th></tr><tr><td>Cholesterol in HDL [Mass/volume] in Serum or Plasma</td><td>58.5</td><td>35 - 82</td><td></td><td>mg/dL</td></tr></table></div>"
        },
        "status": "final",
        "subject": {
          "reference": "urn:uuid:82e7f6e3-c5d6-4130-8cb3-debec769b1f1",
          "display": "Olga Bąbel"
        },
        "effectiveDateTime": "2024-04-14T03:55:50Z",
        "specimen": {
          "reference": "urn:uuid:ba21a5bc-0049-4f85-bb6e-03cf7fb0e183"
        }
      }
    },
    {
      "fullUrl": "urn:uuid:b95b2240-70f5-4936-9cd2-7d34f2355f8b",
      "resource": {
        "resourceType": "Device",
        "id": "b95b2240-70f5-4936-9cd2-7d34f2355f8b",
        "deviceName": [
          {
            "name": "SYNDERAI Synthetic Generator",
            "type": "manufacturer-name"
          }
        ],
        "version": [
          {
            "value": "5.0"
          }
        ],
        "text": {
          "status": "generated",
          "div": "<div xmlns=\"http://www.w3.org/1999/xhtml\">SYNDERAI Synthetic Generator v5.0</div>"
        },
        "status": "active\"",
        "distinctIdentifier": "synderai-generator-50",
        "manufacturer": "SYNDERAI Project"
      }
    },
    {
      "fullUrl": "urn:uuid:5b5cbffc-5c2a-42af-bae6-4f237b796c1b",
      "resource": {
        "resourceType": "Provenance",
        "id": "5b5cbffc-5c2a-42af-bae6-4f237b796c1b",
        "target": [
          {
            "reference": "Patient/82e7f6e3-c5d6-4130-8cb3-debec769b1f1"
          },
          {
            "reference": "Bundle/e00f81b6-4863-45ae-8c6b-e089a032011b"
          },
          {
            "reference": "Composition/a1f7e79b-628c-4112-b0b0-9e74cb4e33a1"
          },
          {
            "reference": "PractitionerRole/0414bbc6-9198-4571-a295-859b3eb69349"
          },
          {
            "reference": "Practitioner/14b9f455-51af-4ff6-a3bc-6a1dbbaa74c1"
          },
          {
            "reference": "PractitionerRole/8111fa28-02aa-49fc-85ec-1c3cac5c3909"
          },
          {
            "reference": "Organization/6f367782-20b7-4cd7-a2f8-4c58f30b31f7"
          }
        ],
        "activity": {
          "text": "Synthetic Example Data Generation"
        },
        "policy": [
          "https://synderai.net/synderai-synthetic-data-policy"
        ],
        "agent": [
          {
            "type": {
              "text": "author"
            },
            "who": {
              "reference": "Device/b95b2240-70f5-4936-9cd2-7d34f2355f8b"
            }
          }
        ],
        "reason": [
          {
            "text": "Interoperability Testing and Training (non-clinical use)"
          }
        ],
        "text": {
          "status": "generated",
          "div": "<div xmlns=\"http://www.w3.org/1999/xhtml\">Provenance for SYNDERAI Synthetic Example Data Resource</div>"
        },
        "recorded": "2024-04-14T05:55:50Z"
      }
    },
    {
      "fullUrl": "urn:uuid:0414bbc6-9198-4571-a295-859b3eb69349",
      "resource": {
        "resourceType": "PractitionerRole",
        "id": "0414bbc6-9198-4571-a295-859b3eb69349",
        "meta": {
          "profile": [
            "http://hl7.eu/fhir/base/StructureDefinition/practitionerRole-eu"
          ]
        },
        "text": {
          "status": "generated",
          "div": "<div xmlns=\"http://www.w3.org/1999/xhtml\">Laboratory Role Id: 0414bbc6-9198-4571-a295-859b3eb69349</div>"
        },
        "practitioner": {
          "reference": "urn:uuid:14b9f455-51af-4ff6-a3bc-6a1dbbaa74c1"
        }
      }
    },
    {
      "fullUrl": "urn:uuid:14b9f455-51af-4ff6-a3bc-6a1dbbaa74c1",
      "resource": {
        "resourceType": "Practitioner",
        "id": "14b9f455-51af-4ff6-a3bc-6a1dbbaa74c1",
        "meta": {
          "profile": [
            "http://hl7.eu/fhir/base/StructureDefinition/practitioner-eu"
          ]
        },
        "identifier": [
          {
            "assigner": {
              "display": "HL7 Europe"
            },
            "system": "urn:oid:2.16.840.1.113883.2.51.999",
            "value": "fd1719c7-e210-4768-a245-433bd962d7b2"
          }
        ],
        "name": [
          {
            "prefix": [
              "dr"
            ],
            "given": [
              "Ex"
            ],
            "family": "Ample"
          }
        ],
        "address": [
          {
            "line": [
              "Laboratoire Central Européenne",
              "Boulevard du Jardin Botanique 32"
            ],
            "postalCode": "1000",
            "city": "Brussels",
            "country": "Belgium"
          }
        ],
        "text": {
          "status": "generated",
          "div": "<div xmlns=\"http://www.w3.org/1999/xhtml\">Laboratory: Laboratoire Central Européenne, 1000 Brussels, Belgium</div>"
        }
      }
    }
  ],
  "type": "document",
  "timestamp": "2024-04-14T05:55:50Z"
}
