{
  "resourceType": "Bundle",
  "id": "03a58491-4f80-4740-8558-1d87b3f7e294",
  "meta": {
    "profile": [
      "http://hl7.eu/fhir/laboratory/StructureDefinition/Bundle-eu-lab"
    ]
  },
  "identifier": {
    "assigner": {
      "display": "HL7 Europe"
    },
    "system": "urn:oid:2.16.840.1.113883.2.51.999",
    "value": "3578992e-6992-47c2-90d9-d71672dd14d6"
  },
  "entry": [
    {
      "fullUrl": "urn:uuid:d1ae63ce-bdaa-4c3a-bdab-0bb6c935b9a5",
      "resource": {
        "resourceType": "Composition",
        "id": "d1ae63ce-bdaa-4c3a-bdab-0bb6c935b9a5",
        "meta": {
          "profile": [
            "http://hl7.eu/fhir/laboratory/StructureDefinition/Composition-eu-lab"
          ]
        },
        "identifier": {
          "assigner": {
            "display": "HL7 Europe"
          },
          "system": "urn:oid:2.16.840.1.113883.2.51.999",
          "value": "4217954a-d7d1-4a66-8a65-2a613616a795"
        },
        "author": [
          {
            "reference": "urn:uuid:fc684a72-1a87-4d78-9be7-46503a11dc12"
          }
        ],
        "category": [
          {
            "coding": [
              {
                "code": "26436-6",
                "system": "http://loinc.org",
                "display": "Laboratory studies (set)"
              }
            ]
          }
        ],
        "type": {
          "coding": [
            {
              "code": "11502-2",
              "system": "http://loinc.org",
              "display": "Laboratory report"
            }
          ],
          "text": "Laboratory Report"
        },
        "section": [
          {
            "code": {
              "coding": [
                {
                  "code": "26436-6",
                  "system": "http://loinc.org",
                  "display": "Laboratory studies (set)"
                }
              ],
              "text": "Laboratory studies"
            },
            "section": [
              {
                "code": {
                  "coding": [
                    {
                      "code": "$18719-5",
                      "system": "http://loinc.org",
                      "display": "Chemistry studies (set)"
                    }
                  ],
                  "text": "Chemistry"
                },
                "entry": [
                  {
                    "reference": "urn:uuid:0bdce6cd-d3d3-43a3-a652-ccf974149c70"
                  },
                  {
                    "reference": "urn:uuid:e7d0f478-2ab1-4cd7-97eb-ee72379e5aba"
                  },
                  {
                    "reference": "urn:uuid:e327e68c-92ef-408f-b15b-6213150e7af6"
                  },
                  {
                    "reference": "urn:uuid:91017e6a-9f37-463c-8b4d-1cd3bb68e1e4"
                  },
                  {
                    "reference": "urn:uuid:c2e81db4-85ea-4c92-b95d-24377944bdb4"
                  },
                  {
                    "reference": "urn:uuid:badcd87c-99ad-407e-924e-83012ac58064"
                  },
                  {
                    "reference": "urn:uuid:d5016b41-c1a7-4c55-a086-d7a5c85cfdb9"
                  },
                  {
                    "reference": "urn:uuid:57ef95a7-ea36-49bc-8858-72227044febb"
                  },
                  {
                    "reference": "urn:uuid:ee6a8643-ff09-4745-aaf3-33d35d688f43"
                  },
                  {
                    "reference": "urn:uuid:13fbca54-4e42-41a4-8a64-34c45debc436"
                  },
                  {
                    "reference": "urn:uuid:e301f8c8-f2be-4811-b1f2-4f38c9cd550b"
                  },
                  {
                    "reference": "urn:uuid:f0802cf2-d28b-4100-8c28-edceca7a1675"
                  },
                  {
                    "reference": "urn:uuid:ceb892c8-e3eb-40fe-98c0-983794ad5498"
                  }
                ],
                "text": {
                  "status": "generated",
                  "div": "<div xmlns=\"http://www.w3.org/1999/xhtml\"><h3>Chemistry</h3><table class=\"hl7__eu__lab__report\"><thead><tr><th>Test</th><th>09-APR-2023</th><th>Reference&#xA0;Range</th><th>Unit</th></tr></thead><tbody><tr><td>Hemoglobin A1c/Hemoglobin.total in Blood</td><td>6.0</td><td>4 - 6</td><td>%</td></tr><tr><td>Glucose [Mass/volume] in Blood</td><td>72.4</td><td>70 - 99</td><td>mg/dL</td></tr><tr><td>Urea nitrogen [Mass/volume] in Blood</td><td>14.5</td><td>7 - 20</td><td>mg/dL</td></tr><tr><td>Creatinine [Mass/volume] in Blood</td><td><strong>1.4 H</strong></td><td>0.6 - 1.3</td><td>mg/dL</td></tr><tr><td>Calcium [Mass/volume] in Blood</td><td>10.1</td><td>8.5 - 10.5</td><td>mg/dL</td></tr><tr><td>Sodium [Moles/volume] in Blood</td><td>137.5</td><td>135 - 145</td><td>mmol/L</td></tr><tr><td>Potassium [Moles/volume] in Blood</td><td>4.2</td><td>3.5 - 5.2</td><td>mmol/L</td></tr><tr><td>Chloride [Moles/volume] in Blood</td><td>102.6</td><td>98 - 114</td><td>mmol/L</td></tr><tr><td>Carbon dioxide, total [Moles/volume] in Blood</td><td><strong>20.7 L</strong></td><td>24 - 29</td><td>mmol/L</td></tr><tr><td>Cholesterol [Mass/volume] in Serum or Plasma</td><td>144.9</td><td>125 - 200</td><td>mg/dL</td></tr><tr><td>Triglyceride [Mass/volume] in Serum or Plasma</td><td>129.1</td><td>40 - 150</td><td>mg/dL</td></tr><tr><td>Cholesterol in LDL [Mass/volume] in Serum or Plasma by Direct assay</td><td>94.4</td><td>0 - 130</td><td>mg/dL</td></tr><tr><td>Cholesterol in HDL [Mass/volume] in Serum or Plasma</td><td><strong>24.7 L</strong></td><td>40 - 100</td><td>mg/dL</td></tr></tbody></table></div>"
                },
                "title": "Chemistry"
              }
            ],
            "title": "Laboratory Report"
          },
          {
            "text": {
              "status": "generated",
              "div": "<div xmlns=\"http://www.w3.org/1999/xhtml\"><h3>Annotation</h3><table class=\"hl7__eu__lab__report\"><tr><th>Conclusion and Recommendations based on this report and previous findings known to us</th></tr><tr><td>The results show mildly elevated creatinine, low total CO₂, and low HDL cholesterol. HbA1c is at the upper limit of normal, suggesting possible early glucose metabolism changes. Other parameters are within normal limits. Recommend clinical correlation for possible early renal impairment, metabolic acidosis, and increased cardiovascular risk due to low HDL. Follow-up and further evaluation are advised.</td></tr></table></div>"
            },
            "code": {
              "coding": [
                {
                  "system": "http://loinc.org",
                  "code": "48767-8",
                  "display": "Annotation comment"
                }
              ]
            },
            "title": "Annotation comment"
          }
        ],
        "status": "final",
        "subject": {
          "reference": "urn:uuid:5274e92b-abc4-4f88-a997-c2bbab6e320f",
          "display": "Benedetto Lombroso"
        },
        "date": "2023-04-09T09:22:02Z",
        "title": "Laboratory Report",
        "confidentiality": "N"
      }
    },
    {
      "fullUrl": "urn:uuid:9869375c-98e2-4c0f-8517-7b001afaae07",
      "resource": {
        "resourceType": "DiagnosticReport",
        "id": "9869375c-98e2-4c0f-8517-7b001afaae07",
        "meta": {
          "profile": [
            "http://hl7.eu/fhir/laboratory/StructureDefinition/DiagnosticReport-eu-lab"
          ]
        },
        "identifier": [
          {
            "assigner": {
              "display": "HL7 Europe"
            },
            "system": "urn:oid:2.16.840.1.113883.2.51.999",
            "value": "51bf0d73-5926-44fe-8caf-c22d336130c1"
          }
        ],
        "extension": [
          {
            "url": "http://hl7.org/fhir/5.0/StructureDefinition/extension-DiagnosticReport.composition",
            "valueReference": {
              "reference": "urn:uuid:4217954a-d7d1-4a66-8a65-2a613616a795"
            }
          }
        ],
        "category": [
          {
            "coding": [
              {
                "code": "26436-6",
                "system": "http://loinc.org",
                "display": "Laboratory studies (set)"
              }
            ]
          }
        ],
        "specimen": [
          {
            "reference": "urn:uuid:e78c43e4-5580-4f54-84df-8584e1e13d7a"
          },
          {
            "reference": "urn:uuid:bdaabd82-0da9-4a0e-ac31-e8c44d53fbd0"
          }
        ],
        "result": [
          {
            "reference": "urn:uuid:0bdce6cd-d3d3-43a3-a652-ccf974149c70"
          },
          {
            "reference": "urn:uuid:e7d0f478-2ab1-4cd7-97eb-ee72379e5aba"
          },
          {
            "reference": "urn:uuid:e327e68c-92ef-408f-b15b-6213150e7af6"
          },
          {
            "reference": "urn:uuid:91017e6a-9f37-463c-8b4d-1cd3bb68e1e4"
          },
          {
            "reference": "urn:uuid:c2e81db4-85ea-4c92-b95d-24377944bdb4"
          },
          {
            "reference": "urn:uuid:badcd87c-99ad-407e-924e-83012ac58064"
          },
          {
            "reference": "urn:uuid:d5016b41-c1a7-4c55-a086-d7a5c85cfdb9"
          },
          {
            "reference": "urn:uuid:57ef95a7-ea36-49bc-8858-72227044febb"
          },
          {
            "reference": "urn:uuid:ee6a8643-ff09-4745-aaf3-33d35d688f43"
          },
          {
            "reference": "urn:uuid:13fbca54-4e42-41a4-8a64-34c45debc436"
          },
          {
            "reference": "urn:uuid:e301f8c8-f2be-4811-b1f2-4f38c9cd550b"
          },
          {
            "reference": "urn:uuid:f0802cf2-d28b-4100-8c28-edceca7a1675"
          },
          {
            "reference": "urn:uuid:ceb892c8-e3eb-40fe-98c0-983794ad5498"
          }
        ],
        "status": "registered",
        "code": {
          "coding": [
            {
              "code": "11502-2",
              "system": "http://loinc.org",
              "display": "Laboratory report"
            }
          ]
        },
        "subject": {
          "reference": "urn:uuid:5274e92b-abc4-4f88-a997-c2bbab6e320f",
          "display": "Benedetto Lombroso"
        }
      }
    },
    {
      "fullUrl": "urn:uuid:5274e92b-abc4-4f88-a997-c2bbab6e320f",
      "resource": {
        "resourceType": "Patient",
        "id": "5274e92b-abc4-4f88-a997-c2bbab6e320f",
        "meta": {
          "security": [
            {
              "system": "http://terminology.hl7.org/CodeSystem/v3-ActReason",
              "code": "HTEST"
            },
            {
              "system": "http://terminology.hl7.org/CodeSystem/v3-ActReason",
              "code": "TRAIN"
            }
          ],
          "tag": [
            {
              "system": "https://synderai.net/fhir/CodeSystem/tags",
              "code": "synthetic",
              "display": "SYNDERAI Synthetic data"
            }
          ],
          "profile": [
            "http://hl7.eu/fhir/base/StructureDefinition/patient-eu-core"
          ]
        },
        "identifier": [
          {
            "type": {
              "coding": [
                {
                  "code": "PT",
                  "system": "http://terminology.hl7.org/CodeSystem/v2-0203"
                }
              ]
            },
            "system": "http://ec.europa.eu/identifier/eci",
            "value": "9244-804304-9"
          },
          {
            "type": {
              "coding": [
                {
                  "code": "MR",
                  "system": "http://terminology.hl7.org/CodeSystem/v2-0203"
                }
              ]
            },
            "system": "http://local.setting.eu/identifier",
            "value": "320c36e6-403e-bb27-4756-8ebdd21bc0e5"
          }
        ],
        "name": [
          {
            "family": "Lombroso"
          },
          {
            "given": [
              "Benedetto"
            ]
          },
          {
            "text": "Benedetto Lombroso"
          }
        ],
        "address": [
          {
            "line": [
              "Stretto Zaccagnini, 924"
            ],
            "use": "home",
            "type": "physical",
            "postalCode": "37121",
            "city": "Verona",
            "country": "Italy"
          }
        ],
        "telecom": [
          {
            "system": "phone",
            "value": "+39 016691228"
          }
        ],
        "extension": [
          {
            "url": "http://hl7.org/fhir/StructureDefinition/patient-nationality",
            "valueCodeableConcept": {
              "coding": [
                {
                  "code": "IT",
                  "system": "http://hl7.org/fhir/ValueSet/country"
                }
              ]
            }
          }
        ],
        "text": {
          "status": "generated",
          "div": "<div xmlns=\"http://www.w3.org/1999/xhtml\"><table class=\"hl7__ips\"><tr><td>Benedetto Lombroso</td><td>male</td><td>07-May-1989</td></tr></table></div>"
        },
        "gender": "male",
        "birthDate": "1989-05-07"
      }
    },
    {
      "fullUrl": "urn:uuid:349cf976-3e9c-4076-8048-fa4b6d63b1ea",
      "resource": {
        "resourceType": "ServiceRequest",
        "id": "349cf976-3e9c-4076-8048-fa4b6d63b1ea",
        "meta": {
          "profile": [
            "http://hl7.eu/fhir/laboratory/StructureDefinition/ServiceRequest-eu-lab"
          ]
        },
        "identifier": [
          {
            "system": "http://example.org",
            "value": "80320f56-211c-4eb7-9bea-f1885567620b"
          }
        ],
        "specimen": [
          {
            "reference": "urn:uuid:e78c43e4-5580-4f54-84df-8584e1e13d7a"
          },
          {
            "reference": "urn:uuid:bdaabd82-0da9-4a0e-ac31-e8c44d53fbd0"
          }
        ],
        "reasonCode": [
          {
            "coding": [
              {
                "code": "15777000",
                "system": "http://snomed.info/sct",
                "display": "Prediabetes"
              }
            ]
          },
          {
            "coding": [
              {
                "code": "271737000",
                "system": "http://snomed.info/sct",
                "display": "Anemia"
              }
            ]
          }
        ],
        "status": "active",
        "intent": "order",
        "code": {
          "coding": [
            {
              "code": "108252007",
              "system": "http://snomed.info/sct",
              "display": "Laboratory procedure"
            }
          ]
        },
        "subject": {
          "reference": "urn:uuid:5274e92b-abc4-4f88-a997-c2bbab6e320f",
          "display": "Benedetto Lombroso"
        },
        "requester": {
          "reference": "urn:uuid:84cb2cd6-3d2f-4ace-8d41-f95eabc7d844"
        }
      }
    },
    {
      "fullUrl": "urn:uuid:84cb2cd6-3d2f-4ace-8d41-f95eabc7d844",
      "resource": {
        "resourceType": "PractitionerRole",
        "id": "84cb2cd6-3d2f-4ace-8d41-f95eabc7d844",
        "meta": {
          "profile": [
            "http://hl7.eu/fhir/base/StructureDefinition/practitionerRole-eu"
          ]
        },
        "text": {
          "status": "generated",
          "div": "<div xmlns=\"http://www.w3.org/1999/xhtml\">Provider Role Id: 84cb2cd6-3d2f-4ace-8d41-f95eabc7d844</div>"
        },
        "organization": {
          "reference": "urn:uuid:bf2a8bfe-ecd0-4a3b-9c4c-e422470e70a6"
        }
      }
    },
    {
      "fullUrl": "urn:uuid:bf2a8bfe-ecd0-4a3b-9c4c-e422470e70a6",
      "resource": {
        "resourceType": "Organization",
        "id": "bf2a8bfe-ecd0-4a3b-9c4c-e422470e70a6",
        "meta": {
          "profile": [
            "http://hl7.eu/fhir/base/StructureDefinition/organization-eu"
          ]
        },
        "identifier": [
          {
            "assigner": {
              "display": "HL7 Europe"
            },
            "system": "urn:oid:2.16.840.1.113883.2.51.999",
            "value": "f3fd86d2-70e5-48c3-b522-dd2769d2f9cb"
          }
        ],
        "address": [
          {
            "line": [
              "Piazzale Aristide Stefani 1"
            ],
            "city": "Verona",
            "postalCode": "37124",
            "country": "Italy"
          }
        ],
        "text": {
          "status": "generated",
          "div": "<div xmlns=\"http://www.w3.org/1999/xhtml\">Provider Organization: Ospedale Civile Maggiore</div>"
        },
        "name": "Ospedale Civile Maggiore"
      }
    },
    {
      "fullUrl": "urn:uuid:e78c43e4-5580-4f54-84df-8584e1e13d7a",
      "resource": {
        "resourceType": "Specimen",
        "id": "e78c43e4-5580-4f54-84df-8584e1e13d7a",
        "meta": {
          "profile": [
            "http://hl7.eu/fhir/laboratory/StructureDefinition/Specimen-eu-lab"
          ]
        },
        "collection": {
          "collectedDateTime": "2023-04-09"
        },
        "text": {
          "status": "generated",
          "div": "<div xmlns=\"http://www.w3.org/1999/xhtml\"><table class=\"hl7__eu__lab__report\"><tr><th>Specimen</th><th>Collection Date</th></tr><tr><td>Whole blood specimen (specimen)</td><td><span class=\"nb\">09-Apr-2023</span></td></tr></table></div>"
        },
        "type": {
          "coding": [
            {
              "code": "258580003",
              "system": "http://snomed.info/sct",
              "display": "Whole blood specimen (specimen)"
            }
          ]
        }
      }
    },
    {
      "fullUrl": "urn:uuid:bdaabd82-0da9-4a0e-ac31-e8c44d53fbd0",
      "resource": {
        "resourceType": "Specimen",
        "id": "bdaabd82-0da9-4a0e-ac31-e8c44d53fbd0",
        "meta": {
          "profile": [
            "http://hl7.eu/fhir/laboratory/StructureDefinition/Specimen-eu-lab"
          ]
        },
        "collection": {
          "collectedDateTime": "2023-04-09"
        },
        "text": {
          "status": "generated",
          "div": "<div xmlns=\"http://www.w3.org/1999/xhtml\"><table class=\"hl7__eu__lab__report\"><tr><th>Specimen</th><th>Collection Date</th></tr><tr><td>Acellular blood (serum or plasma) specimen</td><td><span class=\"nb\">09-Apr-2023</span></td></tr></table></div>"
        },
        "type": {
          "coding": [
            {
              "code": "122592007",
              "system": "http://snomed.info/sct",
              "display": "Acellular blood (serum or plasma) specimen"
            }
          ]
        }
      }
    },
    {
      "fullUrl": "urn:uuid:0bdce6cd-d3d3-43a3-a652-ccf974149c70",
      "resource": {
        "resourceType": "Observation",
        "id": "0bdce6cd-d3d3-43a3-a652-ccf974149c70",
        "meta": {
          "profile": [
            "http://hl7.eu/fhir/laboratory/StructureDefinition/Observation-resultslab-eu-lab"
          ]
        },
        "performer": [
          {
            "display": "The Central European Lab"
          }
        ],
        "category": [
          {
            "coding": [
              {
                "system": "http://terminology.hl7.org/CodeSystem/observation-category",
                "code": "laboratory"
              }
            ]
          }
        ],
        "code": {
          "coding": [
            {
              "code": "4548-4",
              "system": "http://loinc.org",
              "display": "Hemoglobin A1c/Hemoglobin.total in Blood"
            }
          ],
          "text": "Hemoglobin A1c/Hemoglobin.total in Blood"
        },
        "valueQuantity": {
          "system": "http://unitsofmeasure.org",
          "value": 6,
          "unit": "%",
          "code": "%"
        },
        "referenceRange": [
          {
            "low": {
              "value": 4,
              "code": "%",
              "system": "http://unitsofmeasure.org"
            }
          },
          {
            "high": {
              "value": 6,
              "code": "%",
              "system": "http://unitsofmeasure.org"
            }
          }
        ],
        "text": {
          "status": "generated",
          "div": "<div xmlns=\"http://www.w3.org/1999/xhtml\"><table class=\"hl7__eu__lab__report\"><tr><th>Test</th><th>09-Apr-2023</th><th>Reference&#xA0;Range</th><th>Unit</th></tr><tr><td>Hemoglobin A1c/Hemoglobin.total in Blood</td><td>6.0</td><td>4 - 6</td><td></td><td>%</td></tr></table></div>"
        },
        "status": "final",
        "subject": {
          "reference": "urn:uuid:5274e92b-abc4-4f88-a997-c2bbab6e320f",
          "display": "Benedetto Lombroso"
        },
        "effectiveDateTime": "2023-04-09T07:22:02Z",
        "specimen": {
          "reference": "urn:uuid:e78c43e4-5580-4f54-84df-8584e1e13d7a"
        }
      }
    },
    {
      "fullUrl": "urn:uuid:e7d0f478-2ab1-4cd7-97eb-ee72379e5aba",
      "resource": {
        "resourceType": "Observation",
        "id": "e7d0f478-2ab1-4cd7-97eb-ee72379e5aba",
        "meta": {
          "profile": [
            "http://hl7.eu/fhir/laboratory/StructureDefinition/Observation-resultslab-eu-lab"
          ]
        },
        "performer": [
          {
            "display": "The Central European Lab"
          }
        ],
        "category": [
          {
            "coding": [
              {
                "system": "http://terminology.hl7.org/CodeSystem/observation-category",
                "code": "laboratory"
              }
            ]
          }
        ],
        "code": {
          "coding": [
            {
              "code": "2339-0",
              "system": "http://loinc.org",
              "display": "Glucose [Mass/volume] in Blood"
            }
          ],
          "text": "Glucose [Mass/volume] in Blood"
        },
        "valueQuantity": {
          "system": "http://unitsofmeasure.org",
          "value": 72.4,
          "unit": "mg/dL",
          "code": "mg/dL"
        },
        "referenceRange": [
          {
            "low": {
              "value": 70,
              "code": "mg/dL",
              "system": "http://unitsofmeasure.org"
            }
          },
          {
            "high": {
              "value": 99,
              "code": "mg/dL",
              "system": "http://unitsofmeasure.org"
            }
          }
        ],
        "text": {
          "status": "generated",
          "div": "<div xmlns=\"http://www.w3.org/1999/xhtml\"><table class=\"hl7__eu__lab__report\"><tr><th>Test</th><th>09-Apr-2023</th><th>Reference&#xA0;Range</th><th>Unit</th></tr><tr><td>Glucose [Mass/volume] in Blood</td><td>72.4</td><td>70 - 99</td><td></td><td>mg/dL</td></tr></table></div>"
        },
        "status": "final",
        "subject": {
          "reference": "urn:uuid:5274e92b-abc4-4f88-a997-c2bbab6e320f",
          "display": "Benedetto Lombroso"
        },
        "effectiveDateTime": "2023-04-09T07:22:02Z",
        "specimen": {
          "reference": "urn:uuid:e78c43e4-5580-4f54-84df-8584e1e13d7a"
        }
      }
    },
    {
      "fullUrl": "urn:uuid:e327e68c-92ef-408f-b15b-6213150e7af6",
      "resource": {
        "resourceType": "Observation",
        "id": "e327e68c-92ef-408f-b15b-6213150e7af6",
        "meta": {
          "profile": [
            "http://hl7.eu/fhir/laboratory/StructureDefinition/Observation-resultslab-eu-lab"
          ]
        },
        "performer": [
          {
            "display": "The Central European Lab"
          }
        ],
        "category": [
          {
            "coding": [
              {
                "system": "http://terminology.hl7.org/CodeSystem/observation-category",
                "code": "laboratory"
              }
            ]
          }
        ],
        "code": {
          "coding": [
            {
              "code": "6299-2",
              "system": "http://loinc.org",
              "display": "Urea nitrogen [Mass/volume] in Blood"
            }
          ],
          "text": "Urea nitrogen [Mass/volume] in Blood"
        },
        "valueQuantity": {
          "system": "http://unitsofmeasure.org",
          "value": 14.5,
          "unit": "mg/dL",
          "code": "mg/dL"
        },
        "referenceRange": [
          {
            "low": {
              "value": 7,
              "code": "mg/dL",
              "system": "http://unitsofmeasure.org"
            }
          },
          {
            "high": {
              "value": 20,
              "code": "mg/dL",
              "system": "http://unitsofmeasure.org"
            }
          }
        ],
        "text": {
          "status": "generated",
          "div": "<div xmlns=\"http://www.w3.org/1999/xhtml\"><table class=\"hl7__eu__lab__report\"><tr><th>Test</th><th>09-Apr-2023</th><th>Reference&#xA0;Range</th><th>Unit</th></tr><tr><td>Urea nitrogen [Mass/volume] in Blood</td><td>14.5</td><td>7 - 20</td><td></td><td>mg/dL</td></tr></table></div>"
        },
        "status": "final",
        "subject": {
          "reference": "urn:uuid:5274e92b-abc4-4f88-a997-c2bbab6e320f",
          "display": "Benedetto Lombroso"
        },
        "effectiveDateTime": "2023-04-09T07:22:02Z",
        "specimen": {
          "reference": "urn:uuid:e78c43e4-5580-4f54-84df-8584e1e13d7a"
        }
      }
    },
    {
      "fullUrl": "urn:uuid:91017e6a-9f37-463c-8b4d-1cd3bb68e1e4",
      "resource": {
        "resourceType": "Observation",
        "id": "91017e6a-9f37-463c-8b4d-1cd3bb68e1e4",
        "meta": {
          "profile": [
            "http://hl7.eu/fhir/laboratory/StructureDefinition/Observation-resultslab-eu-lab"
          ]
        },
        "performer": [
          {
            "display": "The Central European Lab"
          }
        ],
        "category": [
          {
            "coding": [
              {
                "system": "http://terminology.hl7.org/CodeSystem/observation-category",
                "code": "laboratory"
              }
            ]
          }
        ],
        "code": {
          "coding": [
            {
              "code": "38483-4",
              "system": "http://loinc.org",
              "display": "Creatinine [Mass/volume] in Blood"
            }
          ],
          "text": "Creatinine [Mass/volume] in Blood"
        },
        "valueQuantity": {
          "system": "http://unitsofmeasure.org",
          "value": 1.4,
          "unit": "mg/dL",
          "code": "mg/dL"
        },
        "referenceRange": [
          {
            "low": {
              "value": 0.6,
              "code": "mg/dL",
              "system": "http://unitsofmeasure.org"
            }
          },
          {
            "high": {
              "value": 1.3,
              "code": "mg/dL",
              "system": "http://unitsofmeasure.org"
            }
          }
        ],
        "interpretation": [
          {
            "coding": [
              {
                "code": "H",
                "system": "http://terminology.hl7.org/CodeSystem/v3-ObservationInterpretation",
                "display": "High"
              }
            ]
          }
        ],
        "text": {
          "status": "generated",
          "div": "<div xmlns=\"http://www.w3.org/1999/xhtml\"><table class=\"hl7__eu__lab__report\"><tr><th>Test</th><th>09-Apr-2023</th><th>Reference&#xA0;Range</th><th>Unit</th></tr><tr><td>Creatinine [Mass/volume] in Blood</td><td>1.4</td><td>0.6 - 1.3</td><td>H</td><td>mg/dL</td></tr></table></div>"
        },
        "status": "final",
        "subject": {
          "reference": "urn:uuid:5274e92b-abc4-4f88-a997-c2bbab6e320f",
          "display": "Benedetto Lombroso"
        },
        "effectiveDateTime": "2023-04-09T07:22:02Z",
        "specimen": {
          "reference": "urn:uuid:e78c43e4-5580-4f54-84df-8584e1e13d7a"
        }
      }
    },
    {
      "fullUrl": "urn:uuid:c2e81db4-85ea-4c92-b95d-24377944bdb4",
      "resource": {
        "resourceType": "Observation",
        "id": "c2e81db4-85ea-4c92-b95d-24377944bdb4",
        "meta": {
          "profile": [
            "http://hl7.eu/fhir/laboratory/StructureDefinition/Observation-resultslab-eu-lab"
          ]
        },
        "performer": [
          {
            "display": "The Central European Lab"
          }
        ],
        "category": [
          {
            "coding": [
              {
                "system": "http://terminology.hl7.org/CodeSystem/observation-category",
                "code": "laboratory"
              }
            ]
          }
        ],
        "code": {
          "coding": [
            {
              "code": "49765-1",
              "system": "http://loinc.org",
              "display": "Calcium [Mass/volume] in Blood"
            }
          ],
          "text": "Calcium [Mass/volume] in Blood"
        },
        "valueQuantity": {
          "system": "http://unitsofmeasure.org",
          "value": 10.1,
          "unit": "mg/dL",
          "code": "mg/dL"
        },
        "referenceRange": [
          {
            "low": {
              "value": 8.5,
              "code": "mg/dL",
              "system": "http://unitsofmeasure.org"
            }
          },
          {
            "high": {
              "value": 10.5,
              "code": "mg/dL",
              "system": "http://unitsofmeasure.org"
            }
          }
        ],
        "text": {
          "status": "generated",
          "div": "<div xmlns=\"http://www.w3.org/1999/xhtml\"><table class=\"hl7__eu__lab__report\"><tr><th>Test</th><th>09-Apr-2023</th><th>Reference&#xA0;Range</th><th>Unit</th></tr><tr><td>Calcium [Mass/volume] in Blood</td><td>10.1</td><td>8.5 - 10.5</td><td></td><td>mg/dL</td></tr></table></div>"
        },
        "status": "final",
        "subject": {
          "reference": "urn:uuid:5274e92b-abc4-4f88-a997-c2bbab6e320f",
          "display": "Benedetto Lombroso"
        },
        "effectiveDateTime": "2023-04-09T07:22:02Z",
        "specimen": {
          "reference": "urn:uuid:e78c43e4-5580-4f54-84df-8584e1e13d7a"
        }
      }
    },
    {
      "fullUrl": "urn:uuid:badcd87c-99ad-407e-924e-83012ac58064",
      "resource": {
        "resourceType": "Observation",
        "id": "badcd87c-99ad-407e-924e-83012ac58064",
        "meta": {
          "profile": [
            "http://hl7.eu/fhir/laboratory/StructureDefinition/Observation-resultslab-eu-lab"
          ]
        },
        "performer": [
          {
            "display": "The Central European Lab"
          }
        ],
        "category": [
          {
            "coding": [
              {
                "system": "http://terminology.hl7.org/CodeSystem/observation-category",
                "code": "laboratory"
              }
            ]
          }
        ],
        "code": {
          "coding": [
            {
              "code": "2947-0",
              "system": "http://loinc.org",
              "display": "Sodium [Moles/volume] in Blood"
            }
          ],
          "text": "Sodium [Moles/volume] in Blood"
        },
        "valueQuantity": {
          "system": "http://unitsofmeasure.org",
          "value": 137.5,
          "unit": "mmol/L",
          "code": "mmol/L"
        },
        "referenceRange": [
          {
            "low": {
              "value": 135,
              "code": "mmol/L",
              "system": "http://unitsofmeasure.org"
            }
          },
          {
            "high": {
              "value": 145,
              "code": "mmol/L",
              "system": "http://unitsofmeasure.org"
            }
          }
        ],
        "text": {
          "status": "generated",
          "div": "<div xmlns=\"http://www.w3.org/1999/xhtml\"><table class=\"hl7__eu__lab__report\"><tr><th>Test</th><th>09-Apr-2023</th><th>Reference&#xA0;Range</th><th>Unit</th></tr><tr><td>Sodium [Moles/volume] in Blood</td><td>137.5</td><td>135 - 145</td><td></td><td>mmol/L</td></tr></table></div>"
        },
        "status": "final",
        "subject": {
          "reference": "urn:uuid:5274e92b-abc4-4f88-a997-c2bbab6e320f",
          "display": "Benedetto Lombroso"
        },
        "effectiveDateTime": "2023-04-09T07:22:02Z",
        "specimen": {
          "reference": "urn:uuid:e78c43e4-5580-4f54-84df-8584e1e13d7a"
        }
      }
    },
    {
      "fullUrl": "urn:uuid:d5016b41-c1a7-4c55-a086-d7a5c85cfdb9",
      "resource": {
        "resourceType": "Observation",
        "id": "d5016b41-c1a7-4c55-a086-d7a5c85cfdb9",
        "meta": {
          "profile": [
            "http://hl7.eu/fhir/laboratory/StructureDefinition/Observation-resultslab-eu-lab"
          ]
        },
        "performer": [
          {
            "display": "The Central European Lab"
          }
        ],
        "category": [
          {
            "coding": [
              {
                "system": "http://terminology.hl7.org/CodeSystem/observation-category",
                "code": "laboratory"
              }
            ]
          }
        ],
        "code": {
          "coding": [
            {
              "code": "6298-4",
              "system": "http://loinc.org",
              "display": "Potassium [Moles/volume] in Blood"
            }
          ],
          "text": "Potassium [Moles/volume] in Blood"
        },
        "valueQuantity": {
          "system": "http://unitsofmeasure.org",
          "value": 4.2,
          "unit": "mmol/L",
          "code": "mmol/L"
        },
        "referenceRange": [
          {
            "low": {
              "value": 3.5,
              "code": "mmol/L",
              "system": "http://unitsofmeasure.org"
            }
          },
          {
            "high": {
              "value": 5.2,
              "code": "mmol/L",
              "system": "http://unitsofmeasure.org"
            }
          }
        ],
        "text": {
          "status": "generated",
          "div": "<div xmlns=\"http://www.w3.org/1999/xhtml\"><table class=\"hl7__eu__lab__report\"><tr><th>Test</th><th>09-Apr-2023</th><th>Reference&#xA0;Range</th><th>Unit</th></tr><tr><td>Potassium [Moles/volume] in Blood</td><td>4.2</td><td>3.5 - 5.2</td><td></td><td>mmol/L</td></tr></table></div>"
        },
        "status": "final",
        "subject": {
          "reference": "urn:uuid:5274e92b-abc4-4f88-a997-c2bbab6e320f",
          "display": "Benedetto Lombroso"
        },
        "effectiveDateTime": "2023-04-09T07:22:02Z",
        "specimen": {
          "reference": "urn:uuid:e78c43e4-5580-4f54-84df-8584e1e13d7a"
        }
      }
    },
    {
      "fullUrl": "urn:uuid:57ef95a7-ea36-49bc-8858-72227044febb",
      "resource": {
        "resourceType": "Observation",
        "id": "57ef95a7-ea36-49bc-8858-72227044febb",
        "meta": {
          "profile": [
            "http://hl7.eu/fhir/laboratory/StructureDefinition/Observation-resultslab-eu-lab"
          ]
        },
        "performer": [
          {
            "display": "The Central European Lab"
          }
        ],
        "category": [
          {
            "coding": [
              {
                "system": "http://terminology.hl7.org/CodeSystem/observation-category",
                "code": "laboratory"
              }
            ]
          }
        ],
        "code": {
          "coding": [
            {
              "code": "2069-3",
              "system": "http://loinc.org",
              "display": "Chloride [Moles/volume] in Blood"
            }
          ],
          "text": "Chloride [Moles/volume] in Blood"
        },
        "valueQuantity": {
          "system": "http://unitsofmeasure.org",
          "value": 102.6,
          "unit": "mmol/L",
          "code": "mmol/L"
        },
        "referenceRange": [
          {
            "low": {
              "value": 98,
              "code": "mmol/L",
              "system": "http://unitsofmeasure.org"
            }
          },
          {
            "high": {
              "value": 114,
              "code": "mmol/L",
              "system": "http://unitsofmeasure.org"
            }
          }
        ],
        "text": {
          "status": "generated",
          "div": "<div xmlns=\"http://www.w3.org/1999/xhtml\"><table class=\"hl7__eu__lab__report\"><tr><th>Test</th><th>09-Apr-2023</th><th>Reference&#xA0;Range</th><th>Unit</th></tr><tr><td>Chloride [Moles/volume] in Blood</td><td>102.6</td><td>98 - 114</td><td></td><td>mmol/L</td></tr></table></div>"
        },
        "status": "final",
        "subject": {
          "reference": "urn:uuid:5274e92b-abc4-4f88-a997-c2bbab6e320f",
          "display": "Benedetto Lombroso"
        },
        "effectiveDateTime": "2023-04-09T07:22:02Z",
        "specimen": {
          "reference": "urn:uuid:e78c43e4-5580-4f54-84df-8584e1e13d7a"
        }
      }
    },
    {
      "fullUrl": "urn:uuid:ee6a8643-ff09-4745-aaf3-33d35d688f43",
      "resource": {
        "resourceType": "Observation",
        "id": "ee6a8643-ff09-4745-aaf3-33d35d688f43",
        "meta": {
          "profile": [
            "http://hl7.eu/fhir/laboratory/StructureDefinition/Observation-resultslab-eu-lab"
          ]
        },
        "performer": [
          {
            "display": "The Central European Lab"
          }
        ],
        "category": [
          {
            "coding": [
              {
                "system": "http://terminology.hl7.org/CodeSystem/observation-category",
                "code": "laboratory"
              }
            ]
          }
        ],
        "code": {
          "coding": [
            {
              "code": "20565-8",
              "system": "http://loinc.org",
              "display": "Carbon dioxide, total [Moles/volume] in Blood"
            }
          ],
          "text": "Carbon dioxide, total [Moles/volume] in Blood"
        },
        "valueQuantity": {
          "system": "http://unitsofmeasure.org",
          "value": 20.7,
          "unit": "mmol/L",
          "code": "mmol/L"
        },
        "referenceRange": [
          {
            "low": {
              "value": 24,
              "code": "mmol/L",
              "system": "http://unitsofmeasure.org"
            }
          },
          {
            "high": {
              "value": 29,
              "code": "mmol/L",
              "system": "http://unitsofmeasure.org"
            }
          }
        ],
        "interpretation": [
          {
            "coding": [
              {
                "code": "L",
                "system": "http://terminology.hl7.org/CodeSystem/v3-ObservationInterpretation",
                "display": "Low"
              }
            ]
          }
        ],
        "text": {
          "status": "generated",
          "div": "<div xmlns=\"http://www.w3.org/1999/xhtml\"><table class=\"hl7__eu__lab__report\"><tr><th>Test</th><th>09-Apr-2023</th><th>Reference&#xA0;Range</th><th>Unit</th></tr><tr><td>Carbon dioxide, total [Moles/volume] in Blood</td><td>20.7</td><td>24 - 29</td><td>L</td><td>mmol/L</td></tr></table></div>"
        },
        "status": "final",
        "subject": {
          "reference": "urn:uuid:5274e92b-abc4-4f88-a997-c2bbab6e320f",
          "display": "Benedetto Lombroso"
        },
        "effectiveDateTime": "2023-04-09T07:22:02Z",
        "specimen": {
          "reference": "urn:uuid:e78c43e4-5580-4f54-84df-8584e1e13d7a"
        }
      }
    },
    {
      "fullUrl": "urn:uuid:13fbca54-4e42-41a4-8a64-34c45debc436",
      "resource": {
        "resourceType": "Observation",
        "id": "13fbca54-4e42-41a4-8a64-34c45debc436",
        "meta": {
          "profile": [
            "http://hl7.eu/fhir/laboratory/StructureDefinition/Observation-resultslab-eu-lab"
          ]
        },
        "performer": [
          {
            "display": "The Central European Lab"
          }
        ],
        "category": [
          {
            "coding": [
              {
                "system": "http://terminology.hl7.org/CodeSystem/observation-category",
                "code": "laboratory"
              }
            ]
          }
        ],
        "code": {
          "coding": [
            {
              "code": "2093-3",
              "system": "http://loinc.org",
              "display": "Cholesterol [Mass/volume] in Serum or Plasma"
            }
          ],
          "text": "Cholesterol [Mass/volume] in Serum or Plasma"
        },
        "valueQuantity": {
          "system": "http://unitsofmeasure.org",
          "value": 144.9,
          "unit": "mg/dL",
          "code": "mg/dL"
        },
        "referenceRange": [
          {
            "low": {
              "value": 125,
              "code": "mg/dL",
              "system": "http://unitsofmeasure.org"
            }
          },
          {
            "high": {
              "value": 200,
              "code": "mg/dL",
              "system": "http://unitsofmeasure.org"
            }
          }
        ],
        "text": {
          "status": "generated",
          "div": "<div xmlns=\"http://www.w3.org/1999/xhtml\"><table class=\"hl7__eu__lab__report\"><tr><th>Test</th><th>09-Apr-2023</th><th>Reference&#xA0;Range</th><th>Unit</th></tr><tr><td>Cholesterol [Mass/volume] in Serum or Plasma</td><td>144.9</td><td>125 - 200</td><td></td><td>mg/dL</td></tr></table></div>"
        },
        "status": "final",
        "subject": {
          "reference": "urn:uuid:5274e92b-abc4-4f88-a997-c2bbab6e320f",
          "display": "Benedetto Lombroso"
        },
        "effectiveDateTime": "2023-04-09T07:22:02Z",
        "specimen": {
          "reference": "urn:uuid:bdaabd82-0da9-4a0e-ac31-e8c44d53fbd0"
        }
      }
    },
    {
      "fullUrl": "urn:uuid:e301f8c8-f2be-4811-b1f2-4f38c9cd550b",
      "resource": {
        "resourceType": "Observation",
        "id": "e301f8c8-f2be-4811-b1f2-4f38c9cd550b",
        "meta": {
          "profile": [
            "http://hl7.eu/fhir/laboratory/StructureDefinition/Observation-resultslab-eu-lab"
          ]
        },
        "performer": [
          {
            "display": "The Central European Lab"
          }
        ],
        "category": [
          {
            "coding": [
              {
                "system": "http://terminology.hl7.org/CodeSystem/observation-category",
                "code": "laboratory"
              }
            ]
          }
        ],
        "code": {
          "coding": [
            {
              "code": "2571-8",
              "system": "http://loinc.org",
              "display": "Triglyceride [Mass/volume] in Serum or Plasma"
            }
          ],
          "text": "Triglyceride [Mass/volume] in Serum or Plasma"
        },
        "valueQuantity": {
          "system": "http://unitsofmeasure.org",
          "value": 129.1,
          "unit": "mg/dL",
          "code": "mg/dL"
        },
        "referenceRange": [
          {
            "low": {
              "value": 40,
              "code": "mg/dL",
              "system": "http://unitsofmeasure.org"
            }
          },
          {
            "high": {
              "value": 150,
              "code": "mg/dL",
              "system": "http://unitsofmeasure.org"
            }
          }
        ],
        "text": {
          "status": "generated",
          "div": "<div xmlns=\"http://www.w3.org/1999/xhtml\"><table class=\"hl7__eu__lab__report\"><tr><th>Test</th><th>09-Apr-2023</th><th>Reference&#xA0;Range</th><th>Unit</th></tr><tr><td>Triglyceride [Mass/volume] in Serum or Plasma</td><td>129.1</td><td>40 - 150</td><td></td><td>mg/dL</td></tr></table></div>"
        },
        "status": "final",
        "subject": {
          "reference": "urn:uuid:5274e92b-abc4-4f88-a997-c2bbab6e320f",
          "display": "Benedetto Lombroso"
        },
        "effectiveDateTime": "2023-04-09T07:22:02Z",
        "specimen": {
          "reference": "urn:uuid:bdaabd82-0da9-4a0e-ac31-e8c44d53fbd0"
        }
      }
    },
    {
      "fullUrl": "urn:uuid:f0802cf2-d28b-4100-8c28-edceca7a1675",
      "resource": {
        "resourceType": "Observation",
        "id": "f0802cf2-d28b-4100-8c28-edceca7a1675",
        "meta": {
          "profile": [
            "http://hl7.eu/fhir/laboratory/StructureDefinition/Observation-resultslab-eu-lab"
          ]
        },
        "performer": [
          {
            "display": "The Central European Lab"
          }
        ],
        "category": [
          {
            "coding": [
              {
                "system": "http://terminology.hl7.org/CodeSystem/observation-category",
                "code": "laboratory"
              }
            ]
          }
        ],
        "code": {
          "coding": [
            {
              "code": "18262-6",
              "system": "http://loinc.org",
              "display": "Cholesterol in LDL [Mass/volume] in Serum or Plasma by Direct assay"
            }
          ],
          "text": "Cholesterol in LDL [Mass/volume] in Serum or Plasma by Direct assay"
        },
        "valueQuantity": {
          "system": "http://unitsofmeasure.org",
          "value": 94.4,
          "unit": "mg/dL",
          "code": "mg/dL"
        },
        "referenceRange": [
          {
            "low": {
              "value": 0,
              "code": "mg/dL",
              "system": "http://unitsofmeasure.org"
            }
          },
          {
            "high": {
              "value": 130,
              "code": "mg/dL",
              "system": "http://unitsofmeasure.org"
            }
          }
        ],
        "text": {
          "status": "generated",
          "div": "<div xmlns=\"http://www.w3.org/1999/xhtml\"><table class=\"hl7__eu__lab__report\"><tr><th>Test</th><th>09-Apr-2023</th><th>Reference&#xA0;Range</th><th>Unit</th></tr><tr><td>Cholesterol in LDL [Mass/volume] in Serum or Plasma by Direct assay</td><td>94.4</td><td>0 - 130</td><td></td><td>mg/dL</td></tr></table></div>"
        },
        "status": "final",
        "subject": {
          "reference": "urn:uuid:5274e92b-abc4-4f88-a997-c2bbab6e320f",
          "display": "Benedetto Lombroso"
        },
        "effectiveDateTime": "2023-04-09T07:22:02Z",
        "specimen": {
          "reference": "urn:uuid:bdaabd82-0da9-4a0e-ac31-e8c44d53fbd0"
        }
      }
    },
    {
      "fullUrl": "urn:uuid:ceb892c8-e3eb-40fe-98c0-983794ad5498",
      "resource": {
        "resourceType": "Observation",
        "id": "ceb892c8-e3eb-40fe-98c0-983794ad5498",
        "meta": {
          "profile": [
            "http://hl7.eu/fhir/laboratory/StructureDefinition/Observation-resultslab-eu-lab"
          ]
        },
        "performer": [
          {
            "display": "The Central European Lab"
          }
        ],
        "category": [
          {
            "coding": [
              {
                "system": "http://terminology.hl7.org/CodeSystem/observation-category",
                "code": "laboratory"
              }
            ]
          }
        ],
        "code": {
          "coding": [
            {
              "code": "2085-9",
              "system": "http://loinc.org",
              "display": "Cholesterol in HDL [Mass/volume] in Serum or Plasma"
            }
          ],
          "text": "Cholesterol in HDL [Mass/volume] in Serum or Plasma"
        },
        "valueQuantity": {
          "system": "http://unitsofmeasure.org",
          "value": 24.7,
          "unit": "mg/dL",
          "code": "mg/dL"
        },
        "referenceRange": [
          {
            "low": {
              "value": 40,
              "code": "mg/dL",
              "system": "http://unitsofmeasure.org"
            }
          },
          {
            "high": {
              "value": 100,
              "code": "mg/dL",
              "system": "http://unitsofmeasure.org"
            }
          }
        ],
        "interpretation": [
          {
            "coding": [
              {
                "code": "L",
                "system": "http://terminology.hl7.org/CodeSystem/v3-ObservationInterpretation",
                "display": "Low"
              }
            ]
          }
        ],
        "text": {
          "status": "generated",
          "div": "<div xmlns=\"http://www.w3.org/1999/xhtml\"><table class=\"hl7__eu__lab__report\"><tr><th>Test</th><th>09-Apr-2023</th><th>Reference&#xA0;Range</th><th>Unit</th></tr><tr><td>Cholesterol in HDL [Mass/volume] in Serum or Plasma</td><td>24.7</td><td>40 - 100</td><td>L</td><td>mg/dL</td></tr></table></div>"
        },
        "status": "final",
        "subject": {
          "reference": "urn:uuid:5274e92b-abc4-4f88-a997-c2bbab6e320f",
          "display": "Benedetto Lombroso"
        },
        "effectiveDateTime": "2023-04-09T07:22:02Z",
        "specimen": {
          "reference": "urn:uuid:bdaabd82-0da9-4a0e-ac31-e8c44d53fbd0"
        }
      }
    },
    {
      "fullUrl": "urn:uuid:507e0f14-aff2-4466-968d-6b076bead36a",
      "resource": {
        "resourceType": "Device",
        "id": "507e0f14-aff2-4466-968d-6b076bead36a",
        "deviceName": [
          {
            "name": "SYNDERAI Synthetic Generator",
            "type": "manufacturer-name"
          }
        ],
        "version": [
          {
            "value": "5.0"
          }
        ],
        "text": {
          "status": "generated",
          "div": "<div xmlns=\"http://www.w3.org/1999/xhtml\">SYNDERAI Synthetic Generator v5.0</div>"
        },
        "status": "active\"",
        "distinctIdentifier": "synderai-generator-50",
        "manufacturer": "SYNDERAI Project"
      }
    },
    {
      "fullUrl": "urn:uuid:aaeaf453-b62d-492f-8e32-4b7ccbdc8691",
      "resource": {
        "resourceType": "Provenance",
        "id": "aaeaf453-b62d-492f-8e32-4b7ccbdc8691",
        "target": [
          {
            "reference": "Patient/5274e92b-abc4-4f88-a997-c2bbab6e320f"
          },
          {
            "reference": "Bundle/03a58491-4f80-4740-8558-1d87b3f7e294"
          },
          {
            "reference": "Composition/d1ae63ce-bdaa-4c3a-bdab-0bb6c935b9a5"
          },
          {
            "reference": "PractitionerRole/fc684a72-1a87-4d78-9be7-46503a11dc12"
          },
          {
            "reference": "Practitioner/ed46c392-c166-40ca-96e9-1d3641f16f2e"
          },
          {
            "reference": "PractitionerRole/84cb2cd6-3d2f-4ace-8d41-f95eabc7d844"
          },
          {
            "reference": "Organization/bf2a8bfe-ecd0-4a3b-9c4c-e422470e70a6"
          }
        ],
        "activity": {
          "text": "Synthetic Example Data Generation"
        },
        "policy": [
          "https://synderai.net/synderai-synthetic-data-policy"
        ],
        "agent": [
          {
            "type": {
              "text": "author"
            },
            "who": {
              "reference": "Device/507e0f14-aff2-4466-968d-6b076bead36a"
            }
          }
        ],
        "reason": [
          {
            "text": "Interoperability Testing and Training (non-clinical use)"
          }
        ],
        "text": {
          "status": "generated",
          "div": "<div xmlns=\"http://www.w3.org/1999/xhtml\">Provenance for SYNDERAI Synthetic Example Data Resource</div>"
        },
        "recorded": "2023-04-09T09:22:02Z"
      }
    },
    {
      "fullUrl": "urn:uuid:fc684a72-1a87-4d78-9be7-46503a11dc12",
      "resource": {
        "resourceType": "PractitionerRole",
        "id": "fc684a72-1a87-4d78-9be7-46503a11dc12",
        "meta": {
          "profile": [
            "http://hl7.eu/fhir/base/StructureDefinition/practitionerRole-eu"
          ]
        },
        "text": {
          "status": "generated",
          "div": "<div xmlns=\"http://www.w3.org/1999/xhtml\">Laboratory Role Id: fc684a72-1a87-4d78-9be7-46503a11dc12</div>"
        },
        "practitioner": {
          "reference": "urn:uuid:ed46c392-c166-40ca-96e9-1d3641f16f2e"
        }
      }
    },
    {
      "fullUrl": "urn:uuid:ed46c392-c166-40ca-96e9-1d3641f16f2e",
      "resource": {
        "resourceType": "Practitioner",
        "id": "ed46c392-c166-40ca-96e9-1d3641f16f2e",
        "meta": {
          "profile": [
            "http://hl7.eu/fhir/base/StructureDefinition/practitioner-eu"
          ]
        },
        "identifier": [
          {
            "assigner": {
              "display": "HL7 Europe"
            },
            "system": "urn:oid:2.16.840.1.113883.2.51.999",
            "value": "157c2b09-d669-4264-b1c9-d81e32380284"
          }
        ],
        "name": [
          {
            "prefix": [
              "dr"
            ],
            "given": [
              "Ex"
            ],
            "family": "Ample"
          }
        ],
        "address": [
          {
            "line": [
              "Laboratoire Central Européenne",
              "Boulevard du Jardin Botanique 32"
            ],
            "postalCode": "1000",
            "city": "Brussels",
            "country": "Belgium"
          }
        ],
        "text": {
          "status": "generated",
          "div": "<div xmlns=\"http://www.w3.org/1999/xhtml\">Laboratory: Laboratoire Central Européenne, 1000 Brussels, Belgium</div>"
        }
      }
    }
  ],
  "type": "document",
  "timestamp": "2023-04-09T09:22:02Z"
}
