{
  "resourceType": "Bundle",
  "id": "a19dc514-3832-4a59-a835-850cb2818a04",
  "meta": {
    "profile": [
      "http://hl7.eu/fhir/laboratory/StructureDefinition/Bundle-eu-lab"
    ]
  },
  "identifier": {
    "assigner": {
      "display": "HL7 Europe"
    },
    "system": "urn:oid:2.16.840.1.113883.2.51.999",
    "value": "f6497af1-c105-4d40-8369-b6b187876aa9"
  },
  "entry": [
    {
      "fullUrl": "urn:uuid:7c11ac97-b248-4592-ae3f-b90dc0c0d5af",
      "resource": {
        "resourceType": "Composition",
        "id": "7c11ac97-b248-4592-ae3f-b90dc0c0d5af",
        "meta": {
          "profile": [
            "http://hl7.eu/fhir/laboratory/StructureDefinition/Composition-eu-lab"
          ]
        },
        "identifier": {
          "assigner": {
            "display": "HL7 Europe"
          },
          "system": "urn:oid:2.16.840.1.113883.2.51.999",
          "value": "70d29e3c-bf08-48a2-8f77-fbfbfee41774"
        },
        "author": [
          {
            "reference": "urn:uuid:21a59482-730c-41f3-94e5-9cf7ab2d0e97"
          }
        ],
        "category": [
          {
            "coding": [
              {
                "code": "26436-6",
                "system": "http://loinc.org",
                "display": "Laboratory studies (set)"
              }
            ]
          }
        ],
        "type": {
          "coding": [
            {
              "code": "11502-2",
              "system": "http://loinc.org",
              "display": "Laboratory report"
            }
          ],
          "text": "Laboratory Report"
        },
        "section": [
          {
            "code": {
              "coding": [
                {
                  "code": "26436-6",
                  "system": "http://loinc.org",
                  "display": "Laboratory studies (set)"
                }
              ],
              "text": "Laboratory studies"
            },
            "section": [
              {
                "code": {
                  "coding": [
                    {
                      "code": "$18719-5",
                      "system": "http://loinc.org",
                      "display": "Chemistry studies (set)"
                    }
                  ],
                  "text": "Chemistry"
                },
                "entry": [
                  {
                    "reference": "urn:uuid:6f79dbff-3ce7-4b09-b680-12e970a5022b"
                  },
                  {
                    "reference": "urn:uuid:f5b1e613-7dc5-455b-abac-110ad77d1ff3"
                  },
                  {
                    "reference": "urn:uuid:d0497756-9157-4a89-aea7-b6fe6b3f58f5"
                  },
                  {
                    "reference": "urn:uuid:b0ba5021-3288-4dbc-97e0-396b3af3b4cb"
                  },
                  {
                    "reference": "urn:uuid:974fef4d-94e2-4322-99dc-03ac3401232c"
                  },
                  {
                    "reference": "urn:uuid:5acbf2ea-1275-477b-9376-c70f066c4fd1"
                  },
                  {
                    "reference": "urn:uuid:9284ea71-c417-4f9f-81f5-a6fe857f0c9b"
                  },
                  {
                    "reference": "urn:uuid:62aefebe-c30f-42b9-bf24-7465ef72160a"
                  },
                  {
                    "reference": "urn:uuid:835c43f4-32e3-4ca2-b4a4-162868fb6c3d"
                  }
                ],
                "text": {
                  "status": "generated",
                  "div": "<div xmlns=\"http://www.w3.org/1999/xhtml\"><h3>Chemistry</h3><table class=\"hl7__eu__lab__report\"><thead><tr><th>Test</th><th>11-MAR-2018</th><th>Reference&#xA0;Range</th><th>Unit</th></tr></thead><tbody><tr><td>Hemoglobin A1c/Hemoglobin.total in Blood</td><td>5.8</td><td>4 - 6</td><td>%</td></tr><tr><td>Glucose [Mass/volume] in Blood</td><td>89.3</td><td>70 - 99</td><td>mg/dL</td></tr><tr><td>Urea nitrogen [Mass/volume] in Blood</td><td>15.3</td><td>7 - 20</td><td>mg/dL</td></tr><tr><td>Creatinine [Mass/volume] in Blood</td><td><strong>1.6 H</strong></td><td>0.6 - 1.3</td><td>mg/dL</td></tr><tr><td>Calcium [Mass/volume] in Blood</td><td>9.9</td><td>8.5 - 10.5</td><td>mg/dL</td></tr><tr><td>Sodium [Moles/volume] in Blood</td><td>142.3</td><td>135 - 145</td><td>mmol/L</td></tr><tr><td>Potassium [Moles/volume] in Blood</td><td>3.8</td><td>3.5 - 5.2</td><td>mmol/L</td></tr><tr><td>Chloride [Moles/volume] in Blood</td><td>104.1</td><td>98 - 114</td><td>mmol/L</td></tr><tr><td>Carbon dioxide, total [Moles/volume] in Blood</td><td>28.4</td><td>24 - 29</td><td>mmol/L</td></tr></tbody></table></div>"
                },
                "title": "Chemistry"
              }
            ],
            "title": "Laboratory Report"
          },
          {
            "text": {
              "status": "generated",
              "div": "<div xmlns=\"http://www.w3.org/1999/xhtml\"><h3>Annotation</h3><table class=\"hl7__eu__lab__report\"><tr><th>Conclusion and Recommendations based on this report and previous findings known to us</th></tr><tr><td>All results are within normal limits except for a mildly elevated creatinine (1.6 mg/dL), which may indicate reduced kidney function or dehydration. Glucose and HbA1c are normal, suggesting good glycemic control. Electrolytes and urea are within reference ranges. Recommend clinical correlation and, if not already known, further evaluation of renal function.</td></tr></table></div>"
            },
            "code": {
              "coding": [
                {
                  "system": "http://loinc.org",
                  "code": "48767-8",
                  "display": "Annotation comment"
                }
              ]
            },
            "title": "Annotation comment"
          }
        ],
        "status": "final",
        "subject": {
          "reference": "urn:uuid:2892c4ae-8b96-45cc-b69a-ceb04b680bc5",
          "display": "Benedetto Lombroso"
        },
        "date": "2018-03-11T08:22:02Z",
        "title": "Laboratory Report",
        "confidentiality": "N"
      }
    },
    {
      "fullUrl": "urn:uuid:674f6ccc-64aa-43ca-b0de-018eb5a5f1b5",
      "resource": {
        "resourceType": "DiagnosticReport",
        "id": "674f6ccc-64aa-43ca-b0de-018eb5a5f1b5",
        "meta": {
          "profile": [
            "http://hl7.eu/fhir/laboratory/StructureDefinition/DiagnosticReport-eu-lab"
          ]
        },
        "identifier": [
          {
            "assigner": {
              "display": "HL7 Europe"
            },
            "system": "urn:oid:2.16.840.1.113883.2.51.999",
            "value": "777b50fc-41f7-4993-8607-4be2e0c04dfd"
          }
        ],
        "extension": [
          {
            "url": "http://hl7.org/fhir/5.0/StructureDefinition/extension-DiagnosticReport.composition",
            "valueReference": {
              "reference": "urn:uuid:70d29e3c-bf08-48a2-8f77-fbfbfee41774"
            }
          }
        ],
        "category": [
          {
            "coding": [
              {
                "code": "26436-6",
                "system": "http://loinc.org",
                "display": "Laboratory studies (set)"
              }
            ]
          }
        ],
        "specimen": [
          {
            "reference": "urn:uuid:fedf0e6e-dc76-467f-94ef-5f56068baf41"
          }
        ],
        "result": [
          {
            "reference": "urn:uuid:6f79dbff-3ce7-4b09-b680-12e970a5022b"
          },
          {
            "reference": "urn:uuid:f5b1e613-7dc5-455b-abac-110ad77d1ff3"
          },
          {
            "reference": "urn:uuid:d0497756-9157-4a89-aea7-b6fe6b3f58f5"
          },
          {
            "reference": "urn:uuid:b0ba5021-3288-4dbc-97e0-396b3af3b4cb"
          },
          {
            "reference": "urn:uuid:974fef4d-94e2-4322-99dc-03ac3401232c"
          },
          {
            "reference": "urn:uuid:5acbf2ea-1275-477b-9376-c70f066c4fd1"
          },
          {
            "reference": "urn:uuid:9284ea71-c417-4f9f-81f5-a6fe857f0c9b"
          },
          {
            "reference": "urn:uuid:62aefebe-c30f-42b9-bf24-7465ef72160a"
          },
          {
            "reference": "urn:uuid:835c43f4-32e3-4ca2-b4a4-162868fb6c3d"
          }
        ],
        "status": "registered",
        "code": {
          "coding": [
            {
              "code": "11502-2",
              "system": "http://loinc.org",
              "display": "Laboratory report"
            }
          ]
        },
        "subject": {
          "reference": "urn:uuid:2892c4ae-8b96-45cc-b69a-ceb04b680bc5",
          "display": "Benedetto Lombroso"
        }
      }
    },
    {
      "fullUrl": "urn:uuid:2892c4ae-8b96-45cc-b69a-ceb04b680bc5",
      "resource": {
        "resourceType": "Patient",
        "id": "2892c4ae-8b96-45cc-b69a-ceb04b680bc5",
        "meta": {
          "security": [
            {
              "system": "http://terminology.hl7.org/CodeSystem/v3-ActReason",
              "code": "HTEST"
            },
            {
              "system": "http://terminology.hl7.org/CodeSystem/v3-ActReason",
              "code": "TRAIN"
            }
          ],
          "tag": [
            {
              "system": "https://synderai.net/fhir/CodeSystem/tags",
              "code": "synthetic",
              "display": "SYNDERAI Synthetic data"
            }
          ],
          "profile": [
            "http://hl7.eu/fhir/base/StructureDefinition/patient-eu-core"
          ]
        },
        "identifier": [
          {
            "type": {
              "coding": [
                {
                  "code": "PT",
                  "system": "http://terminology.hl7.org/CodeSystem/v2-0203"
                }
              ]
            },
            "system": "http://ec.europa.eu/identifier/eci",
            "value": "9244-804304-9"
          },
          {
            "type": {
              "coding": [
                {
                  "code": "MR",
                  "system": "http://terminology.hl7.org/CodeSystem/v2-0203"
                }
              ]
            },
            "system": "http://local.setting.eu/identifier",
            "value": "320c36e6-403e-bb27-4756-8ebdd21bc0e5"
          }
        ],
        "name": [
          {
            "family": "Lombroso"
          },
          {
            "given": [
              "Benedetto"
            ]
          },
          {
            "text": "Benedetto Lombroso"
          }
        ],
        "address": [
          {
            "line": [
              "Stretto Zaccagnini, 924"
            ],
            "use": "home",
            "type": "physical",
            "postalCode": "37121",
            "city": "Verona",
            "country": "Italy"
          }
        ],
        "telecom": [
          {
            "system": "phone",
            "value": "+39 016691228"
          }
        ],
        "extension": [
          {
            "url": "http://hl7.org/fhir/StructureDefinition/patient-nationality",
            "valueCodeableConcept": {
              "coding": [
                {
                  "code": "IT",
                  "system": "http://hl7.org/fhir/ValueSet/country"
                }
              ]
            }
          }
        ],
        "text": {
          "status": "generated",
          "div": "<div xmlns=\"http://www.w3.org/1999/xhtml\"><table class=\"hl7__ips\"><tr><td>Benedetto Lombroso</td><td>male</td><td>07-May-1989</td></tr></table></div>"
        },
        "gender": "male",
        "birthDate": "1989-05-07"
      }
    },
    {
      "fullUrl": "urn:uuid:09447b5e-2cf7-42d9-b08c-e6e2dd001905",
      "resource": {
        "resourceType": "ServiceRequest",
        "id": "09447b5e-2cf7-42d9-b08c-e6e2dd001905",
        "meta": {
          "profile": [
            "http://hl7.eu/fhir/laboratory/StructureDefinition/ServiceRequest-eu-lab"
          ]
        },
        "identifier": [
          {
            "system": "http://example.org",
            "value": "0f344c7e-fe4f-4cd8-8194-8ebae70f33da"
          }
        ],
        "specimen": [
          {
            "reference": "urn:uuid:fedf0e6e-dc76-467f-94ef-5f56068baf41"
          }
        ],
        "reasonCode": [
          {
            "coding": [
              {
                "code": "15777000",
                "system": "http://snomed.info/sct",
                "display": "Prediabetes"
              }
            ]
          },
          {
            "coding": [
              {
                "code": "271737000",
                "system": "http://snomed.info/sct",
                "display": "Anemia"
              }
            ]
          }
        ],
        "status": "active",
        "intent": "order",
        "code": {
          "coding": [
            {
              "code": "108252007",
              "system": "http://snomed.info/sct",
              "display": "Laboratory procedure"
            }
          ]
        },
        "subject": {
          "reference": "urn:uuid:2892c4ae-8b96-45cc-b69a-ceb04b680bc5",
          "display": "Benedetto Lombroso"
        },
        "requester": {
          "reference": "urn:uuid:87f397a5-ba4e-4a9f-9f24-5b8b6a3a8639"
        }
      }
    },
    {
      "fullUrl": "urn:uuid:87f397a5-ba4e-4a9f-9f24-5b8b6a3a8639",
      "resource": {
        "resourceType": "PractitionerRole",
        "id": "87f397a5-ba4e-4a9f-9f24-5b8b6a3a8639",
        "meta": {
          "profile": [
            "http://hl7.eu/fhir/base/StructureDefinition/practitionerRole-eu"
          ]
        },
        "text": {
          "status": "generated",
          "div": "<div xmlns=\"http://www.w3.org/1999/xhtml\">Provider Role Id: 87f397a5-ba4e-4a9f-9f24-5b8b6a3a8639</div>"
        },
        "organization": {
          "reference": "urn:uuid:87b19000-48d1-477d-bc1e-577f2ece165d"
        }
      }
    },
    {
      "fullUrl": "urn:uuid:87b19000-48d1-477d-bc1e-577f2ece165d",
      "resource": {
        "resourceType": "Organization",
        "id": "87b19000-48d1-477d-bc1e-577f2ece165d",
        "meta": {
          "profile": [
            "http://hl7.eu/fhir/base/StructureDefinition/organization-eu"
          ]
        },
        "identifier": [
          {
            "assigner": {
              "display": "HL7 Europe"
            },
            "system": "urn:oid:2.16.840.1.113883.2.51.999",
            "value": "7f5520f0-cb94-4ed2-84f2-b4c4561147a7"
          }
        ],
        "address": [
          {
            "line": [
              "Piazzale Aristide Stefani 1"
            ],
            "city": "Verona",
            "postalCode": "37124",
            "country": "Italy"
          }
        ],
        "text": {
          "status": "generated",
          "div": "<div xmlns=\"http://www.w3.org/1999/xhtml\">Provider Organization: Ospedale Civile Maggiore</div>"
        },
        "name": "Ospedale Civile Maggiore"
      }
    },
    {
      "fullUrl": "urn:uuid:fedf0e6e-dc76-467f-94ef-5f56068baf41",
      "resource": {
        "resourceType": "Specimen",
        "id": "fedf0e6e-dc76-467f-94ef-5f56068baf41",
        "meta": {
          "profile": [
            "http://hl7.eu/fhir/laboratory/StructureDefinition/Specimen-eu-lab"
          ]
        },
        "collection": {
          "collectedDateTime": "2018-03-11"
        },
        "text": {
          "status": "generated",
          "div": "<div xmlns=\"http://www.w3.org/1999/xhtml\"><table class=\"hl7__eu__lab__report\"><tr><th>Specimen</th><th>Collection Date</th></tr><tr><td>Whole blood specimen (specimen)</td><td><span class=\"nb\">11-Mar-2018</span></td></tr></table></div>"
        },
        "type": {
          "coding": [
            {
              "code": "258580003",
              "system": "http://snomed.info/sct",
              "display": "Whole blood specimen (specimen)"
            }
          ]
        }
      }
    },
    {
      "fullUrl": "urn:uuid:6f79dbff-3ce7-4b09-b680-12e970a5022b",
      "resource": {
        "resourceType": "Observation",
        "id": "6f79dbff-3ce7-4b09-b680-12e970a5022b",
        "meta": {
          "profile": [
            "http://hl7.eu/fhir/laboratory/StructureDefinition/Observation-resultslab-eu-lab"
          ]
        },
        "performer": [
          {
            "display": "The Central European Lab"
          }
        ],
        "category": [
          {
            "coding": [
              {
                "system": "http://terminology.hl7.org/CodeSystem/observation-category",
                "code": "laboratory"
              }
            ]
          }
        ],
        "code": {
          "coding": [
            {
              "code": "4548-4",
              "system": "http://loinc.org",
              "display": "Hemoglobin A1c/Hemoglobin.total in Blood"
            }
          ],
          "text": "Hemoglobin A1c/Hemoglobin.total in Blood"
        },
        "valueQuantity": {
          "system": "http://unitsofmeasure.org",
          "value": 5.8,
          "unit": "%",
          "code": "%"
        },
        "referenceRange": [
          {
            "low": {
              "value": 4,
              "code": "%",
              "system": "http://unitsofmeasure.org"
            }
          },
          {
            "high": {
              "value": 6,
              "code": "%",
              "system": "http://unitsofmeasure.org"
            }
          }
        ],
        "text": {
          "status": "generated",
          "div": "<div xmlns=\"http://www.w3.org/1999/xhtml\"><table class=\"hl7__eu__lab__report\"><tr><th>Test</th><th>11-Mar-2018</th><th>Reference&#xA0;Range</th><th>Unit</th></tr><tr><td>Hemoglobin A1c/Hemoglobin.total in Blood</td><td>5.8</td><td>4 - 6</td><td></td><td>%</td></tr></table></div>"
        },
        "status": "final",
        "subject": {
          "reference": "urn:uuid:2892c4ae-8b96-45cc-b69a-ceb04b680bc5",
          "display": "Benedetto Lombroso"
        },
        "effectiveDateTime": "2018-03-11T07:22:02Z",
        "specimen": {
          "reference": "urn:uuid:fedf0e6e-dc76-467f-94ef-5f56068baf41"
        }
      }
    },
    {
      "fullUrl": "urn:uuid:f5b1e613-7dc5-455b-abac-110ad77d1ff3",
      "resource": {
        "resourceType": "Observation",
        "id": "f5b1e613-7dc5-455b-abac-110ad77d1ff3",
        "meta": {
          "profile": [
            "http://hl7.eu/fhir/laboratory/StructureDefinition/Observation-resultslab-eu-lab"
          ]
        },
        "performer": [
          {
            "display": "The Central European Lab"
          }
        ],
        "category": [
          {
            "coding": [
              {
                "system": "http://terminology.hl7.org/CodeSystem/observation-category",
                "code": "laboratory"
              }
            ]
          }
        ],
        "code": {
          "coding": [
            {
              "code": "2339-0",
              "system": "http://loinc.org",
              "display": "Glucose [Mass/volume] in Blood"
            }
          ],
          "text": "Glucose [Mass/volume] in Blood"
        },
        "valueQuantity": {
          "system": "http://unitsofmeasure.org",
          "value": 89.3,
          "unit": "mg/dL",
          "code": "mg/dL"
        },
        "referenceRange": [
          {
            "low": {
              "value": 70,
              "code": "mg/dL",
              "system": "http://unitsofmeasure.org"
            }
          },
          {
            "high": {
              "value": 99,
              "code": "mg/dL",
              "system": "http://unitsofmeasure.org"
            }
          }
        ],
        "text": {
          "status": "generated",
          "div": "<div xmlns=\"http://www.w3.org/1999/xhtml\"><table class=\"hl7__eu__lab__report\"><tr><th>Test</th><th>11-Mar-2018</th><th>Reference&#xA0;Range</th><th>Unit</th></tr><tr><td>Glucose [Mass/volume] in Blood</td><td>89.3</td><td>70 - 99</td><td></td><td>mg/dL</td></tr></table></div>"
        },
        "status": "final",
        "subject": {
          "reference": "urn:uuid:2892c4ae-8b96-45cc-b69a-ceb04b680bc5",
          "display": "Benedetto Lombroso"
        },
        "effectiveDateTime": "2018-03-11T07:22:02Z",
        "specimen": {
          "reference": "urn:uuid:fedf0e6e-dc76-467f-94ef-5f56068baf41"
        }
      }
    },
    {
      "fullUrl": "urn:uuid:d0497756-9157-4a89-aea7-b6fe6b3f58f5",
      "resource": {
        "resourceType": "Observation",
        "id": "d0497756-9157-4a89-aea7-b6fe6b3f58f5",
        "meta": {
          "profile": [
            "http://hl7.eu/fhir/laboratory/StructureDefinition/Observation-resultslab-eu-lab"
          ]
        },
        "performer": [
          {
            "display": "The Central European Lab"
          }
        ],
        "category": [
          {
            "coding": [
              {
                "system": "http://terminology.hl7.org/CodeSystem/observation-category",
                "code": "laboratory"
              }
            ]
          }
        ],
        "code": {
          "coding": [
            {
              "code": "6299-2",
              "system": "http://loinc.org",
              "display": "Urea nitrogen [Mass/volume] in Blood"
            }
          ],
          "text": "Urea nitrogen [Mass/volume] in Blood"
        },
        "valueQuantity": {
          "system": "http://unitsofmeasure.org",
          "value": 15.3,
          "unit": "mg/dL",
          "code": "mg/dL"
        },
        "referenceRange": [
          {
            "low": {
              "value": 7,
              "code": "mg/dL",
              "system": "http://unitsofmeasure.org"
            }
          },
          {
            "high": {
              "value": 20,
              "code": "mg/dL",
              "system": "http://unitsofmeasure.org"
            }
          }
        ],
        "text": {
          "status": "generated",
          "div": "<div xmlns=\"http://www.w3.org/1999/xhtml\"><table class=\"hl7__eu__lab__report\"><tr><th>Test</th><th>11-Mar-2018</th><th>Reference&#xA0;Range</th><th>Unit</th></tr><tr><td>Urea nitrogen [Mass/volume] in Blood</td><td>15.3</td><td>7 - 20</td><td></td><td>mg/dL</td></tr></table></div>"
        },
        "status": "final",
        "subject": {
          "reference": "urn:uuid:2892c4ae-8b96-45cc-b69a-ceb04b680bc5",
          "display": "Benedetto Lombroso"
        },
        "effectiveDateTime": "2018-03-11T07:22:02Z",
        "specimen": {
          "reference": "urn:uuid:fedf0e6e-dc76-467f-94ef-5f56068baf41"
        }
      }
    },
    {
      "fullUrl": "urn:uuid:b0ba5021-3288-4dbc-97e0-396b3af3b4cb",
      "resource": {
        "resourceType": "Observation",
        "id": "b0ba5021-3288-4dbc-97e0-396b3af3b4cb",
        "meta": {
          "profile": [
            "http://hl7.eu/fhir/laboratory/StructureDefinition/Observation-resultslab-eu-lab"
          ]
        },
        "performer": [
          {
            "display": "The Central European Lab"
          }
        ],
        "category": [
          {
            "coding": [
              {
                "system": "http://terminology.hl7.org/CodeSystem/observation-category",
                "code": "laboratory"
              }
            ]
          }
        ],
        "code": {
          "coding": [
            {
              "code": "38483-4",
              "system": "http://loinc.org",
              "display": "Creatinine [Mass/volume] in Blood"
            }
          ],
          "text": "Creatinine [Mass/volume] in Blood"
        },
        "valueQuantity": {
          "system": "http://unitsofmeasure.org",
          "value": 1.6,
          "unit": "mg/dL",
          "code": "mg/dL"
        },
        "referenceRange": [
          {
            "low": {
              "value": 0.6,
              "code": "mg/dL",
              "system": "http://unitsofmeasure.org"
            }
          },
          {
            "high": {
              "value": 1.3,
              "code": "mg/dL",
              "system": "http://unitsofmeasure.org"
            }
          }
        ],
        "interpretation": [
          {
            "coding": [
              {
                "code": "H",
                "system": "http://terminology.hl7.org/CodeSystem/v3-ObservationInterpretation",
                "display": "High"
              }
            ]
          }
        ],
        "text": {
          "status": "generated",
          "div": "<div xmlns=\"http://www.w3.org/1999/xhtml\"><table class=\"hl7__eu__lab__report\"><tr><th>Test</th><th>11-Mar-2018</th><th>Reference&#xA0;Range</th><th>Unit</th></tr><tr><td>Creatinine [Mass/volume] in Blood</td><td>1.6</td><td>0.6 - 1.3</td><td>H</td><td>mg/dL</td></tr></table></div>"
        },
        "status": "final",
        "subject": {
          "reference": "urn:uuid:2892c4ae-8b96-45cc-b69a-ceb04b680bc5",
          "display": "Benedetto Lombroso"
        },
        "effectiveDateTime": "2018-03-11T07:22:02Z",
        "specimen": {
          "reference": "urn:uuid:fedf0e6e-dc76-467f-94ef-5f56068baf41"
        }
      }
    },
    {
      "fullUrl": "urn:uuid:974fef4d-94e2-4322-99dc-03ac3401232c",
      "resource": {
        "resourceType": "Observation",
        "id": "974fef4d-94e2-4322-99dc-03ac3401232c",
        "meta": {
          "profile": [
            "http://hl7.eu/fhir/laboratory/StructureDefinition/Observation-resultslab-eu-lab"
          ]
        },
        "performer": [
          {
            "display": "The Central European Lab"
          }
        ],
        "category": [
          {
            "coding": [
              {
                "system": "http://terminology.hl7.org/CodeSystem/observation-category",
                "code": "laboratory"
              }
            ]
          }
        ],
        "code": {
          "coding": [
            {
              "code": "49765-1",
              "system": "http://loinc.org",
              "display": "Calcium [Mass/volume] in Blood"
            }
          ],
          "text": "Calcium [Mass/volume] in Blood"
        },
        "valueQuantity": {
          "system": "http://unitsofmeasure.org",
          "value": 9.9,
          "unit": "mg/dL",
          "code": "mg/dL"
        },
        "referenceRange": [
          {
            "low": {
              "value": 8.5,
              "code": "mg/dL",
              "system": "http://unitsofmeasure.org"
            }
          },
          {
            "high": {
              "value": 10.5,
              "code": "mg/dL",
              "system": "http://unitsofmeasure.org"
            }
          }
        ],
        "text": {
          "status": "generated",
          "div": "<div xmlns=\"http://www.w3.org/1999/xhtml\"><table class=\"hl7__eu__lab__report\"><tr><th>Test</th><th>11-Mar-2018</th><th>Reference&#xA0;Range</th><th>Unit</th></tr><tr><td>Calcium [Mass/volume] in Blood</td><td>9.9</td><td>8.5 - 10.5</td><td></td><td>mg/dL</td></tr></table></div>"
        },
        "status": "final",
        "subject": {
          "reference": "urn:uuid:2892c4ae-8b96-45cc-b69a-ceb04b680bc5",
          "display": "Benedetto Lombroso"
        },
        "effectiveDateTime": "2018-03-11T07:22:02Z",
        "specimen": {
          "reference": "urn:uuid:fedf0e6e-dc76-467f-94ef-5f56068baf41"
        }
      }
    },
    {
      "fullUrl": "urn:uuid:5acbf2ea-1275-477b-9376-c70f066c4fd1",
      "resource": {
        "resourceType": "Observation",
        "id": "5acbf2ea-1275-477b-9376-c70f066c4fd1",
        "meta": {
          "profile": [
            "http://hl7.eu/fhir/laboratory/StructureDefinition/Observation-resultslab-eu-lab"
          ]
        },
        "performer": [
          {
            "display": "The Central European Lab"
          }
        ],
        "category": [
          {
            "coding": [
              {
                "system": "http://terminology.hl7.org/CodeSystem/observation-category",
                "code": "laboratory"
              }
            ]
          }
        ],
        "code": {
          "coding": [
            {
              "code": "2947-0",
              "system": "http://loinc.org",
              "display": "Sodium [Moles/volume] in Blood"
            }
          ],
          "text": "Sodium [Moles/volume] in Blood"
        },
        "valueQuantity": {
          "system": "http://unitsofmeasure.org",
          "value": 142.3,
          "unit": "mmol/L",
          "code": "mmol/L"
        },
        "referenceRange": [
          {
            "low": {
              "value": 135,
              "code": "mmol/L",
              "system": "http://unitsofmeasure.org"
            }
          },
          {
            "high": {
              "value": 145,
              "code": "mmol/L",
              "system": "http://unitsofmeasure.org"
            }
          }
        ],
        "text": {
          "status": "generated",
          "div": "<div xmlns=\"http://www.w3.org/1999/xhtml\"><table class=\"hl7__eu__lab__report\"><tr><th>Test</th><th>11-Mar-2018</th><th>Reference&#xA0;Range</th><th>Unit</th></tr><tr><td>Sodium [Moles/volume] in Blood</td><td>142.3</td><td>135 - 145</td><td></td><td>mmol/L</td></tr></table></div>"
        },
        "status": "final",
        "subject": {
          "reference": "urn:uuid:2892c4ae-8b96-45cc-b69a-ceb04b680bc5",
          "display": "Benedetto Lombroso"
        },
        "effectiveDateTime": "2018-03-11T07:22:02Z",
        "specimen": {
          "reference": "urn:uuid:fedf0e6e-dc76-467f-94ef-5f56068baf41"
        }
      }
    },
    {
      "fullUrl": "urn:uuid:9284ea71-c417-4f9f-81f5-a6fe857f0c9b",
      "resource": {
        "resourceType": "Observation",
        "id": "9284ea71-c417-4f9f-81f5-a6fe857f0c9b",
        "meta": {
          "profile": [
            "http://hl7.eu/fhir/laboratory/StructureDefinition/Observation-resultslab-eu-lab"
          ]
        },
        "performer": [
          {
            "display": "The Central European Lab"
          }
        ],
        "category": [
          {
            "coding": [
              {
                "system": "http://terminology.hl7.org/CodeSystem/observation-category",
                "code": "laboratory"
              }
            ]
          }
        ],
        "code": {
          "coding": [
            {
              "code": "6298-4",
              "system": "http://loinc.org",
              "display": "Potassium [Moles/volume] in Blood"
            }
          ],
          "text": "Potassium [Moles/volume] in Blood"
        },
        "valueQuantity": {
          "system": "http://unitsofmeasure.org",
          "value": 3.8,
          "unit": "mmol/L",
          "code": "mmol/L"
        },
        "referenceRange": [
          {
            "low": {
              "value": 3.5,
              "code": "mmol/L",
              "system": "http://unitsofmeasure.org"
            }
          },
          {
            "high": {
              "value": 5.2,
              "code": "mmol/L",
              "system": "http://unitsofmeasure.org"
            }
          }
        ],
        "text": {
          "status": "generated",
          "div": "<div xmlns=\"http://www.w3.org/1999/xhtml\"><table class=\"hl7__eu__lab__report\"><tr><th>Test</th><th>11-Mar-2018</th><th>Reference&#xA0;Range</th><th>Unit</th></tr><tr><td>Potassium [Moles/volume] in Blood</td><td>3.8</td><td>3.5 - 5.2</td><td></td><td>mmol/L</td></tr></table></div>"
        },
        "status": "final",
        "subject": {
          "reference": "urn:uuid:2892c4ae-8b96-45cc-b69a-ceb04b680bc5",
          "display": "Benedetto Lombroso"
        },
        "effectiveDateTime": "2018-03-11T07:22:02Z",
        "specimen": {
          "reference": "urn:uuid:fedf0e6e-dc76-467f-94ef-5f56068baf41"
        }
      }
    },
    {
      "fullUrl": "urn:uuid:62aefebe-c30f-42b9-bf24-7465ef72160a",
      "resource": {
        "resourceType": "Observation",
        "id": "62aefebe-c30f-42b9-bf24-7465ef72160a",
        "meta": {
          "profile": [
            "http://hl7.eu/fhir/laboratory/StructureDefinition/Observation-resultslab-eu-lab"
          ]
        },
        "performer": [
          {
            "display": "The Central European Lab"
          }
        ],
        "category": [
          {
            "coding": [
              {
                "system": "http://terminology.hl7.org/CodeSystem/observation-category",
                "code": "laboratory"
              }
            ]
          }
        ],
        "code": {
          "coding": [
            {
              "code": "2069-3",
              "system": "http://loinc.org",
              "display": "Chloride [Moles/volume] in Blood"
            }
          ],
          "text": "Chloride [Moles/volume] in Blood"
        },
        "valueQuantity": {
          "system": "http://unitsofmeasure.org",
          "value": 104.1,
          "unit": "mmol/L",
          "code": "mmol/L"
        },
        "referenceRange": [
          {
            "low": {
              "value": 98,
              "code": "mmol/L",
              "system": "http://unitsofmeasure.org"
            }
          },
          {
            "high": {
              "value": 114,
              "code": "mmol/L",
              "system": "http://unitsofmeasure.org"
            }
          }
        ],
        "text": {
          "status": "generated",
          "div": "<div xmlns=\"http://www.w3.org/1999/xhtml\"><table class=\"hl7__eu__lab__report\"><tr><th>Test</th><th>11-Mar-2018</th><th>Reference&#xA0;Range</th><th>Unit</th></tr><tr><td>Chloride [Moles/volume] in Blood</td><td>104.1</td><td>98 - 114</td><td></td><td>mmol/L</td></tr></table></div>"
        },
        "status": "final",
        "subject": {
          "reference": "urn:uuid:2892c4ae-8b96-45cc-b69a-ceb04b680bc5",
          "display": "Benedetto Lombroso"
        },
        "effectiveDateTime": "2018-03-11T07:22:02Z",
        "specimen": {
          "reference": "urn:uuid:fedf0e6e-dc76-467f-94ef-5f56068baf41"
        }
      }
    },
    {
      "fullUrl": "urn:uuid:835c43f4-32e3-4ca2-b4a4-162868fb6c3d",
      "resource": {
        "resourceType": "Observation",
        "id": "835c43f4-32e3-4ca2-b4a4-162868fb6c3d",
        "meta": {
          "profile": [
            "http://hl7.eu/fhir/laboratory/StructureDefinition/Observation-resultslab-eu-lab"
          ]
        },
        "performer": [
          {
            "display": "The Central European Lab"
          }
        ],
        "category": [
          {
            "coding": [
              {
                "system": "http://terminology.hl7.org/CodeSystem/observation-category",
                "code": "laboratory"
              }
            ]
          }
        ],
        "code": {
          "coding": [
            {
              "code": "20565-8",
              "system": "http://loinc.org",
              "display": "Carbon dioxide, total [Moles/volume] in Blood"
            }
          ],
          "text": "Carbon dioxide, total [Moles/volume] in Blood"
        },
        "valueQuantity": {
          "system": "http://unitsofmeasure.org",
          "value": 28.4,
          "unit": "mmol/L",
          "code": "mmol/L"
        },
        "referenceRange": [
          {
            "low": {
              "value": 24,
              "code": "mmol/L",
              "system": "http://unitsofmeasure.org"
            }
          },
          {
            "high": {
              "value": 29,
              "code": "mmol/L",
              "system": "http://unitsofmeasure.org"
            }
          }
        ],
        "text": {
          "status": "generated",
          "div": "<div xmlns=\"http://www.w3.org/1999/xhtml\"><table class=\"hl7__eu__lab__report\"><tr><th>Test</th><th>11-Mar-2018</th><th>Reference&#xA0;Range</th><th>Unit</th></tr><tr><td>Carbon dioxide, total [Moles/volume] in Blood</td><td>28.4</td><td>24 - 29</td><td></td><td>mmol/L</td></tr></table></div>"
        },
        "status": "final",
        "subject": {
          "reference": "urn:uuid:2892c4ae-8b96-45cc-b69a-ceb04b680bc5",
          "display": "Benedetto Lombroso"
        },
        "effectiveDateTime": "2018-03-11T07:22:02Z",
        "specimen": {
          "reference": "urn:uuid:fedf0e6e-dc76-467f-94ef-5f56068baf41"
        }
      }
    },
    {
      "fullUrl": "urn:uuid:0fb5ff73-5a7e-45ca-98df-1fea30874694",
      "resource": {
        "resourceType": "Device",
        "id": "0fb5ff73-5a7e-45ca-98df-1fea30874694",
        "deviceName": [
          {
            "name": "SYNDERAI Synthetic Generator",
            "type": "manufacturer-name"
          }
        ],
        "version": [
          {
            "value": "5.0"
          }
        ],
        "text": {
          "status": "generated",
          "div": "<div xmlns=\"http://www.w3.org/1999/xhtml\">SYNDERAI Synthetic Generator v5.0</div>"
        },
        "status": "active\"",
        "distinctIdentifier": "synderai-generator-50",
        "manufacturer": "SYNDERAI Project"
      }
    },
    {
      "fullUrl": "urn:uuid:b568b56a-9fad-4f38-96fb-f233a89c7759",
      "resource": {
        "resourceType": "Provenance",
        "id": "b568b56a-9fad-4f38-96fb-f233a89c7759",
        "target": [
          {
            "reference": "Patient/2892c4ae-8b96-45cc-b69a-ceb04b680bc5"
          },
          {
            "reference": "Bundle/a19dc514-3832-4a59-a835-850cb2818a04"
          },
          {
            "reference": "Composition/7c11ac97-b248-4592-ae3f-b90dc0c0d5af"
          },
          {
            "reference": "PractitionerRole/21a59482-730c-41f3-94e5-9cf7ab2d0e97"
          },
          {
            "reference": "Practitioner/22266de8-5bb8-4bd0-a531-c44a4bfac2ed"
          },
          {
            "reference": "PractitionerRole/87f397a5-ba4e-4a9f-9f24-5b8b6a3a8639"
          },
          {
            "reference": "Organization/87b19000-48d1-477d-bc1e-577f2ece165d"
          }
        ],
        "activity": {
          "text": "Synthetic Example Data Generation"
        },
        "policy": [
          "https://synderai.net/synderai-synthetic-data-policy"
        ],
        "agent": [
          {
            "type": {
              "text": "author"
            },
            "who": {
              "reference": "Device/0fb5ff73-5a7e-45ca-98df-1fea30874694"
            }
          }
        ],
        "reason": [
          {
            "text": "Interoperability Testing and Training (non-clinical use)"
          }
        ],
        "text": {
          "status": "generated",
          "div": "<div xmlns=\"http://www.w3.org/1999/xhtml\">Provenance for SYNDERAI Synthetic Example Data Resource</div>"
        },
        "recorded": "2018-03-11T08:22:02Z"
      }
    },
    {
      "fullUrl": "urn:uuid:21a59482-730c-41f3-94e5-9cf7ab2d0e97",
      "resource": {
        "resourceType": "PractitionerRole",
        "id": "21a59482-730c-41f3-94e5-9cf7ab2d0e97",
        "meta": {
          "profile": [
            "http://hl7.eu/fhir/base/StructureDefinition/practitionerRole-eu"
          ]
        },
        "text": {
          "status": "generated",
          "div": "<div xmlns=\"http://www.w3.org/1999/xhtml\">Laboratory Role Id: 21a59482-730c-41f3-94e5-9cf7ab2d0e97</div>"
        },
        "practitioner": {
          "reference": "urn:uuid:22266de8-5bb8-4bd0-a531-c44a4bfac2ed"
        }
      }
    },
    {
      "fullUrl": "urn:uuid:22266de8-5bb8-4bd0-a531-c44a4bfac2ed",
      "resource": {
        "resourceType": "Practitioner",
        "id": "22266de8-5bb8-4bd0-a531-c44a4bfac2ed",
        "meta": {
          "profile": [
            "http://hl7.eu/fhir/base/StructureDefinition/practitioner-eu"
          ]
        },
        "identifier": [
          {
            "assigner": {
              "display": "HL7 Europe"
            },
            "system": "urn:oid:2.16.840.1.113883.2.51.999",
            "value": "b7aa5293-a657-488f-af89-d5579e192ecd"
          }
        ],
        "name": [
          {
            "prefix": [
              "dr"
            ],
            "given": [
              "Ex"
            ],
            "family": "Ample"
          }
        ],
        "address": [
          {
            "line": [
              "Laboratoire Central Européenne",
              "Boulevard du Jardin Botanique 32"
            ],
            "postalCode": "1000",
            "city": "Brussels",
            "country": "Belgium"
          }
        ],
        "text": {
          "status": "generated",
          "div": "<div xmlns=\"http://www.w3.org/1999/xhtml\">Laboratory: Laboratoire Central Européenne, 1000 Brussels, Belgium</div>"
        }
      }
    }
  ],
  "type": "document",
  "timestamp": "2018-03-11T08:22:02Z"
}
