{
  "resourceType": "Bundle",
  "id": "ecb229e6-8f1e-44df-a1d1-971e491ef00f",
  "meta": {
    "profile": [
      "http://hl7.eu/fhir/laboratory/StructureDefinition/Bundle-eu-lab"
    ]
  },
  "identifier": {
    "assigner": {
      "display": "HL7 Europe"
    },
    "system": "urn:oid:2.16.840.1.113883.2.51.999",
    "value": "dec88618-bcfc-4cda-84af-39efe75614ee"
  },
  "entry": [
    {
      "fullUrl": "urn:uuid:5a4b51a6-63c4-4ee1-9a24-1ff18fbd17a0",
      "resource": {
        "resourceType": "Composition",
        "id": "5a4b51a6-63c4-4ee1-9a24-1ff18fbd17a0",
        "meta": {
          "profile": [
            "http://hl7.eu/fhir/laboratory/StructureDefinition/Composition-eu-lab"
          ]
        },
        "identifier": {
          "assigner": {
            "display": "HL7 Europe"
          },
          "system": "urn:oid:2.16.840.1.113883.2.51.999",
          "value": "5ddaee3a-46ea-4c39-ae65-9ecb6e59b6d2"
        },
        "author": [
          {
            "reference": "urn:uuid:fd17ddf5-118a-45d6-ad35-5b8508d53221"
          }
        ],
        "category": [
          {
            "coding": [
              {
                "code": "26436-6",
                "system": "http://loinc.org",
                "display": "Laboratory studies (set)"
              }
            ]
          }
        ],
        "type": {
          "coding": [
            {
              "code": "11502-2",
              "system": "http://loinc.org",
              "display": "Laboratory report"
            }
          ],
          "text": "Laboratory Report"
        },
        "section": [
          {
            "code": {
              "coding": [
                {
                  "code": "26436-6",
                  "system": "http://loinc.org",
                  "display": "Laboratory studies (set)"
                }
              ],
              "text": "Laboratory studies"
            },
            "section": [
              {
                "code": {
                  "coding": [
                    {
                      "code": "$18719-5",
                      "system": "http://loinc.org",
                      "display": "Chemistry studies (set)"
                    }
                  ],
                  "text": "Chemistry"
                },
                "entry": [
                  {
                    "reference": "urn:uuid:7ce00a90-7b90-4083-acff-a259198120dc"
                  },
                  {
                    "reference": "urn:uuid:f154365c-52d5-4f76-8cf4-918e0b80c4a5"
                  },
                  {
                    "reference": "urn:uuid:4051a91d-f1dd-4cce-823f-2c36e5e5f2ed"
                  },
                  {
                    "reference": "urn:uuid:53748162-af83-4f7e-af57-c97be3a21063"
                  },
                  {
                    "reference": "urn:uuid:5e29e4a4-258e-4125-8233-f6e583e6737d"
                  },
                  {
                    "reference": "urn:uuid:2637ce6b-094d-4f37-a3a9-9e709cb0ff43"
                  },
                  {
                    "reference": "urn:uuid:74a5a65e-8c1c-4302-8c57-71e6933b92de"
                  },
                  {
                    "reference": "urn:uuid:5f86cdcd-914c-4634-9ea4-d14aa0ed4851"
                  },
                  {
                    "reference": "urn:uuid:2856671f-355b-45ef-942e-9d7c86d84f4d"
                  },
                  {
                    "reference": "urn:uuid:e80576c1-bc12-4866-8aa3-7ee816cb5bae"
                  },
                  {
                    "reference": "urn:uuid:f5fd95ad-fa60-4157-a9c6-9bc2570e8a0f"
                  },
                  {
                    "reference": "urn:uuid:96d99a5e-8f5c-4874-9cfc-f5f465ea1bcf"
                  },
                  {
                    "reference": "urn:uuid:df846bb1-b052-4727-98b8-be1e0c6ec9a1"
                  }
                ],
                "text": {
                  "status": "generated",
                  "div": "<div xmlns=\"http://www.w3.org/1999/xhtml\"><h3>Chemistry</h3><table class=\"hl7__eu__lab__report\"><thead><tr><th>Test</th><th>03-APR-2025</th><th>Reference&#xA0;Range</th><th>Unit</th></tr></thead><tbody><tr><td>Glucose [Mass/volume] in Serum or Plasma</td><td>79.7</td><td>70 - 140</td><td>mg/dL</td></tr><tr><td>Urea nitrogen [Mass/volume] in Serum or Plasma</td><td>16.0</td><td>7 - 50</td><td>mg/dL</td></tr><tr><td>Creatinine [Mass/volume] in Serum or Plasma</td><td><strong>1.9 H</strong></td><td>0.6 - 1.1</td><td>mg/dL</td></tr><tr><td>Calcium [Mass/volume] in Serum or Plasma</td><td>9.1</td><td>8.5 - 10.5</td><td>mg/dL</td></tr><tr><td>Sodium [Moles/volume] in Serum or Plasma</td><td>140.8</td><td>135 - 145</td><td>mmol/L</td></tr><tr><td>Potassium [Moles/volume] in Serum or Plasma</td><td>4.5</td><td>3.5 - 5.1</td><td>mmol/L</td></tr><tr><td>Chloride [Moles/volume] in Serum or Plasma</td><td>104.5</td><td>98 - 108</td><td>mmol/L</td></tr><tr><td>Carbon dioxide, total [Moles/volume] in Serum or Plasma</td><td>26.2</td><td>22 - 32</td><td>mmol/L</td></tr><tr><td>Ketones [Presence] in Urine by Test strip</td><td>Urine ketone test = +</td><td></td><td></td></tr><tr><td>Cholesterol [Mass/volume] in Serum or Plasma</td><td>147.4</td><td>125 - 200</td><td>mg/dL</td></tr><tr><td>Triglyceride [Mass/volume] in Serum or Plasma</td><td>125.9</td><td>10 - 175</td><td>mg/dL</td></tr><tr><td>Cholesterol in LDL [Mass/volume] in Serum or Plasma by Direct assay</td><td>66.5</td><td>0 - 130</td><td>mg/dL</td></tr><tr><td>Cholesterol in HDL [Mass/volume] in Serum or Plasma</td><td>55.7</td><td>40 - 100</td><td>mg/dL</td></tr></tbody></table></div>"
                },
                "title": "Chemistry"
              },
              {
                "code": {
                  "coding": [
                    {
                      "code": "$18729-4",
                      "system": "http://loinc.org",
                      "display": "Urinalysis studies (set)"
                    }
                  ],
                  "text": "Urinalysis"
                },
                "entry": [
                  {
                    "reference": "urn:uuid:bee4b32d-8236-4cb9-b1f9-cd16359d3cad"
                  },
                  {
                    "reference": "urn:uuid:9233918b-7522-4cc4-8efb-8aec10101949"
                  },
                  {
                    "reference": "urn:uuid:7f487b0b-58c2-4219-a9d6-c7c80ea30dab"
                  },
                  {
                    "reference": "urn:uuid:c38f604b-6a42-460d-8f28-1022dda61c12"
                  },
                  {
                    "reference": "urn:uuid:6be77d3f-7e43-494c-a0c4-e59a5d3b04f5"
                  },
                  {
                    "reference": "urn:uuid:89ea9b9f-f4bc-4a85-a53b-ff36f7f19321"
                  },
                  {
                    "reference": "urn:uuid:4b8ff4d5-bd87-45eb-85fe-49efe90e4ac2"
                  },
                  {
                    "reference": "urn:uuid:ccb837cf-0897-4a1d-b425-afce11462e91"
                  },
                  {
                    "reference": "urn:uuid:7c52d105-4cf7-484a-aa67-391661ac6cdd"
                  },
                  {
                    "reference": "urn:uuid:527c077c-9ee4-4c75-a731-a7d933c23917"
                  },
                  {
                    "reference": "urn:uuid:a59772e7-085a-4e3a-9abd-2fe823a9518e"
                  },
                  {
                    "reference": "urn:uuid:6a50defd-c4ae-4c9c-9f5e-3eabc494cac3"
                  }
                ],
                "text": {
                  "status": "generated",
                  "div": "<div xmlns=\"http://www.w3.org/1999/xhtml\"><h3>Urinalysis</h3><table class=\"hl7__eu__lab__report\"><thead><tr><th>Test</th><th>03-APR-2025</th><th>Reference&#xA0;Range</th><th>Unit</th></tr></thead><tbody><tr><td>Glucose [Mass/volume] in Urine by Test strip</td><td><strong>1.7 H</strong></td><td>0.8 - 0</td><td>mg/dL</td></tr><tr><td>Glucose [Presence] in Urine by Test strip</td><td>++</td><td></td><td></td></tr><tr><td>Bilirubin.total [Mass/volume] in Urine by Test strip</td><td>1.0</td><td>0 - 1</td><td>mg/dL</td></tr><tr><td>Bilirubin.total [Presence] in Urine by Test strip</td><td>Finding of bilirubin in urine</td><td></td><td></td></tr><tr><td>Ketones [Mass/volume] in Urine by Test strip</td><td>4.6</td><td>0 - 20</td><td>mg/dL</td></tr><tr><td>Specific gravity of Urine by Test strip</td><td><strong>1.0 L</strong></td><td>1.01 - 1.03</td><td>{nominal}</td></tr><tr><td>pH of Urine by Test strip</td><td>7.0</td><td>4.6 - 7</td><td>pH</td></tr><tr><td>Protein [Mass/volume] in Urine by Test strip</td><td><strong>261.3 H</strong></td><td>0 - 15</td><td>mg/dL</td></tr><tr><td>Protein [Presence] in Urine by Test strip</td><td>Urine protein test = ++</td><td></td><td></td></tr><tr><td>Nitrite [Presence] in Urine by Test strip</td><td>Urine nitrite negative</td><td></td><td></td></tr><tr><td>Hemoglobin [Presence] in Urine by Test strip</td><td>Urine blood test = negative</td><td></td><td></td></tr><tr><td>Leukocyte esterase [Presence] in Urine by Test strip</td><td>Urine leukocyte test negative</td><td></td><td></td></tr></tbody></table></div>"
                },
                "title": "Urinalysis"
              },
              {
                "code": {
                  "coding": [
                    {
                      "code": "$LP7846-1",
                      "system": "http://loinc.org",
                      "display": "Specimen information"
                    }
                  ],
                  "text": "Specimen information"
                },
                "entry": [
                  {
                    "reference": "urn:uuid:2479c262-b9fd-4d60-962e-18e72f53c8a2"
                  },
                  {
                    "reference": "urn:uuid:38021ed5-a863-46a4-ba10-3c311858c6d2"
                  },
                  {
                    "reference": "urn:uuid:bc9c840f-22ad-4879-ad0f-a0b82da38eda"
                  },
                  {
                    "reference": "urn:uuid:91755ed0-0d24-4ec9-afd7-383fbdc31d01"
                  }
                ],
                "text": {
                  "status": "generated",
                  "div": "<div xmlns=\"http://www.w3.org/1999/xhtml\"><h3>Specimen information</h3><table class=\"hl7__eu__lab__report\"><thead><tr><th>Test</th><th>03-APR-2025</th><th>Specimen</th><th></th></tr></thead><tbody><tr><td>Appearance of Urine</td><td>Cloudy urine</td><td>Urine</td><td></td></tr><tr><td>Odor of Urine</td><td>Urine smell ammoniacal</td><td>Urine</td><td></td></tr><tr><td>Clarity of Urine</td><td>Translucent</td><td>Urine</td><td></td></tr><tr><td>Color of Urine</td><td>Brown color</td><td>Urine</td><td></td></tr></tbody></table></div>"
                },
                "title": "Specimen information"
              }
            ],
            "title": "Laboratory Report"
          },
          {
            "text": {
              "status": "generated",
              "div": "<div xmlns=\"http://www.w3.org/1999/xhtml\"><h3>Annotation</h3><table class=\"hl7__eu__lab__report\"><tr><th>Conclusion and Recommendations based on this report and previous findings known to us</th></tr><tr><td>The patient shows elevated serum creatinine, indicating possible impaired renal function. Urinalysis reveals significant proteinuria, glucosuria, low specific gravity, and presence of ketones and bilirubin, suggesting renal tubular dysfunction and possible nephrotic or diabetic nephropathy. No evidence of urinary tract infection is seen. Further clinical correlation and nephrology evaluation are recommended.</td></tr></table></div>"
            },
            "code": {
              "coding": [
                {
                  "system": "http://loinc.org",
                  "code": "48767-8",
                  "display": "Annotation comment"
                }
              ]
            },
            "title": "Annotation comment"
          }
        ],
        "status": "final",
        "subject": {
          "reference": "urn:uuid:428d6660-ebc8-45ea-aaef-5ce1a3c32068",
          "display": "Marthe Gallet"
        },
        "date": "2025-04-03T21:05:43Z",
        "title": "Laboratory Report",
        "confidentiality": "N"
      }
    },
    {
      "fullUrl": "urn:uuid:80719f8f-a8fb-4e8d-8178-2d4c584137d5",
      "resource": {
        "resourceType": "DiagnosticReport",
        "id": "80719f8f-a8fb-4e8d-8178-2d4c584137d5",
        "meta": {
          "profile": [
            "http://hl7.eu/fhir/laboratory/StructureDefinition/DiagnosticReport-eu-lab"
          ]
        },
        "identifier": [
          {
            "assigner": {
              "display": "HL7 Europe"
            },
            "system": "urn:oid:2.16.840.1.113883.2.51.999",
            "value": "02c57057-b176-495e-b061-c35e475ec160"
          }
        ],
        "extension": [
          {
            "url": "http://hl7.org/fhir/5.0/StructureDefinition/extension-DiagnosticReport.composition",
            "valueReference": {
              "reference": "urn:uuid:5ddaee3a-46ea-4c39-ae65-9ecb6e59b6d2"
            }
          }
        ],
        "category": [
          {
            "coding": [
              {
                "code": "26436-6",
                "system": "http://loinc.org",
                "display": "Laboratory studies (set)"
              }
            ]
          }
        ],
        "specimen": [
          {
            "reference": "urn:uuid:1784dfb3-733c-4aff-9fb8-94d4bd4c004c"
          },
          {
            "reference": "urn:uuid:33b7c0e7-079e-4b9a-b441-d07cab31d6df"
          }
        ],
        "result": [
          {
            "reference": "urn:uuid:7ce00a90-7b90-4083-acff-a259198120dc"
          },
          {
            "reference": "urn:uuid:f154365c-52d5-4f76-8cf4-918e0b80c4a5"
          },
          {
            "reference": "urn:uuid:4051a91d-f1dd-4cce-823f-2c36e5e5f2ed"
          },
          {
            "reference": "urn:uuid:53748162-af83-4f7e-af57-c97be3a21063"
          },
          {
            "reference": "urn:uuid:5e29e4a4-258e-4125-8233-f6e583e6737d"
          },
          {
            "reference": "urn:uuid:2637ce6b-094d-4f37-a3a9-9e709cb0ff43"
          },
          {
            "reference": "urn:uuid:74a5a65e-8c1c-4302-8c57-71e6933b92de"
          },
          {
            "reference": "urn:uuid:5f86cdcd-914c-4634-9ea4-d14aa0ed4851"
          },
          {
            "reference": "urn:uuid:2479c262-b9fd-4d60-962e-18e72f53c8a2"
          },
          {
            "reference": "urn:uuid:38021ed5-a863-46a4-ba10-3c311858c6d2"
          },
          {
            "reference": "urn:uuid:bc9c840f-22ad-4879-ad0f-a0b82da38eda"
          },
          {
            "reference": "urn:uuid:91755ed0-0d24-4ec9-afd7-383fbdc31d01"
          },
          {
            "reference": "urn:uuid:bee4b32d-8236-4cb9-b1f9-cd16359d3cad"
          },
          {
            "reference": "urn:uuid:9233918b-7522-4cc4-8efb-8aec10101949"
          },
          {
            "reference": "urn:uuid:7f487b0b-58c2-4219-a9d6-c7c80ea30dab"
          },
          {
            "reference": "urn:uuid:c38f604b-6a42-460d-8f28-1022dda61c12"
          },
          {
            "reference": "urn:uuid:6be77d3f-7e43-494c-a0c4-e59a5d3b04f5"
          },
          {
            "reference": "urn:uuid:2856671f-355b-45ef-942e-9d7c86d84f4d"
          },
          {
            "reference": "urn:uuid:89ea9b9f-f4bc-4a85-a53b-ff36f7f19321"
          },
          {
            "reference": "urn:uuid:4b8ff4d5-bd87-45eb-85fe-49efe90e4ac2"
          },
          {
            "reference": "urn:uuid:ccb837cf-0897-4a1d-b425-afce11462e91"
          },
          {
            "reference": "urn:uuid:7c52d105-4cf7-484a-aa67-391661ac6cdd"
          },
          {
            "reference": "urn:uuid:527c077c-9ee4-4c75-a731-a7d933c23917"
          },
          {
            "reference": "urn:uuid:a59772e7-085a-4e3a-9abd-2fe823a9518e"
          },
          {
            "reference": "urn:uuid:6a50defd-c4ae-4c9c-9f5e-3eabc494cac3"
          },
          {
            "reference": "urn:uuid:e80576c1-bc12-4866-8aa3-7ee816cb5bae"
          },
          {
            "reference": "urn:uuid:f5fd95ad-fa60-4157-a9c6-9bc2570e8a0f"
          },
          {
            "reference": "urn:uuid:96d99a5e-8f5c-4874-9cfc-f5f465ea1bcf"
          },
          {
            "reference": "urn:uuid:df846bb1-b052-4727-98b8-be1e0c6ec9a1"
          }
        ],
        "status": "registered",
        "code": {
          "coding": [
            {
              "code": "11502-2",
              "system": "http://loinc.org",
              "display": "Laboratory report"
            }
          ]
        },
        "subject": {
          "reference": "urn:uuid:428d6660-ebc8-45ea-aaef-5ce1a3c32068",
          "display": "Marthe Gallet"
        }
      }
    },
    {
      "fullUrl": "urn:uuid:428d6660-ebc8-45ea-aaef-5ce1a3c32068",
      "resource": {
        "resourceType": "Patient",
        "id": "428d6660-ebc8-45ea-aaef-5ce1a3c32068",
        "meta": {
          "security": [
            {
              "system": "http://terminology.hl7.org/CodeSystem/v3-ActReason",
              "code": "HTEST"
            },
            {
              "system": "http://terminology.hl7.org/CodeSystem/v3-ActReason",
              "code": "TRAIN"
            }
          ],
          "tag": [
            {
              "system": "https://synderai.net/fhir/CodeSystem/tags",
              "code": "synthetic",
              "display": "SYNDERAI Synthetic data"
            }
          ],
          "profile": [
            "http://hl7.eu/fhir/base/StructureDefinition/patient-eu-core"
          ]
        },
        "identifier": [
          {
            "type": {
              "coding": [
                {
                  "code": "PT",
                  "system": "http://terminology.hl7.org/CodeSystem/v2-0203"
                }
              ]
            },
            "system": "http://ec.europa.eu/identifier/eci",
            "value": "9444-947487-6"
          },
          {
            "type": {
              "coding": [
                {
                  "code": "MR",
                  "system": "http://terminology.hl7.org/CodeSystem/v2-0203"
                }
              ]
            },
            "system": "http://local.setting.eu/identifier",
            "value": "854228d5-a476-2d9c-a1d7-c3202375a617"
          }
        ],
        "name": [
          {
            "family": "Gallet"
          },
          {
            "given": [
              "Marthe"
            ]
          },
          {
            "text": "Marthe Gallet"
          }
        ],
        "address": [
          {
            "line": [
              "3, rue Emmanuel Goncalves"
            ],
            "use": "home",
            "type": "physical",
            "postalCode": "49490",
            "city": "Briand",
            "country": "France"
          }
        ],
        "telecom": [
          {
            "system": "phone",
            "value": "+33 1 70 99 82 74"
          }
        ],
        "extension": [
          {
            "url": "http://hl7.org/fhir/StructureDefinition/patient-nationality",
            "valueCodeableConcept": {
              "coding": [
                {
                  "code": "FR",
                  "system": "http://hl7.org/fhir/ValueSet/country"
                }
              ]
            }
          }
        ],
        "text": {
          "status": "generated",
          "div": "<div xmlns=\"http://www.w3.org/1999/xhtml\"><table class=\"hl7__ips\"><tr><td>Marthe Gallet</td><td>female</td><td>29-Oct-1950</td></tr></table></div>"
        },
        "gender": "female",
        "birthDate": "1950-10-29"
      }
    },
    {
      "fullUrl": "urn:uuid:a63bd388-7326-4a14-9828-3a3968062307",
      "resource": {
        "resourceType": "ServiceRequest",
        "id": "a63bd388-7326-4a14-9828-3a3968062307",
        "meta": {
          "profile": [
            "http://hl7.eu/fhir/laboratory/StructureDefinition/ServiceRequest-eu-lab"
          ]
        },
        "identifier": [
          {
            "system": "http://example.org",
            "value": "41148bef-222d-44bb-a90a-972b70b9a5a0"
          }
        ],
        "specimen": [
          {
            "reference": "urn:uuid:1784dfb3-733c-4aff-9fb8-94d4bd4c004c"
          },
          {
            "reference": "urn:uuid:33b7c0e7-079e-4b9a-b441-d07cab31d6df"
          }
        ],
        "reasonCode": [
          {
            "coding": [
              {
                "code": "431856006",
                "system": "http://snomed.info/sct",
                "display": "Chronic kidney disease stage 2"
              }
            ]
          },
          {
            "coding": [
              {
                "code": "90781000119102",
                "system": "http://snomed.info/sct",
                "display": "Microalbuminuria due to type 2 diabetes mellitus"
              }
            ]
          },
          {
            "coding": [
              {
                "code": "127013003",
                "system": "http://snomed.info/sct",
                "display": "Disorder of kidney due to diabetes mellitus"
              }
            ]
          },
          {
            "coding": [
              {
                "code": "431855005",
                "system": "http://snomed.info/sct",
                "display": "Chronic kidney disease stage 1"
              }
            ]
          },
          {
            "coding": [
              {
                "code": "55822004",
                "system": "http://snomed.info/sct",
                "display": "Hyperlipidemia"
              }
            ]
          },
          {
            "coding": [
              {
                "code": "59621000",
                "system": "http://snomed.info/sct",
                "display": "Essential hypertension"
              }
            ]
          }
        ],
        "status": "active",
        "intent": "order",
        "code": {
          "coding": [
            {
              "code": "108252007",
              "system": "http://snomed.info/sct",
              "display": "Laboratory procedure"
            }
          ]
        },
        "subject": {
          "reference": "urn:uuid:428d6660-ebc8-45ea-aaef-5ce1a3c32068",
          "display": "Marthe Gallet"
        },
        "requester": {
          "reference": "urn:uuid:d3445c80-954e-4afa-84ed-7f34aa633d02"
        }
      }
    },
    {
      "fullUrl": "urn:uuid:d3445c80-954e-4afa-84ed-7f34aa633d02",
      "resource": {
        "resourceType": "PractitionerRole",
        "id": "d3445c80-954e-4afa-84ed-7f34aa633d02",
        "meta": {
          "profile": [
            "http://hl7.eu/fhir/base/StructureDefinition/practitionerRole-eu"
          ]
        },
        "text": {
          "status": "generated",
          "div": "<div xmlns=\"http://www.w3.org/1999/xhtml\">Provider Role Id: d3445c80-954e-4afa-84ed-7f34aa633d02</div>"
        },
        "organization": {
          "reference": "urn:uuid:1bc3584b-f3b7-4365-ad7d-a5784c7a2fc2"
        }
      }
    },
    {
      "fullUrl": "urn:uuid:1bc3584b-f3b7-4365-ad7d-a5784c7a2fc2",
      "resource": {
        "resourceType": "Organization",
        "id": "1bc3584b-f3b7-4365-ad7d-a5784c7a2fc2",
        "meta": {
          "profile": [
            "http://hl7.eu/fhir/base/StructureDefinition/organization-eu"
          ]
        },
        "identifier": [
          {
            "assigner": {
              "display": "HL7 Europe"
            },
            "system": "urn:oid:2.16.840.1.113883.2.51.999",
            "value": "5325b987-1f87-4ab1-9875-13242624772e"
          }
        ],
        "address": [
          {
            "line": [
              "Rue Larrey nan"
            ],
            "city": "Angers",
            "postalCode": "49100",
            "country": "France"
          }
        ],
        "text": {
          "status": "generated",
          "div": "<div xmlns=\"http://www.w3.org/1999/xhtml\">Provider Organization: CHU d&#039;Angers</div>"
        },
        "name": "CHU d&#039;Angers"
      }
    },
    {
      "fullUrl": "urn:uuid:1784dfb3-733c-4aff-9fb8-94d4bd4c004c",
      "resource": {
        "resourceType": "Specimen",
        "id": "1784dfb3-733c-4aff-9fb8-94d4bd4c004c",
        "meta": {
          "profile": [
            "http://hl7.eu/fhir/laboratory/StructureDefinition/Specimen-eu-lab"
          ]
        },
        "collection": {
          "collectedDateTime": "2025-04-03"
        },
        "text": {
          "status": "generated",
          "div": "<div xmlns=\"http://www.w3.org/1999/xhtml\"><table class=\"hl7__eu__lab__report\"><tr><th>Specimen</th><th>Collection Date</th></tr><tr><td>Acellular blood (serum or plasma) specimen</td><td><span class=\"nb\">03-Apr-2025</span></td></tr></table></div>"
        },
        "type": {
          "coding": [
            {
              "code": "122592007",
              "system": "http://snomed.info/sct",
              "display": "Acellular blood (serum or plasma) specimen"
            }
          ]
        }
      }
    },
    {
      "fullUrl": "urn:uuid:33b7c0e7-079e-4b9a-b441-d07cab31d6df",
      "resource": {
        "resourceType": "Specimen",
        "id": "33b7c0e7-079e-4b9a-b441-d07cab31d6df",
        "meta": {
          "profile": [
            "http://hl7.eu/fhir/laboratory/StructureDefinition/Specimen-eu-lab"
          ]
        },
        "collection": {
          "collectedDateTime": "2025-04-03"
        },
        "text": {
          "status": "generated",
          "div": "<div xmlns=\"http://www.w3.org/1999/xhtml\"><table class=\"hl7__eu__lab__report\"><tr><th>Specimen</th><th>Collection Date</th></tr><tr><td>Urine specimen</td><td><span class=\"nb\">03-Apr-2025</span></td></tr></table></div>"
        },
        "type": {
          "coding": [
            {
              "code": "122575003",
              "system": "http://snomed.info/sct",
              "display": "Urine specimen"
            }
          ]
        }
      }
    },
    {
      "fullUrl": "urn:uuid:7ce00a90-7b90-4083-acff-a259198120dc",
      "resource": {
        "resourceType": "Observation",
        "id": "7ce00a90-7b90-4083-acff-a259198120dc",
        "meta": {
          "profile": [
            "http://hl7.eu/fhir/laboratory/StructureDefinition/Observation-resultslab-eu-lab"
          ]
        },
        "performer": [
          {
            "display": "The Central European Lab"
          }
        ],
        "category": [
          {
            "coding": [
              {
                "system": "http://terminology.hl7.org/CodeSystem/observation-category",
                "code": "laboratory"
              }
            ]
          }
        ],
        "code": {
          "coding": [
            {
              "code": "2345-7",
              "system": "http://loinc.org",
              "display": "Glucose [Mass/volume] in Serum or Plasma"
            }
          ],
          "text": "Glucose [Mass/volume] in Serum or Plasma"
        },
        "valueQuantity": {
          "system": "http://unitsofmeasure.org",
          "value": 79.7,
          "unit": "mg/dL",
          "code": "mg/dL"
        },
        "referenceRange": [
          {
            "low": {
              "value": 70,
              "code": "mg/dL",
              "system": "http://unitsofmeasure.org"
            }
          },
          {
            "high": {
              "value": 140,
              "code": "mg/dL",
              "system": "http://unitsofmeasure.org"
            }
          }
        ],
        "text": {
          "status": "generated",
          "div": "<div xmlns=\"http://www.w3.org/1999/xhtml\"><table class=\"hl7__eu__lab__report\"><tr><th>Test</th><th>03-Apr-2025</th><th>Reference&#xA0;Range</th><th>Unit</th></tr><tr><td>Glucose [Mass/volume] in Serum or Plasma</td><td>79.7</td><td>70 - 140</td><td></td><td>mg/dL</td></tr></table></div>"
        },
        "status": "final",
        "subject": {
          "reference": "urn:uuid:428d6660-ebc8-45ea-aaef-5ce1a3c32068",
          "display": "Marthe Gallet"
        },
        "effectiveDateTime": "2025-04-03T19:05:43Z",
        "specimen": {
          "reference": "urn:uuid:1784dfb3-733c-4aff-9fb8-94d4bd4c004c"
        }
      }
    },
    {
      "fullUrl": "urn:uuid:f154365c-52d5-4f76-8cf4-918e0b80c4a5",
      "resource": {
        "resourceType": "Observation",
        "id": "f154365c-52d5-4f76-8cf4-918e0b80c4a5",
        "meta": {
          "profile": [
            "http://hl7.eu/fhir/laboratory/StructureDefinition/Observation-resultslab-eu-lab"
          ]
        },
        "performer": [
          {
            "display": "The Central European Lab"
          }
        ],
        "category": [
          {
            "coding": [
              {
                "system": "http://terminology.hl7.org/CodeSystem/observation-category",
                "code": "laboratory"
              }
            ]
          }
        ],
        "code": {
          "coding": [
            {
              "code": "3094-0",
              "system": "http://loinc.org",
              "display": "Urea nitrogen [Mass/volume] in Serum or Plasma"
            }
          ],
          "text": "Urea nitrogen [Mass/volume] in Serum or Plasma"
        },
        "valueQuantity": {
          "system": "http://unitsofmeasure.org",
          "value": 16,
          "unit": "mg/dL",
          "code": "mg/dL"
        },
        "referenceRange": [
          {
            "low": {
              "value": 7,
              "code": "mg/dL",
              "system": "http://unitsofmeasure.org"
            }
          },
          {
            "high": {
              "value": 50,
              "code": "mg/dL",
              "system": "http://unitsofmeasure.org"
            }
          }
        ],
        "text": {
          "status": "generated",
          "div": "<div xmlns=\"http://www.w3.org/1999/xhtml\"><table class=\"hl7__eu__lab__report\"><tr><th>Test</th><th>03-Apr-2025</th><th>Reference&#xA0;Range</th><th>Unit</th></tr><tr><td>Urea nitrogen [Mass/volume] in Serum or Plasma</td><td>16.0</td><td>7 - 50</td><td></td><td>mg/dL</td></tr></table></div>"
        },
        "status": "final",
        "subject": {
          "reference": "urn:uuid:428d6660-ebc8-45ea-aaef-5ce1a3c32068",
          "display": "Marthe Gallet"
        },
        "effectiveDateTime": "2025-04-03T19:05:43Z",
        "specimen": {
          "reference": "urn:uuid:1784dfb3-733c-4aff-9fb8-94d4bd4c004c"
        }
      }
    },
    {
      "fullUrl": "urn:uuid:4051a91d-f1dd-4cce-823f-2c36e5e5f2ed",
      "resource": {
        "resourceType": "Observation",
        "id": "4051a91d-f1dd-4cce-823f-2c36e5e5f2ed",
        "meta": {
          "profile": [
            "http://hl7.eu/fhir/laboratory/StructureDefinition/Observation-resultslab-eu-lab"
          ]
        },
        "performer": [
          {
            "display": "The Central European Lab"
          }
        ],
        "category": [
          {
            "coding": [
              {
                "system": "http://terminology.hl7.org/CodeSystem/observation-category",
                "code": "laboratory"
              }
            ]
          }
        ],
        "code": {
          "coding": [
            {
              "code": "2160-0",
              "system": "http://loinc.org",
              "display": "Creatinine [Mass/volume] in Serum or Plasma"
            }
          ],
          "text": "Creatinine [Mass/volume] in Serum or Plasma"
        },
        "valueQuantity": {
          "system": "http://unitsofmeasure.org",
          "value": 1.9,
          "unit": "mg/dL",
          "code": "mg/dL"
        },
        "referenceRange": [
          {
            "low": {
              "value": 0.6,
              "code": "mg/dL",
              "system": "http://unitsofmeasure.org"
            }
          },
          {
            "high": {
              "value": 1.1,
              "code": "mg/dL",
              "system": "http://unitsofmeasure.org"
            }
          }
        ],
        "interpretation": [
          {
            "coding": [
              {
                "code": "H",
                "system": "http://terminology.hl7.org/CodeSystem/v3-ObservationInterpretation",
                "display": "High"
              }
            ]
          }
        ],
        "text": {
          "status": "generated",
          "div": "<div xmlns=\"http://www.w3.org/1999/xhtml\"><table class=\"hl7__eu__lab__report\"><tr><th>Test</th><th>03-Apr-2025</th><th>Reference&#xA0;Range</th><th>Unit</th></tr><tr><td>Creatinine [Mass/volume] in Serum or Plasma</td><td>1.9</td><td>0.6 - 1.1</td><td>H</td><td>mg/dL</td></tr></table></div>"
        },
        "status": "final",
        "subject": {
          "reference": "urn:uuid:428d6660-ebc8-45ea-aaef-5ce1a3c32068",
          "display": "Marthe Gallet"
        },
        "effectiveDateTime": "2025-04-03T19:05:43Z",
        "specimen": {
          "reference": "urn:uuid:1784dfb3-733c-4aff-9fb8-94d4bd4c004c"
        }
      }
    },
    {
      "fullUrl": "urn:uuid:53748162-af83-4f7e-af57-c97be3a21063",
      "resource": {
        "resourceType": "Observation",
        "id": "53748162-af83-4f7e-af57-c97be3a21063",
        "meta": {
          "profile": [
            "http://hl7.eu/fhir/laboratory/StructureDefinition/Observation-resultslab-eu-lab"
          ]
        },
        "performer": [
          {
            "display": "The Central European Lab"
          }
        ],
        "category": [
          {
            "coding": [
              {
                "system": "http://terminology.hl7.org/CodeSystem/observation-category",
                "code": "laboratory"
              }
            ]
          }
        ],
        "code": {
          "coding": [
            {
              "code": "17861-6",
              "system": "http://loinc.org",
              "display": "Calcium [Mass/volume] in Serum or Plasma"
            }
          ],
          "text": "Calcium [Mass/volume] in Serum or Plasma"
        },
        "valueQuantity": {
          "system": "http://unitsofmeasure.org",
          "value": 9.1,
          "unit": "mg/dL",
          "code": "mg/dL"
        },
        "referenceRange": [
          {
            "low": {
              "value": 8.5,
              "code": "mg/dL",
              "system": "http://unitsofmeasure.org"
            }
          },
          {
            "high": {
              "value": 10.5,
              "code": "mg/dL",
              "system": "http://unitsofmeasure.org"
            }
          }
        ],
        "text": {
          "status": "generated",
          "div": "<div xmlns=\"http://www.w3.org/1999/xhtml\"><table class=\"hl7__eu__lab__report\"><tr><th>Test</th><th>03-Apr-2025</th><th>Reference&#xA0;Range</th><th>Unit</th></tr><tr><td>Calcium [Mass/volume] in Serum or Plasma</td><td>9.1</td><td>8.5 - 10.5</td><td></td><td>mg/dL</td></tr></table></div>"
        },
        "status": "final",
        "subject": {
          "reference": "urn:uuid:428d6660-ebc8-45ea-aaef-5ce1a3c32068",
          "display": "Marthe Gallet"
        },
        "effectiveDateTime": "2025-04-03T19:05:43Z",
        "specimen": {
          "reference": "urn:uuid:1784dfb3-733c-4aff-9fb8-94d4bd4c004c"
        }
      }
    },
    {
      "fullUrl": "urn:uuid:5e29e4a4-258e-4125-8233-f6e583e6737d",
      "resource": {
        "resourceType": "Observation",
        "id": "5e29e4a4-258e-4125-8233-f6e583e6737d",
        "meta": {
          "profile": [
            "http://hl7.eu/fhir/laboratory/StructureDefinition/Observation-resultslab-eu-lab"
          ]
        },
        "performer": [
          {
            "display": "The Central European Lab"
          }
        ],
        "category": [
          {
            "coding": [
              {
                "system": "http://terminology.hl7.org/CodeSystem/observation-category",
                "code": "laboratory"
              }
            ]
          }
        ],
        "code": {
          "coding": [
            {
              "code": "2951-2",
              "system": "http://loinc.org",
              "display": "Sodium [Moles/volume] in Serum or Plasma"
            }
          ],
          "text": "Sodium [Moles/volume] in Serum or Plasma"
        },
        "valueQuantity": {
          "system": "http://unitsofmeasure.org",
          "value": 140.8,
          "unit": "mmol/L",
          "code": "mmol/L"
        },
        "referenceRange": [
          {
            "low": {
              "value": 135,
              "code": "mmol/L",
              "system": "http://unitsofmeasure.org"
            }
          },
          {
            "high": {
              "value": 145,
              "code": "mmol/L",
              "system": "http://unitsofmeasure.org"
            }
          }
        ],
        "text": {
          "status": "generated",
          "div": "<div xmlns=\"http://www.w3.org/1999/xhtml\"><table class=\"hl7__eu__lab__report\"><tr><th>Test</th><th>03-Apr-2025</th><th>Reference&#xA0;Range</th><th>Unit</th></tr><tr><td>Sodium [Moles/volume] in Serum or Plasma</td><td>140.8</td><td>135 - 145</td><td></td><td>mmol/L</td></tr></table></div>"
        },
        "status": "final",
        "subject": {
          "reference": "urn:uuid:428d6660-ebc8-45ea-aaef-5ce1a3c32068",
          "display": "Marthe Gallet"
        },
        "effectiveDateTime": "2025-04-03T19:05:43Z",
        "specimen": {
          "reference": "urn:uuid:1784dfb3-733c-4aff-9fb8-94d4bd4c004c"
        }
      }
    },
    {
      "fullUrl": "urn:uuid:2637ce6b-094d-4f37-a3a9-9e709cb0ff43",
      "resource": {
        "resourceType": "Observation",
        "id": "2637ce6b-094d-4f37-a3a9-9e709cb0ff43",
        "meta": {
          "profile": [
            "http://hl7.eu/fhir/laboratory/StructureDefinition/Observation-resultslab-eu-lab"
          ]
        },
        "performer": [
          {
            "display": "The Central European Lab"
          }
        ],
        "category": [
          {
            "coding": [
              {
                "system": "http://terminology.hl7.org/CodeSystem/observation-category",
                "code": "laboratory"
              }
            ]
          }
        ],
        "code": {
          "coding": [
            {
              "code": "2823-3",
              "system": "http://loinc.org",
              "display": "Potassium [Moles/volume] in Serum or Plasma"
            }
          ],
          "text": "Potassium [Moles/volume] in Serum or Plasma"
        },
        "valueQuantity": {
          "system": "http://unitsofmeasure.org",
          "value": 4.5,
          "unit": "mmol/L",
          "code": "mmol/L"
        },
        "referenceRange": [
          {
            "low": {
              "value": 3.5,
              "code": "mmol/L",
              "system": "http://unitsofmeasure.org"
            }
          },
          {
            "high": {
              "value": 5.1,
              "code": "mmol/L",
              "system": "http://unitsofmeasure.org"
            }
          }
        ],
        "text": {
          "status": "generated",
          "div": "<div xmlns=\"http://www.w3.org/1999/xhtml\"><table class=\"hl7__eu__lab__report\"><tr><th>Test</th><th>03-Apr-2025</th><th>Reference&#xA0;Range</th><th>Unit</th></tr><tr><td>Potassium [Moles/volume] in Serum or Plasma</td><td>4.5</td><td>3.5 - 5.1</td><td></td><td>mmol/L</td></tr></table></div>"
        },
        "status": "final",
        "subject": {
          "reference": "urn:uuid:428d6660-ebc8-45ea-aaef-5ce1a3c32068",
          "display": "Marthe Gallet"
        },
        "effectiveDateTime": "2025-04-03T19:05:43Z",
        "specimen": {
          "reference": "urn:uuid:1784dfb3-733c-4aff-9fb8-94d4bd4c004c"
        }
      }
    },
    {
      "fullUrl": "urn:uuid:74a5a65e-8c1c-4302-8c57-71e6933b92de",
      "resource": {
        "resourceType": "Observation",
        "id": "74a5a65e-8c1c-4302-8c57-71e6933b92de",
        "meta": {
          "profile": [
            "http://hl7.eu/fhir/laboratory/StructureDefinition/Observation-resultslab-eu-lab"
          ]
        },
        "performer": [
          {
            "display": "The Central European Lab"
          }
        ],
        "category": [
          {
            "coding": [
              {
                "system": "http://terminology.hl7.org/CodeSystem/observation-category",
                "code": "laboratory"
              }
            ]
          }
        ],
        "code": {
          "coding": [
            {
              "code": "2075-0",
              "system": "http://loinc.org",
              "display": "Chloride [Moles/volume] in Serum or Plasma"
            }
          ],
          "text": "Chloride [Moles/volume] in Serum or Plasma"
        },
        "valueQuantity": {
          "system": "http://unitsofmeasure.org",
          "value": 104.5,
          "unit": "mmol/L",
          "code": "mmol/L"
        },
        "referenceRange": [
          {
            "low": {
              "value": 98,
              "code": "mmol/L",
              "system": "http://unitsofmeasure.org"
            }
          },
          {
            "high": {
              "value": 108,
              "code": "mmol/L",
              "system": "http://unitsofmeasure.org"
            }
          }
        ],
        "text": {
          "status": "generated",
          "div": "<div xmlns=\"http://www.w3.org/1999/xhtml\"><table class=\"hl7__eu__lab__report\"><tr><th>Test</th><th>03-Apr-2025</th><th>Reference&#xA0;Range</th><th>Unit</th></tr><tr><td>Chloride [Moles/volume] in Serum or Plasma</td><td>104.5</td><td>98 - 108</td><td></td><td>mmol/L</td></tr></table></div>"
        },
        "status": "final",
        "subject": {
          "reference": "urn:uuid:428d6660-ebc8-45ea-aaef-5ce1a3c32068",
          "display": "Marthe Gallet"
        },
        "effectiveDateTime": "2025-04-03T19:05:43Z",
        "specimen": {
          "reference": "urn:uuid:1784dfb3-733c-4aff-9fb8-94d4bd4c004c"
        }
      }
    },
    {
      "fullUrl": "urn:uuid:5f86cdcd-914c-4634-9ea4-d14aa0ed4851",
      "resource": {
        "resourceType": "Observation",
        "id": "5f86cdcd-914c-4634-9ea4-d14aa0ed4851",
        "meta": {
          "profile": [
            "http://hl7.eu/fhir/laboratory/StructureDefinition/Observation-resultslab-eu-lab"
          ]
        },
        "performer": [
          {
            "display": "The Central European Lab"
          }
        ],
        "category": [
          {
            "coding": [
              {
                "system": "http://terminology.hl7.org/CodeSystem/observation-category",
                "code": "laboratory"
              }
            ]
          }
        ],
        "code": {
          "coding": [
            {
              "code": "2028-9",
              "system": "http://loinc.org",
              "display": "Carbon dioxide, total [Moles/volume] in Serum or Plasma"
            }
          ],
          "text": "Carbon dioxide, total [Moles/volume] in Serum or Plasma"
        },
        "valueQuantity": {
          "system": "http://unitsofmeasure.org",
          "value": 26.2,
          "unit": "mmol/L",
          "code": "mmol/L"
        },
        "referenceRange": [
          {
            "low": {
              "value": 22,
              "code": "mmol/L",
              "system": "http://unitsofmeasure.org"
            }
          },
          {
            "high": {
              "value": 32,
              "code": "mmol/L",
              "system": "http://unitsofmeasure.org"
            }
          }
        ],
        "text": {
          "status": "generated",
          "div": "<div xmlns=\"http://www.w3.org/1999/xhtml\"><table class=\"hl7__eu__lab__report\"><tr><th>Test</th><th>03-Apr-2025</th><th>Reference&#xA0;Range</th><th>Unit</th></tr><tr><td>Carbon dioxide, total [Moles/volume] in Serum or Plasma</td><td>26.2</td><td>22 - 32</td><td></td><td>mmol/L</td></tr></table></div>"
        },
        "status": "final",
        "subject": {
          "reference": "urn:uuid:428d6660-ebc8-45ea-aaef-5ce1a3c32068",
          "display": "Marthe Gallet"
        },
        "effectiveDateTime": "2025-04-03T19:05:43Z",
        "specimen": {
          "reference": "urn:uuid:1784dfb3-733c-4aff-9fb8-94d4bd4c004c"
        }
      }
    },
    {
      "fullUrl": "urn:uuid:2479c262-b9fd-4d60-962e-18e72f53c8a2",
      "resource": {
        "resourceType": "Observation",
        "id": "2479c262-b9fd-4d60-962e-18e72f53c8a2",
        "meta": {
          "profile": [
            "http://hl7.eu/fhir/laboratory/StructureDefinition/Observation-resultslab-eu-lab"
          ]
        },
        "performer": [
          {
            "display": "The Central European Lab"
          }
        ],
        "category": [
          {
            "coding": [
              {
                "system": "http://terminology.hl7.org/CodeSystem/observation-category",
                "code": "laboratory"
              }
            ]
          }
        ],
        "code": {
          "coding": [
            {
              "code": "5767-9",
              "system": "http://loinc.org",
              "display": "Appearance of Urine"
            }
          ],
          "text": "Appearance of Urine"
        },
        "text": {
          "status": "generated",
          "div": "<div xmlns=\"http://www.w3.org/1999/xhtml\"><table class=\"hl7__eu__lab__report\"><tr><th>Test</th><th>03-Apr-2025</th><th>Reference&#xA0;Range</th><th>Unit</th></tr><tr><td>Appearance of Urine</td></tr></table></div>"
        },
        "status": "final",
        "subject": {
          "reference": "urn:uuid:428d6660-ebc8-45ea-aaef-5ce1a3c32068",
          "display": "Marthe Gallet"
        },
        "effectiveDateTime": "2025-04-03T19:05:43Z",
        "specimen": {
          "reference": "urn:uuid:33b7c0e7-079e-4b9a-b441-d07cab31d6df"
        }
      }
    },
    {
      "fullUrl": "urn:uuid:38021ed5-a863-46a4-ba10-3c311858c6d2",
      "resource": {
        "resourceType": "Observation",
        "id": "38021ed5-a863-46a4-ba10-3c311858c6d2",
        "meta": {
          "profile": [
            "http://hl7.eu/fhir/laboratory/StructureDefinition/Observation-resultslab-eu-lab"
          ]
        },
        "performer": [
          {
            "display": "The Central European Lab"
          }
        ],
        "category": [
          {
            "coding": [
              {
                "system": "http://terminology.hl7.org/CodeSystem/observation-category",
                "code": "laboratory"
              }
            ]
          }
        ],
        "code": {
          "coding": [
            {
              "code": "34533-0",
              "system": "http://loinc.org",
              "display": "Odor of Urine"
            }
          ],
          "text": "Odor of Urine"
        },
        "text": {
          "status": "generated",
          "div": "<div xmlns=\"http://www.w3.org/1999/xhtml\"><table class=\"hl7__eu__lab__report\"><tr><th>Test</th><th>03-Apr-2025</th><th>Reference&#xA0;Range</th><th>Unit</th></tr><tr><td>Odor of Urine</td></tr></table></div>"
        },
        "status": "final",
        "subject": {
          "reference": "urn:uuid:428d6660-ebc8-45ea-aaef-5ce1a3c32068",
          "display": "Marthe Gallet"
        },
        "effectiveDateTime": "2025-04-03T19:05:43Z",
        "specimen": {
          "reference": "urn:uuid:33b7c0e7-079e-4b9a-b441-d07cab31d6df"
        }
      }
    },
    {
      "fullUrl": "urn:uuid:bc9c840f-22ad-4879-ad0f-a0b82da38eda",
      "resource": {
        "resourceType": "Observation",
        "id": "bc9c840f-22ad-4879-ad0f-a0b82da38eda",
        "meta": {
          "profile": [
            "http://hl7.eu/fhir/laboratory/StructureDefinition/Observation-resultslab-eu-lab"
          ]
        },
        "performer": [
          {
            "display": "The Central European Lab"
          }
        ],
        "category": [
          {
            "coding": [
              {
                "system": "http://terminology.hl7.org/CodeSystem/observation-category",
                "code": "laboratory"
              }
            ]
          }
        ],
        "code": {
          "coding": [
            {
              "code": "32167-9",
              "system": "http://loinc.org",
              "display": "Clarity of Urine"
            }
          ],
          "text": "Clarity of Urine"
        },
        "text": {
          "status": "generated",
          "div": "<div xmlns=\"http://www.w3.org/1999/xhtml\"><table class=\"hl7__eu__lab__report\"><tr><th>Test</th><th>03-Apr-2025</th><th>Reference&#xA0;Range</th><th>Unit</th></tr><tr><td>Clarity of Urine</td></tr></table></div>"
        },
        "status": "final",
        "subject": {
          "reference": "urn:uuid:428d6660-ebc8-45ea-aaef-5ce1a3c32068",
          "display": "Marthe Gallet"
        },
        "effectiveDateTime": "2025-04-03T19:05:43Z",
        "specimen": {
          "reference": "urn:uuid:33b7c0e7-079e-4b9a-b441-d07cab31d6df"
        }
      }
    },
    {
      "fullUrl": "urn:uuid:91755ed0-0d24-4ec9-afd7-383fbdc31d01",
      "resource": {
        "resourceType": "Observation",
        "id": "91755ed0-0d24-4ec9-afd7-383fbdc31d01",
        "meta": {
          "profile": [
            "http://hl7.eu/fhir/laboratory/StructureDefinition/Observation-resultslab-eu-lab"
          ]
        },
        "performer": [
          {
            "display": "The Central European Lab"
          }
        ],
        "category": [
          {
            "coding": [
              {
                "system": "http://terminology.hl7.org/CodeSystem/observation-category",
                "code": "laboratory"
              }
            ]
          }
        ],
        "code": {
          "coding": [
            {
              "code": "5778-6",
              "system": "http://loinc.org",
              "display": "Color of Urine"
            }
          ],
          "text": "Color of Urine"
        },
        "text": {
          "status": "generated",
          "div": "<div xmlns=\"http://www.w3.org/1999/xhtml\"><table class=\"hl7__eu__lab__report\"><tr><th>Test</th><th>03-Apr-2025</th><th>Reference&#xA0;Range</th><th>Unit</th></tr><tr><td>Color of Urine</td></tr></table></div>"
        },
        "status": "final",
        "subject": {
          "reference": "urn:uuid:428d6660-ebc8-45ea-aaef-5ce1a3c32068",
          "display": "Marthe Gallet"
        },
        "effectiveDateTime": "2025-04-03T19:05:43Z",
        "specimen": {
          "reference": "urn:uuid:33b7c0e7-079e-4b9a-b441-d07cab31d6df"
        }
      }
    },
    {
      "fullUrl": "urn:uuid:bee4b32d-8236-4cb9-b1f9-cd16359d3cad",
      "resource": {
        "resourceType": "Observation",
        "id": "bee4b32d-8236-4cb9-b1f9-cd16359d3cad",
        "meta": {
          "profile": [
            "http://hl7.eu/fhir/laboratory/StructureDefinition/Observation-resultslab-eu-lab"
          ]
        },
        "performer": [
          {
            "display": "The Central European Lab"
          }
        ],
        "category": [
          {
            "coding": [
              {
                "system": "http://terminology.hl7.org/CodeSystem/observation-category",
                "code": "laboratory"
              }
            ]
          }
        ],
        "code": {
          "coding": [
            {
              "code": "5792-7",
              "system": "http://loinc.org",
              "display": "Glucose [Mass/volume] in Urine by Test strip"
            }
          ],
          "text": "Glucose [Mass/volume] in Urine by Test strip"
        },
        "valueQuantity": {
          "system": "http://unitsofmeasure.org",
          "value": 1.7,
          "unit": "mg/dL",
          "code": "mg/dL"
        },
        "referenceRange": [
          {
            "low": {
              "value": 0.8,
              "code": "mg/dL",
              "system": "http://unitsofmeasure.org"
            }
          },
          {
            "high": {
              "value": 0,
              "code": "mg/dL",
              "system": "http://unitsofmeasure.org"
            }
          }
        ],
        "interpretation": [
          {
            "coding": [
              {
                "code": "H",
                "system": "http://terminology.hl7.org/CodeSystem/v3-ObservationInterpretation",
                "display": "High"
              }
            ]
          }
        ],
        "text": {
          "status": "generated",
          "div": "<div xmlns=\"http://www.w3.org/1999/xhtml\"><table class=\"hl7__eu__lab__report\"><tr><th>Test</th><th>03-Apr-2025</th><th>Reference&#xA0;Range</th><th>Unit</th></tr><tr><td>Glucose [Mass/volume] in Urine by Test strip</td><td>1.7</td><td>0.8 - 0</td><td>H</td><td>mg/dL</td></tr></table></div>"
        },
        "status": "final",
        "subject": {
          "reference": "urn:uuid:428d6660-ebc8-45ea-aaef-5ce1a3c32068",
          "display": "Marthe Gallet"
        },
        "effectiveDateTime": "2025-04-03T19:05:43Z",
        "specimen": {
          "reference": "urn:uuid:33b7c0e7-079e-4b9a-b441-d07cab31d6df"
        }
      }
    },
    {
      "fullUrl": "urn:uuid:9233918b-7522-4cc4-8efb-8aec10101949",
      "resource": {
        "resourceType": "Observation",
        "id": "9233918b-7522-4cc4-8efb-8aec10101949",
        "meta": {
          "profile": [
            "http://hl7.eu/fhir/laboratory/StructureDefinition/Observation-resultslab-eu-lab"
          ]
        },
        "performer": [
          {
            "display": "The Central European Lab"
          }
        ],
        "category": [
          {
            "coding": [
              {
                "system": "http://terminology.hl7.org/CodeSystem/observation-category",
                "code": "laboratory"
              }
            ]
          }
        ],
        "code": {
          "coding": [
            {
              "code": "25428-4",
              "system": "http://loinc.org",
              "display": "Glucose [Presence] in Urine by Test strip"
            }
          ],
          "text": "Glucose [Presence] in Urine by Test strip"
        },
        "text": {
          "status": "generated",
          "div": "<div xmlns=\"http://www.w3.org/1999/xhtml\"><table class=\"hl7__eu__lab__report\"><tr><th>Test</th><th>03-Apr-2025</th><th>Reference&#xA0;Range</th><th>Unit</th></tr><tr><td>Glucose [Presence] in Urine by Test strip</td></tr></table></div>"
        },
        "status": "final",
        "subject": {
          "reference": "urn:uuid:428d6660-ebc8-45ea-aaef-5ce1a3c32068",
          "display": "Marthe Gallet"
        },
        "effectiveDateTime": "2025-04-03T19:05:43Z",
        "specimen": {
          "reference": "urn:uuid:33b7c0e7-079e-4b9a-b441-d07cab31d6df"
        }
      }
    },
    {
      "fullUrl": "urn:uuid:7f487b0b-58c2-4219-a9d6-c7c80ea30dab",
      "resource": {
        "resourceType": "Observation",
        "id": "7f487b0b-58c2-4219-a9d6-c7c80ea30dab",
        "meta": {
          "profile": [
            "http://hl7.eu/fhir/laboratory/StructureDefinition/Observation-resultslab-eu-lab"
          ]
        },
        "performer": [
          {
            "display": "The Central European Lab"
          }
        ],
        "category": [
          {
            "coding": [
              {
                "system": "http://terminology.hl7.org/CodeSystem/observation-category",
                "code": "laboratory"
              }
            ]
          }
        ],
        "code": {
          "coding": [
            {
              "code": "20505-4",
              "system": "http://loinc.org",
              "display": "Bilirubin.total [Mass/volume] in Urine by Test strip"
            }
          ],
          "text": "Bilirubin.total [Mass/volume] in Urine by Test strip"
        },
        "valueQuantity": {
          "system": "http://unitsofmeasure.org",
          "value": 1,
          "unit": "mg/dL",
          "code": "mg/dL"
        },
        "referenceRange": [
          {
            "low": {
              "value": 0,
              "code": "mg/dL",
              "system": "http://unitsofmeasure.org"
            }
          },
          {
            "high": {
              "value": 1,
              "code": "mg/dL",
              "system": "http://unitsofmeasure.org"
            }
          }
        ],
        "text": {
          "status": "generated",
          "div": "<div xmlns=\"http://www.w3.org/1999/xhtml\"><table class=\"hl7__eu__lab__report\"><tr><th>Test</th><th>03-Apr-2025</th><th>Reference&#xA0;Range</th><th>Unit</th></tr><tr><td>Bilirubin.total [Mass/volume] in Urine by Test strip</td><td>1.0</td><td>0 - 1</td><td></td><td>mg/dL</td></tr></table></div>"
        },
        "status": "final",
        "subject": {
          "reference": "urn:uuid:428d6660-ebc8-45ea-aaef-5ce1a3c32068",
          "display": "Marthe Gallet"
        },
        "effectiveDateTime": "2025-04-03T19:05:43Z",
        "specimen": {
          "reference": "urn:uuid:33b7c0e7-079e-4b9a-b441-d07cab31d6df"
        }
      }
    },
    {
      "fullUrl": "urn:uuid:c38f604b-6a42-460d-8f28-1022dda61c12",
      "resource": {
        "resourceType": "Observation",
        "id": "c38f604b-6a42-460d-8f28-1022dda61c12",
        "meta": {
          "profile": [
            "http://hl7.eu/fhir/laboratory/StructureDefinition/Observation-resultslab-eu-lab"
          ]
        },
        "performer": [
          {
            "display": "The Central European Lab"
          }
        ],
        "category": [
          {
            "coding": [
              {
                "system": "http://terminology.hl7.org/CodeSystem/observation-category",
                "code": "laboratory"
              }
            ]
          }
        ],
        "code": {
          "coding": [
            {
              "code": "5770-3",
              "system": "http://loinc.org",
              "display": "Bilirubin.total [Presence] in Urine by Test strip"
            }
          ],
          "text": "Bilirubin.total [Presence] in Urine by Test strip"
        },
        "text": {
          "status": "generated",
          "div": "<div xmlns=\"http://www.w3.org/1999/xhtml\"><table class=\"hl7__eu__lab__report\"><tr><th>Test</th><th>03-Apr-2025</th><th>Reference&#xA0;Range</th><th>Unit</th></tr><tr><td>Bilirubin.total [Presence] in Urine by Test strip</td></tr></table></div>"
        },
        "status": "final",
        "subject": {
          "reference": "urn:uuid:428d6660-ebc8-45ea-aaef-5ce1a3c32068",
          "display": "Marthe Gallet"
        },
        "effectiveDateTime": "2025-04-03T19:05:43Z",
        "specimen": {
          "reference": "urn:uuid:33b7c0e7-079e-4b9a-b441-d07cab31d6df"
        }
      }
    },
    {
      "fullUrl": "urn:uuid:6be77d3f-7e43-494c-a0c4-e59a5d3b04f5",
      "resource": {
        "resourceType": "Observation",
        "id": "6be77d3f-7e43-494c-a0c4-e59a5d3b04f5",
        "meta": {
          "profile": [
            "http://hl7.eu/fhir/laboratory/StructureDefinition/Observation-resultslab-eu-lab"
          ]
        },
        "performer": [
          {
            "display": "The Central European Lab"
          }
        ],
        "category": [
          {
            "coding": [
              {
                "system": "http://terminology.hl7.org/CodeSystem/observation-category",
                "code": "laboratory"
              }
            ]
          }
        ],
        "code": {
          "coding": [
            {
              "code": "5797-6",
              "system": "http://loinc.org",
              "display": "Ketones [Mass/volume] in Urine by Test strip"
            }
          ],
          "text": "Ketones [Mass/volume] in Urine by Test strip"
        },
        "valueQuantity": {
          "system": "http://unitsofmeasure.org",
          "value": 4.6,
          "unit": "mg/dL",
          "code": "mg/dL"
        },
        "referenceRange": [
          {
            "low": {
              "value": 0,
              "code": "mg/dL",
              "system": "http://unitsofmeasure.org"
            }
          },
          {
            "high": {
              "value": 20,
              "code": "mg/dL",
              "system": "http://unitsofmeasure.org"
            }
          }
        ],
        "text": {
          "status": "generated",
          "div": "<div xmlns=\"http://www.w3.org/1999/xhtml\"><table class=\"hl7__eu__lab__report\"><tr><th>Test</th><th>03-Apr-2025</th><th>Reference&#xA0;Range</th><th>Unit</th></tr><tr><td>Ketones [Mass/volume] in Urine by Test strip</td><td>4.6</td><td>0 - 20</td><td></td><td>mg/dL</td></tr></table></div>"
        },
        "status": "final",
        "subject": {
          "reference": "urn:uuid:428d6660-ebc8-45ea-aaef-5ce1a3c32068",
          "display": "Marthe Gallet"
        },
        "effectiveDateTime": "2025-04-03T19:05:43Z",
        "specimen": {
          "reference": "urn:uuid:33b7c0e7-079e-4b9a-b441-d07cab31d6df"
        }
      }
    },
    {
      "fullUrl": "urn:uuid:2856671f-355b-45ef-942e-9d7c86d84f4d",
      "resource": {
        "resourceType": "Observation",
        "id": "2856671f-355b-45ef-942e-9d7c86d84f4d",
        "meta": {
          "profile": [
            "http://hl7.eu/fhir/laboratory/StructureDefinition/Observation-resultslab-eu-lab"
          ]
        },
        "performer": [
          {
            "display": "The Central European Lab"
          }
        ],
        "category": [
          {
            "coding": [
              {
                "system": "http://terminology.hl7.org/CodeSystem/observation-category",
                "code": "laboratory"
              }
            ]
          }
        ],
        "code": {
          "coding": [
            {
              "code": "2514-8",
              "system": "http://loinc.org",
              "display": "Ketones [Presence] in Urine by Test strip"
            }
          ],
          "text": "Ketones [Presence] in Urine by Test strip"
        },
        "text": {
          "status": "generated",
          "div": "<div xmlns=\"http://www.w3.org/1999/xhtml\"><table class=\"hl7__eu__lab__report\"><tr><th>Test</th><th>03-Apr-2025</th><th>Reference&#xA0;Range</th><th>Unit</th></tr><tr><td>Ketones [Presence] in Urine by Test strip</td></tr></table></div>"
        },
        "status": "final",
        "subject": {
          "reference": "urn:uuid:428d6660-ebc8-45ea-aaef-5ce1a3c32068",
          "display": "Marthe Gallet"
        },
        "effectiveDateTime": "2025-04-03T19:05:43Z",
        "specimen": {
          "reference": "urn:uuid:33b7c0e7-079e-4b9a-b441-d07cab31d6df"
        }
      }
    },
    {
      "fullUrl": "urn:uuid:89ea9b9f-f4bc-4a85-a53b-ff36f7f19321",
      "resource": {
        "resourceType": "Observation",
        "id": "89ea9b9f-f4bc-4a85-a53b-ff36f7f19321",
        "meta": {
          "profile": [
            "http://hl7.eu/fhir/laboratory/StructureDefinition/Observation-resultslab-eu-lab"
          ]
        },
        "performer": [
          {
            "display": "The Central European Lab"
          }
        ],
        "category": [
          {
            "coding": [
              {
                "system": "http://terminology.hl7.org/CodeSystem/observation-category",
                "code": "laboratory"
              }
            ]
          }
        ],
        "code": {
          "coding": [
            {
              "code": "5811-5",
              "system": "http://loinc.org",
              "display": "Specific gravity of Urine by Test strip"
            }
          ],
          "text": "Specific gravity of Urine by Test strip"
        },
        "valueQuantity": {
          "system": "http://unitsofmeasure.org",
          "value": 1,
          "unit": "{nominal}",
          "code": "{nominal}"
        },
        "referenceRange": [
          {
            "low": {
              "value": 1.01,
              "code": "g/mL",
              "system": "http://unitsofmeasure.org"
            }
          },
          {
            "high": {
              "value": 1.03,
              "code": "g/mL",
              "system": "http://unitsofmeasure.org"
            }
          }
        ],
        "interpretation": [
          {
            "coding": [
              {
                "code": "L",
                "system": "http://terminology.hl7.org/CodeSystem/v3-ObservationInterpretation",
                "display": "Low"
              }
            ]
          }
        ],
        "text": {
          "status": "generated",
          "div": "<div xmlns=\"http://www.w3.org/1999/xhtml\"><table class=\"hl7__eu__lab__report\"><tr><th>Test</th><th>03-Apr-2025</th><th>Reference&#xA0;Range</th><th>Unit</th></tr><tr><td>Specific gravity of Urine by Test strip</td><td>1.0</td><td>1.01 - 1.03</td><td>L</td><td>{nominal}</td></tr></table></div>"
        },
        "status": "final",
        "subject": {
          "reference": "urn:uuid:428d6660-ebc8-45ea-aaef-5ce1a3c32068",
          "display": "Marthe Gallet"
        },
        "effectiveDateTime": "2025-04-03T19:05:43Z",
        "specimen": {
          "reference": "urn:uuid:33b7c0e7-079e-4b9a-b441-d07cab31d6df"
        }
      }
    },
    {
      "fullUrl": "urn:uuid:4b8ff4d5-bd87-45eb-85fe-49efe90e4ac2",
      "resource": {
        "resourceType": "Observation",
        "id": "4b8ff4d5-bd87-45eb-85fe-49efe90e4ac2",
        "meta": {
          "profile": [
            "http://hl7.eu/fhir/laboratory/StructureDefinition/Observation-resultslab-eu-lab"
          ]
        },
        "performer": [
          {
            "display": "The Central European Lab"
          }
        ],
        "category": [
          {
            "coding": [
              {
                "system": "http://terminology.hl7.org/CodeSystem/observation-category",
                "code": "laboratory"
              }
            ]
          }
        ],
        "code": {
          "coding": [
            {
              "code": "5803-2",
              "system": "http://loinc.org",
              "display": "pH of Urine by Test strip"
            }
          ],
          "text": "pH of Urine by Test strip"
        },
        "valueQuantity": {
          "system": "http://unitsofmeasure.org",
          "value": 7,
          "unit": "pH",
          "code": "pH"
        },
        "referenceRange": [
          {
            "low": {
              "value": 4.6,
              "code": "pH",
              "system": "http://unitsofmeasure.org"
            }
          },
          {
            "high": {
              "value": 7,
              "code": "pH",
              "system": "http://unitsofmeasure.org"
            }
          }
        ],
        "text": {
          "status": "generated",
          "div": "<div xmlns=\"http://www.w3.org/1999/xhtml\"><table class=\"hl7__eu__lab__report\"><tr><th>Test</th><th>03-Apr-2025</th><th>Reference&#xA0;Range</th><th>Unit</th></tr><tr><td>pH of Urine by Test strip</td><td>7.0</td><td>4.6 - 7</td><td></td><td>pH</td></tr></table></div>"
        },
        "status": "final",
        "subject": {
          "reference": "urn:uuid:428d6660-ebc8-45ea-aaef-5ce1a3c32068",
          "display": "Marthe Gallet"
        },
        "effectiveDateTime": "2025-04-03T19:05:43Z",
        "specimen": {
          "reference": "urn:uuid:33b7c0e7-079e-4b9a-b441-d07cab31d6df"
        }
      }
    },
    {
      "fullUrl": "urn:uuid:ccb837cf-0897-4a1d-b425-afce11462e91",
      "resource": {
        "resourceType": "Observation",
        "id": "ccb837cf-0897-4a1d-b425-afce11462e91",
        "meta": {
          "profile": [
            "http://hl7.eu/fhir/laboratory/StructureDefinition/Observation-resultslab-eu-lab"
          ]
        },
        "performer": [
          {
            "display": "The Central European Lab"
          }
        ],
        "category": [
          {
            "coding": [
              {
                "system": "http://terminology.hl7.org/CodeSystem/observation-category",
                "code": "laboratory"
              }
            ]
          }
        ],
        "code": {
          "coding": [
            {
              "code": "5804-0",
              "system": "http://loinc.org",
              "display": "Protein [Mass/volume] in Urine by Test strip"
            }
          ],
          "text": "Protein [Mass/volume] in Urine by Test strip"
        },
        "valueQuantity": {
          "system": "http://unitsofmeasure.org",
          "value": 261.3,
          "unit": "mg/dL",
          "code": "mg/dL"
        },
        "referenceRange": [
          {
            "low": {
              "value": 0,
              "code": "mg/dL",
              "system": "http://unitsofmeasure.org"
            }
          },
          {
            "high": {
              "value": 15,
              "code": "mg/dL",
              "system": "http://unitsofmeasure.org"
            }
          }
        ],
        "interpretation": [
          {
            "coding": [
              {
                "code": "H",
                "system": "http://terminology.hl7.org/CodeSystem/v3-ObservationInterpretation",
                "display": "High"
              }
            ]
          }
        ],
        "text": {
          "status": "generated",
          "div": "<div xmlns=\"http://www.w3.org/1999/xhtml\"><table class=\"hl7__eu__lab__report\"><tr><th>Test</th><th>03-Apr-2025</th><th>Reference&#xA0;Range</th><th>Unit</th></tr><tr><td>Protein [Mass/volume] in Urine by Test strip</td><td>261.3</td><td>0 - 15</td><td>H</td><td>mg/dL</td></tr></table></div>"
        },
        "status": "final",
        "subject": {
          "reference": "urn:uuid:428d6660-ebc8-45ea-aaef-5ce1a3c32068",
          "display": "Marthe Gallet"
        },
        "effectiveDateTime": "2025-04-03T19:05:43Z",
        "specimen": {
          "reference": "urn:uuid:33b7c0e7-079e-4b9a-b441-d07cab31d6df"
        }
      }
    },
    {
      "fullUrl": "urn:uuid:7c52d105-4cf7-484a-aa67-391661ac6cdd",
      "resource": {
        "resourceType": "Observation",
        "id": "7c52d105-4cf7-484a-aa67-391661ac6cdd",
        "meta": {
          "profile": [
            "http://hl7.eu/fhir/laboratory/StructureDefinition/Observation-resultslab-eu-lab"
          ]
        },
        "performer": [
          {
            "display": "The Central European Lab"
          }
        ],
        "category": [
          {
            "coding": [
              {
                "system": "http://terminology.hl7.org/CodeSystem/observation-category",
                "code": "laboratory"
              }
            ]
          }
        ],
        "code": {
          "coding": [
            {
              "code": "20454-5",
              "system": "http://loinc.org",
              "display": "Protein [Presence] in Urine by Test strip"
            }
          ],
          "text": "Protein [Presence] in Urine by Test strip"
        },
        "text": {
          "status": "generated",
          "div": "<div xmlns=\"http://www.w3.org/1999/xhtml\"><table class=\"hl7__eu__lab__report\"><tr><th>Test</th><th>03-Apr-2025</th><th>Reference&#xA0;Range</th><th>Unit</th></tr><tr><td>Protein [Presence] in Urine by Test strip</td></tr></table></div>"
        },
        "status": "final",
        "subject": {
          "reference": "urn:uuid:428d6660-ebc8-45ea-aaef-5ce1a3c32068",
          "display": "Marthe Gallet"
        },
        "effectiveDateTime": "2025-04-03T19:05:43Z",
        "specimen": {
          "reference": "urn:uuid:33b7c0e7-079e-4b9a-b441-d07cab31d6df"
        }
      }
    },
    {
      "fullUrl": "urn:uuid:527c077c-9ee4-4c75-a731-a7d933c23917",
      "resource": {
        "resourceType": "Observation",
        "id": "527c077c-9ee4-4c75-a731-a7d933c23917",
        "meta": {
          "profile": [
            "http://hl7.eu/fhir/laboratory/StructureDefinition/Observation-resultslab-eu-lab"
          ]
        },
        "performer": [
          {
            "display": "The Central European Lab"
          }
        ],
        "category": [
          {
            "coding": [
              {
                "system": "http://terminology.hl7.org/CodeSystem/observation-category",
                "code": "laboratory"
              }
            ]
          }
        ],
        "code": {
          "coding": [
            {
              "code": "5802-4",
              "system": "http://loinc.org",
              "display": "Nitrite [Presence] in Urine by Test strip"
            }
          ],
          "text": "Nitrite [Presence] in Urine by Test strip"
        },
        "text": {
          "status": "generated",
          "div": "<div xmlns=\"http://www.w3.org/1999/xhtml\"><table class=\"hl7__eu__lab__report\"><tr><th>Test</th><th>03-Apr-2025</th><th>Reference&#xA0;Range</th><th>Unit</th></tr><tr><td>Nitrite [Presence] in Urine by Test strip</td></tr></table></div>"
        },
        "status": "final",
        "subject": {
          "reference": "urn:uuid:428d6660-ebc8-45ea-aaef-5ce1a3c32068",
          "display": "Marthe Gallet"
        },
        "effectiveDateTime": "2025-04-03T19:05:43Z",
        "specimen": {
          "reference": "urn:uuid:33b7c0e7-079e-4b9a-b441-d07cab31d6df"
        }
      }
    },
    {
      "fullUrl": "urn:uuid:a59772e7-085a-4e3a-9abd-2fe823a9518e",
      "resource": {
        "resourceType": "Observation",
        "id": "a59772e7-085a-4e3a-9abd-2fe823a9518e",
        "meta": {
          "profile": [
            "http://hl7.eu/fhir/laboratory/StructureDefinition/Observation-resultslab-eu-lab"
          ]
        },
        "performer": [
          {
            "display": "The Central European Lab"
          }
        ],
        "category": [
          {
            "coding": [
              {
                "system": "http://terminology.hl7.org/CodeSystem/observation-category",
                "code": "laboratory"
              }
            ]
          }
        ],
        "code": {
          "coding": [
            {
              "code": "5794-3",
              "system": "http://loinc.org",
              "display": "Hemoglobin [Presence] in Urine by Test strip"
            }
          ],
          "text": "Hemoglobin [Presence] in Urine by Test strip"
        },
        "text": {
          "status": "generated",
          "div": "<div xmlns=\"http://www.w3.org/1999/xhtml\"><table class=\"hl7__eu__lab__report\"><tr><th>Test</th><th>03-Apr-2025</th><th>Reference&#xA0;Range</th><th>Unit</th></tr><tr><td>Hemoglobin [Presence] in Urine by Test strip</td></tr></table></div>"
        },
        "status": "final",
        "subject": {
          "reference": "urn:uuid:428d6660-ebc8-45ea-aaef-5ce1a3c32068",
          "display": "Marthe Gallet"
        },
        "effectiveDateTime": "2025-04-03T19:05:43Z",
        "specimen": {
          "reference": "urn:uuid:33b7c0e7-079e-4b9a-b441-d07cab31d6df"
        }
      }
    },
    {
      "fullUrl": "urn:uuid:6a50defd-c4ae-4c9c-9f5e-3eabc494cac3",
      "resource": {
        "resourceType": "Observation",
        "id": "6a50defd-c4ae-4c9c-9f5e-3eabc494cac3",
        "meta": {
          "profile": [
            "http://hl7.eu/fhir/laboratory/StructureDefinition/Observation-resultslab-eu-lab"
          ]
        },
        "performer": [
          {
            "display": "The Central European Lab"
          }
        ],
        "category": [
          {
            "coding": [
              {
                "system": "http://terminology.hl7.org/CodeSystem/observation-category",
                "code": "laboratory"
              }
            ]
          }
        ],
        "code": {
          "coding": [
            {
              "code": "5799-2",
              "system": "http://loinc.org",
              "display": "Leukocyte esterase [Presence] in Urine by Test strip"
            }
          ],
          "text": "Leukocyte esterase [Presence] in Urine by Test strip"
        },
        "text": {
          "status": "generated",
          "div": "<div xmlns=\"http://www.w3.org/1999/xhtml\"><table class=\"hl7__eu__lab__report\"><tr><th>Test</th><th>03-Apr-2025</th><th>Reference&#xA0;Range</th><th>Unit</th></tr><tr><td>Leukocyte esterase [Presence] in Urine by Test strip</td></tr></table></div>"
        },
        "status": "final",
        "subject": {
          "reference": "urn:uuid:428d6660-ebc8-45ea-aaef-5ce1a3c32068",
          "display": "Marthe Gallet"
        },
        "effectiveDateTime": "2025-04-03T19:05:43Z",
        "specimen": {
          "reference": "urn:uuid:33b7c0e7-079e-4b9a-b441-d07cab31d6df"
        }
      }
    },
    {
      "fullUrl": "urn:uuid:e80576c1-bc12-4866-8aa3-7ee816cb5bae",
      "resource": {
        "resourceType": "Observation",
        "id": "e80576c1-bc12-4866-8aa3-7ee816cb5bae",
        "meta": {
          "profile": [
            "http://hl7.eu/fhir/laboratory/StructureDefinition/Observation-resultslab-eu-lab"
          ]
        },
        "performer": [
          {
            "display": "The Central European Lab"
          }
        ],
        "category": [
          {
            "coding": [
              {
                "system": "http://terminology.hl7.org/CodeSystem/observation-category",
                "code": "laboratory"
              }
            ]
          }
        ],
        "code": {
          "coding": [
            {
              "code": "2093-3",
              "system": "http://loinc.org",
              "display": "Cholesterol [Mass/volume] in Serum or Plasma"
            }
          ],
          "text": "Cholesterol [Mass/volume] in Serum or Plasma"
        },
        "valueQuantity": {
          "system": "http://unitsofmeasure.org",
          "value": 147.4,
          "unit": "mg/dL",
          "code": "mg/dL"
        },
        "referenceRange": [
          {
            "low": {
              "value": 125,
              "code": "mg/dL",
              "system": "http://unitsofmeasure.org"
            }
          },
          {
            "high": {
              "value": 200,
              "code": "mg/dL",
              "system": "http://unitsofmeasure.org"
            }
          }
        ],
        "text": {
          "status": "generated",
          "div": "<div xmlns=\"http://www.w3.org/1999/xhtml\"><table class=\"hl7__eu__lab__report\"><tr><th>Test</th><th>03-Apr-2025</th><th>Reference&#xA0;Range</th><th>Unit</th></tr><tr><td>Cholesterol [Mass/volume] in Serum or Plasma</td><td>147.4</td><td>125 - 200</td><td></td><td>mg/dL</td></tr></table></div>"
        },
        "status": "final",
        "subject": {
          "reference": "urn:uuid:428d6660-ebc8-45ea-aaef-5ce1a3c32068",
          "display": "Marthe Gallet"
        },
        "effectiveDateTime": "2025-04-03T19:05:43Z",
        "specimen": {
          "reference": "urn:uuid:1784dfb3-733c-4aff-9fb8-94d4bd4c004c"
        }
      }
    },
    {
      "fullUrl": "urn:uuid:f5fd95ad-fa60-4157-a9c6-9bc2570e8a0f",
      "resource": {
        "resourceType": "Observation",
        "id": "f5fd95ad-fa60-4157-a9c6-9bc2570e8a0f",
        "meta": {
          "profile": [
            "http://hl7.eu/fhir/laboratory/StructureDefinition/Observation-resultslab-eu-lab"
          ]
        },
        "performer": [
          {
            "display": "The Central European Lab"
          }
        ],
        "category": [
          {
            "coding": [
              {
                "system": "http://terminology.hl7.org/CodeSystem/observation-category",
                "code": "laboratory"
              }
            ]
          }
        ],
        "code": {
          "coding": [
            {
              "code": "2571-8",
              "system": "http://loinc.org",
              "display": "Triglyceride [Mass/volume] in Serum or Plasma"
            }
          ],
          "text": "Triglyceride [Mass/volume] in Serum or Plasma"
        },
        "valueQuantity": {
          "system": "http://unitsofmeasure.org",
          "value": 125.9,
          "unit": "mg/dL",
          "code": "mg/dL"
        },
        "referenceRange": [
          {
            "low": {
              "value": 10,
              "code": "mg/dL",
              "system": "http://unitsofmeasure.org"
            }
          },
          {
            "high": {
              "value": 175,
              "code": "mg/dL",
              "system": "http://unitsofmeasure.org"
            }
          }
        ],
        "text": {
          "status": "generated",
          "div": "<div xmlns=\"http://www.w3.org/1999/xhtml\"><table class=\"hl7__eu__lab__report\"><tr><th>Test</th><th>03-Apr-2025</th><th>Reference&#xA0;Range</th><th>Unit</th></tr><tr><td>Triglyceride [Mass/volume] in Serum or Plasma</td><td>125.9</td><td>10 - 175</td><td></td><td>mg/dL</td></tr></table></div>"
        },
        "status": "final",
        "subject": {
          "reference": "urn:uuid:428d6660-ebc8-45ea-aaef-5ce1a3c32068",
          "display": "Marthe Gallet"
        },
        "effectiveDateTime": "2025-04-03T19:05:43Z",
        "specimen": {
          "reference": "urn:uuid:1784dfb3-733c-4aff-9fb8-94d4bd4c004c"
        }
      }
    },
    {
      "fullUrl": "urn:uuid:96d99a5e-8f5c-4874-9cfc-f5f465ea1bcf",
      "resource": {
        "resourceType": "Observation",
        "id": "96d99a5e-8f5c-4874-9cfc-f5f465ea1bcf",
        "meta": {
          "profile": [
            "http://hl7.eu/fhir/laboratory/StructureDefinition/Observation-resultslab-eu-lab"
          ]
        },
        "performer": [
          {
            "display": "The Central European Lab"
          }
        ],
        "category": [
          {
            "coding": [
              {
                "system": "http://terminology.hl7.org/CodeSystem/observation-category",
                "code": "laboratory"
              }
            ]
          }
        ],
        "code": {
          "coding": [
            {
              "code": "18262-6",
              "system": "http://loinc.org",
              "display": "Cholesterol in LDL [Mass/volume] in Serum or Plasma by Direct assay"
            }
          ],
          "text": "Cholesterol in LDL [Mass/volume] in Serum or Plasma by Direct assay"
        },
        "valueQuantity": {
          "system": "http://unitsofmeasure.org",
          "value": 66.5,
          "unit": "mg/dL",
          "code": "mg/dL"
        },
        "referenceRange": [
          {
            "low": {
              "value": 0,
              "code": "mg/dL",
              "system": "http://unitsofmeasure.org"
            }
          },
          {
            "high": {
              "value": 130,
              "code": "mg/dL",
              "system": "http://unitsofmeasure.org"
            }
          }
        ],
        "text": {
          "status": "generated",
          "div": "<div xmlns=\"http://www.w3.org/1999/xhtml\"><table class=\"hl7__eu__lab__report\"><tr><th>Test</th><th>03-Apr-2025</th><th>Reference&#xA0;Range</th><th>Unit</th></tr><tr><td>Cholesterol in LDL [Mass/volume] in Serum or Plasma by Direct assay</td><td>66.5</td><td>0 - 130</td><td></td><td>mg/dL</td></tr></table></div>"
        },
        "status": "final",
        "subject": {
          "reference": "urn:uuid:428d6660-ebc8-45ea-aaef-5ce1a3c32068",
          "display": "Marthe Gallet"
        },
        "effectiveDateTime": "2025-04-03T19:05:43Z",
        "specimen": {
          "reference": "urn:uuid:1784dfb3-733c-4aff-9fb8-94d4bd4c004c"
        }
      }
    },
    {
      "fullUrl": "urn:uuid:df846bb1-b052-4727-98b8-be1e0c6ec9a1",
      "resource": {
        "resourceType": "Observation",
        "id": "df846bb1-b052-4727-98b8-be1e0c6ec9a1",
        "meta": {
          "profile": [
            "http://hl7.eu/fhir/laboratory/StructureDefinition/Observation-resultslab-eu-lab"
          ]
        },
        "performer": [
          {
            "display": "The Central European Lab"
          }
        ],
        "category": [
          {
            "coding": [
              {
                "system": "http://terminology.hl7.org/CodeSystem/observation-category",
                "code": "laboratory"
              }
            ]
          }
        ],
        "code": {
          "coding": [
            {
              "code": "2085-9",
              "system": "http://loinc.org",
              "display": "Cholesterol in HDL [Mass/volume] in Serum or Plasma"
            }
          ],
          "text": "Cholesterol in HDL [Mass/volume] in Serum or Plasma"
        },
        "valueQuantity": {
          "system": "http://unitsofmeasure.org",
          "value": 55.7,
          "unit": "mg/dL",
          "code": "mg/dL"
        },
        "referenceRange": [
          {
            "low": {
              "value": 40,
              "code": "mg/dL",
              "system": "http://unitsofmeasure.org"
            }
          },
          {
            "high": {
              "value": 100,
              "code": "mg/dL",
              "system": "http://unitsofmeasure.org"
            }
          }
        ],
        "text": {
          "status": "generated",
          "div": "<div xmlns=\"http://www.w3.org/1999/xhtml\"><table class=\"hl7__eu__lab__report\"><tr><th>Test</th><th>03-Apr-2025</th><th>Reference&#xA0;Range</th><th>Unit</th></tr><tr><td>Cholesterol in HDL [Mass/volume] in Serum or Plasma</td><td>55.7</td><td>40 - 100</td><td></td><td>mg/dL</td></tr></table></div>"
        },
        "status": "final",
        "subject": {
          "reference": "urn:uuid:428d6660-ebc8-45ea-aaef-5ce1a3c32068",
          "display": "Marthe Gallet"
        },
        "effectiveDateTime": "2025-04-03T19:05:43Z",
        "specimen": {
          "reference": "urn:uuid:1784dfb3-733c-4aff-9fb8-94d4bd4c004c"
        }
      }
    },
    {
      "fullUrl": "urn:uuid:8407ab13-326c-4515-96a3-a50c800bfbd8",
      "resource": {
        "resourceType": "Device",
        "id": "8407ab13-326c-4515-96a3-a50c800bfbd8",
        "deviceName": [
          {
            "name": "SYNDERAI Synthetic Generator",
            "type": "manufacturer-name"
          }
        ],
        "version": [
          {
            "value": "5.0"
          }
        ],
        "text": {
          "status": "generated",
          "div": "<div xmlns=\"http://www.w3.org/1999/xhtml\">SYNDERAI Synthetic Generator v5.0</div>"
        },
        "status": "active\"",
        "distinctIdentifier": "synderai-generator-50",
        "manufacturer": "SYNDERAI Project"
      }
    },
    {
      "fullUrl": "urn:uuid:6995715d-914d-4f3c-81ef-93866cec793c",
      "resource": {
        "resourceType": "Provenance",
        "id": "6995715d-914d-4f3c-81ef-93866cec793c",
        "target": [
          {
            "reference": "Patient/428d6660-ebc8-45ea-aaef-5ce1a3c32068"
          },
          {
            "reference": "Bundle/ecb229e6-8f1e-44df-a1d1-971e491ef00f"
          },
          {
            "reference": "Composition/5a4b51a6-63c4-4ee1-9a24-1ff18fbd17a0"
          },
          {
            "reference": "PractitionerRole/fd17ddf5-118a-45d6-ad35-5b8508d53221"
          },
          {
            "reference": "Practitioner/40984326-032a-4bc0-97b3-69b8005f1d2e"
          },
          {
            "reference": "PractitionerRole/d3445c80-954e-4afa-84ed-7f34aa633d02"
          },
          {
            "reference": "Organization/1bc3584b-f3b7-4365-ad7d-a5784c7a2fc2"
          }
        ],
        "activity": {
          "text": "Synthetic Example Data Generation"
        },
        "policy": [
          "https://synderai.net/synderai-synthetic-data-policy"
        ],
        "agent": [
          {
            "type": {
              "text": "author"
            },
            "who": {
              "reference": "Device/8407ab13-326c-4515-96a3-a50c800bfbd8"
            }
          }
        ],
        "reason": [
          {
            "text": "Interoperability Testing and Training (non-clinical use)"
          }
        ],
        "text": {
          "status": "generated",
          "div": "<div xmlns=\"http://www.w3.org/1999/xhtml\">Provenance for SYNDERAI Synthetic Example Data Resource</div>"
        },
        "recorded": "2025-04-03T21:05:43Z"
      }
    },
    {
      "fullUrl": "urn:uuid:fd17ddf5-118a-45d6-ad35-5b8508d53221",
      "resource": {
        "resourceType": "PractitionerRole",
        "id": "fd17ddf5-118a-45d6-ad35-5b8508d53221",
        "meta": {
          "profile": [
            "http://hl7.eu/fhir/base/StructureDefinition/practitionerRole-eu"
          ]
        },
        "text": {
          "status": "generated",
          "div": "<div xmlns=\"http://www.w3.org/1999/xhtml\">Laboratory Role Id: fd17ddf5-118a-45d6-ad35-5b8508d53221</div>"
        },
        "practitioner": {
          "reference": "urn:uuid:40984326-032a-4bc0-97b3-69b8005f1d2e"
        }
      }
    },
    {
      "fullUrl": "urn:uuid:40984326-032a-4bc0-97b3-69b8005f1d2e",
      "resource": {
        "resourceType": "Practitioner",
        "id": "40984326-032a-4bc0-97b3-69b8005f1d2e",
        "meta": {
          "profile": [
            "http://hl7.eu/fhir/base/StructureDefinition/practitioner-eu"
          ]
        },
        "identifier": [
          {
            "assigner": {
              "display": "HL7 Europe"
            },
            "system": "urn:oid:2.16.840.1.113883.2.51.999",
            "value": "3b2d6c21-a71c-4446-a6e7-c953d594584b"
          }
        ],
        "name": [
          {
            "prefix": [
              "dr"
            ],
            "given": [
              "Ex"
            ],
            "family": "Ample"
          }
        ],
        "address": [
          {
            "line": [
              "Laboratoire Central Europenne",
              "Boulevard du Jardin Botanique 32"
            ],
            "postalCode": "1000",
            "city": "Brussels",
            "country": "Belgium"
          }
        ],
        "text": {
          "status": "generated",
          "div": "<div xmlns=\"http://www.w3.org/1999/xhtml\">Laboratory: Laboratoire Central Europenne, 1000 Brussels, Belgium</div>"
        }
      }
    }
  ],
  "type": "document",
  "timestamp": "2025-04-03T21:05:43Z"
}
