{
  "resourceType": "Bundle",
  "id": "68f9d4d4-b80c-4464-b903-5bb218695214",
  "meta": {
    "profile": [
      "http://hl7.eu/fhir/laboratory/StructureDefinition/Bundle-eu-lab"
    ]
  },
  "identifier": {
    "assigner": {
      "display": "HL7 Europe"
    },
    "system": "urn:oid:2.16.840.1.113883.2.51.999",
    "value": "c07c6511-4688-4b2d-90fa-25e1527907b6"
  },
  "entry": [
    {
      "fullUrl": "urn:uuid:3a353d2e-dfae-46f1-88b7-fec88f13dce5",
      "resource": {
        "resourceType": "Composition",
        "id": "3a353d2e-dfae-46f1-88b7-fec88f13dce5",
        "meta": {
          "profile": [
            "http://hl7.eu/fhir/laboratory/StructureDefinition/Composition-eu-lab"
          ]
        },
        "identifier": {
          "assigner": {
            "display": "HL7 Europe"
          },
          "system": "urn:oid:2.16.840.1.113883.2.51.999",
          "value": "cfa39553-2eb6-457b-a5f2-ac1c3df1f6f3"
        },
        "author": [
          {
            "reference": "urn:uuid:1047f655-9bf9-4fc7-80df-8232d9d75dab"
          }
        ],
        "category": [
          {
            "coding": [
              {
                "code": "26436-6",
                "system": "http://loinc.org",
                "display": "Laboratory studies (set)"
              }
            ]
          }
        ],
        "type": {
          "coding": [
            {
              "code": "11502-2",
              "system": "http://loinc.org",
              "display": "Laboratory report"
            }
          ],
          "text": "Laboratory Report"
        },
        "section": [
          {
            "code": {
              "coding": [
                {
                  "code": "26436-6",
                  "system": "http://loinc.org",
                  "display": "Laboratory studies (set)"
                }
              ],
              "text": "Laboratory studies"
            },
            "section": [
              {
                "code": {
                  "coding": [
                    {
                      "code": "$18723-7",
                      "system": "http://loinc.org",
                      "display": "Hematology studies (set)"
                    }
                  ],
                  "text": "Hematology"
                },
                "entry": [
                  {
                    "reference": "urn:uuid:c0671a66-ee5f-4354-b179-0004da9f1f85"
                  },
                  {
                    "reference": "urn:uuid:a13c9bc9-cd11-4e6e-b92e-c65d8c627374"
                  },
                  {
                    "reference": "urn:uuid:408e7552-120e-4513-9612-da05692224da"
                  },
                  {
                    "reference": "urn:uuid:0901eb22-8fe3-40ba-9f91-501dee185ffb"
                  },
                  {
                    "reference": "urn:uuid:1f4054b6-bf18-4c95-acc8-7c21fa9b2be4"
                  },
                  {
                    "reference": "urn:uuid:4eee96b1-46d9-40cb-a45e-d7007b2fd41e"
                  },
                  {
                    "reference": "urn:uuid:37cf336b-3a81-45aa-8258-7e4f654b02ce"
                  },
                  {
                    "reference": "urn:uuid:885a891d-51a5-4280-9960-035c9d346362"
                  },
                  {
                    "reference": "urn:uuid:71ec5e56-e129-4d2b-a534-b44696f38f50"
                  },
                  {
                    "reference": "urn:uuid:cd8a9396-d649-45b8-97c6-784d9c689b1b"
                  },
                  {
                    "reference": "urn:uuid:59d004d8-6c96-44d4-9e56-c1f7aca00134"
                  }
                ],
                "text": {
                  "status": "generated",
                  "div": "<div xmlns=\"http://www.w3.org/1999/xhtml\"><h3>Hematology</h3><table class=\"hl7__eu__lab__report\"><thead><tr><th>Test</th><th>03-MAY-2021</th><th>Reference&#xA0;Range</th><th>Unit</th></tr></thead><tbody><tr><td>Leukocytes [#/volume] in Blood by Automated count</td><td>4.1</td><td>3.5 - 10.5</td><td>10*3/uL</td></tr><tr><td>Erythrocytes [#/volume] in Blood by Automated count</td><td>5.2</td><td>4.5 - 5.7</td><td>10*6/uL</td></tr><tr><td>Hemoglobin [Mass/volume] in Blood</td><td>16.5</td><td>13.5 - 17.5</td><td>g/dL</td></tr><tr><td>Hematocrit [Volume Fraction] of Blood by Automated count</td><td>46.0</td><td>38 - 50</td><td>%</td></tr><tr><td>MCV [Entitic volume] by Automated count</td><td>89.3</td><td>76 - 98</td><td>fL</td></tr><tr><td>MCH [Entitic mass] by Automated count</td><td>29.7</td><td>27 - 33</td><td>pg</td></tr><tr><td>MCHC [Mass/volume] by Automated count</td><td>33.3</td><td>31 - 35</td><td>g/dL</td></tr><tr><td>Erythrocyte distribution width [Entitic volume] by Automated count</td><td>41.1</td><td>36 - 55</td><td>fL</td></tr><tr><td>Platelets [#/volume] in Blood by Automated count</td><td>172.2</td><td>140 - 363</td><td>10*3/uL</td></tr><tr><td>Platelet distribution width [Entitic volume] in Blood by Automated count</td><td><strong>440.4 H</strong></td><td>11.6 - 17.4</td><td>fL</td></tr><tr><td>Platelet mean volume [Entitic volume] in Blood by Automated count</td><td>10.2</td><td>9.8 - 13.8</td><td>fL</td></tr></tbody></table></div>"
                },
                "title": "Hematology"
              },
              {
                "code": {
                  "coding": [
                    {
                      "code": "$18719-5",
                      "system": "http://loinc.org",
                      "display": "Chemistry studies (set)"
                    }
                  ],
                  "text": "Chemistry"
                },
                "entry": [
                  {
                    "reference": "urn:uuid:0ea46443-c534-4ca4-a6b5-82579fb38df4"
                  },
                  {
                    "reference": "urn:uuid:7a695517-ebb5-42aa-976d-f1f483b17440"
                  },
                  {
                    "reference": "urn:uuid:eb317bd6-e21c-4363-ab76-7d5f5dd42e0f"
                  },
                  {
                    "reference": "urn:uuid:0b165e98-6c09-4678-91cc-cc9ce59d32db"
                  },
                  {
                    "reference": "urn:uuid:f8531a6f-a936-4f7e-8807-09c4b07918a9"
                  },
                  {
                    "reference": "urn:uuid:f4e55d15-7805-4762-a66b-f9ecf55d9aaa"
                  },
                  {
                    "reference": "urn:uuid:9be4032f-9083-415f-a847-0926ecb88ed4"
                  },
                  {
                    "reference": "urn:uuid:ea0cd073-9966-4d8e-96e3-a053a4cd9619"
                  },
                  {
                    "reference": "urn:uuid:63644b69-7555-4265-99e9-819906a2cef6"
                  },
                  {
                    "reference": "urn:uuid:15e9c9ea-e767-4b38-ba73-6bb41f524607"
                  },
                  {
                    "reference": "urn:uuid:8f652278-81d2-42c7-9365-54107d012800"
                  },
                  {
                    "reference": "urn:uuid:74137968-7259-47cc-a4c1-802868381aa1"
                  },
                  {
                    "reference": "urn:uuid:6bba610d-2b8b-47e9-a32e-01e6c7301ced"
                  },
                  {
                    "reference": "urn:uuid:27c60412-3ad7-4035-8c13-11b91182d1d0"
                  }
                ],
                "text": {
                  "status": "generated",
                  "div": "<div xmlns=\"http://www.w3.org/1999/xhtml\"><h3>Chemistry</h3><table class=\"hl7__eu__lab__report\"><thead><tr><th>Test</th><th>03-MAY-2021</th><th>Reference&#xA0;Range</th><th>Unit</th></tr></thead><tbody><tr><td>Hemoglobin A1c/Hemoglobin.total in Blood</td><td><strong>6.9 H</strong></td><td>4.8 - 5.7</td><td>%</td></tr><tr><td>Glucose [Mass/volume] in Blood</td><td>102.1</td><td>70 - 140</td><td>mg/dL</td></tr><tr><td>Urea nitrogen [Mass/volume] in Blood</td><td>10.2</td><td>7 - 20</td><td>mg/dL</td></tr><tr><td>Creatinine [Mass/volume] in Blood</td><td>0.8</td><td>0.6 - 1.3</td><td>mg/dL</td></tr><tr><td>Calcium [Mass/volume] in Blood</td><td>9.4</td><td>8.5 - 10.5</td><td>mg/dL</td></tr><tr><td>Sodium [Moles/volume] in Blood</td><td>140.2</td><td>135 - 145</td><td>mmol/L</td></tr><tr><td>Potassium [Moles/volume] in Blood</td><td>4.9</td><td>3.5 - 5.1</td><td>mmol/L</td></tr><tr><td>Chloride [Moles/volume] in Blood</td><td>105.5</td><td>98 - 108</td><td>mmol/L</td></tr><tr><td>Carbon dioxide, total [Moles/volume] in Blood</td><td>28.3</td><td>22 - 32</td><td>mmol/L</td></tr><tr><td>Cholesterol [Mass/volume] in Serum or Plasma</td><td><strong>221.9 H</strong></td><td>125 - 200</td><td>mg/dL</td></tr><tr><td>Triglyceride [Mass/volume] in Serum or Plasma</td><td><strong>184.1 H</strong></td><td>40 - 150</td><td>mg/dL</td></tr><tr><td>Cholesterol in LDL [Mass/volume] in Serum or Plasma by Direct assay</td><td>135.5</td><td>0 - 190</td><td>mg/dL</td></tr><tr><td>Cholesterol in HDL [Mass/volume] in Serum or Plasma</td><td>49.6</td><td>40 - 60</td><td>mg/dL</td></tr><tr><td>Microalbumin/Creatinine [Mass Ratio] in Urine</td><td>8.0</td><td>0 - 30</td><td>mg/g</td></tr></tbody></table></div>"
                },
                "title": "Chemistry"
              }
            ],
            "title": "Laboratory Report"
          },
          {
            "text": {
              "status": "generated",
              "div": "<div xmlns=\"http://www.w3.org/1999/xhtml\"><h3>Annotation</h3><table class=\"hl7__eu__lab__report\"><tr><th>Conclusion and Recommendations based on this report and previous findings known to us</th></tr><tr><td>The patient shows elevated HbA1c, cholesterol, and triglycerides, indicating suboptimal glycemic and lipid control, suggestive of diabetes and dyslipidemia. Renal function, electrolytes, and complete blood count are within normal limits. Urine microalbumin/creatinine ratio is normal, suggesting no current diabetic nephropathy. The markedly high platelet distribution width may warrant further evaluation but other platelet parameters are normal. Recommend clinical correlation and management of cardiovascular risk factors.</td></tr></table></div>"
            },
            "code": {
              "coding": [
                {
                  "system": "http://loinc.org",
                  "code": "48767-8",
                  "display": "Annotation comment"
                }
              ]
            },
            "title": "Annotation comment"
          }
        ],
        "status": "final",
        "subject": {
          "reference": "urn:uuid:642bdaa0-c84b-4d51-bd06-b812e7ccd383",
          "display": "Stephen Weinhage"
        },
        "date": "2021-05-03T08:55:50Z",
        "title": "Laboratory Report",
        "confidentiality": "N"
      }
    },
    {
      "fullUrl": "urn:uuid:c29e0890-d6ee-48e7-9ac0-f9fe66c5ea95",
      "resource": {
        "resourceType": "DiagnosticReport",
        "id": "c29e0890-d6ee-48e7-9ac0-f9fe66c5ea95",
        "meta": {
          "profile": [
            "http://hl7.eu/fhir/laboratory/StructureDefinition/DiagnosticReport-eu-lab"
          ]
        },
        "identifier": [
          {
            "assigner": {
              "display": "HL7 Europe"
            },
            "system": "urn:oid:2.16.840.1.113883.2.51.999",
            "value": "dbe483f6-57b5-49e1-b656-b5061e2ea6bb"
          }
        ],
        "extension": [
          {
            "url": "http://hl7.org/fhir/5.0/StructureDefinition/extension-DiagnosticReport.composition",
            "valueReference": {
              "reference": "urn:uuid:cfa39553-2eb6-457b-a5f2-ac1c3df1f6f3"
            }
          }
        ],
        "category": [
          {
            "coding": [
              {
                "code": "26436-6",
                "system": "http://loinc.org",
                "display": "Laboratory studies (set)"
              }
            ]
          }
        ],
        "specimen": [
          {
            "reference": "urn:uuid:59b193af-386c-44db-acf2-8c3cc2e8228c"
          },
          {
            "reference": "urn:uuid:7eb9d5cb-d7d6-49a3-ab81-6b07494b3966"
          },
          {
            "reference": "urn:uuid:c67264bd-b963-4f67-8524-8f3047c89139"
          },
          {
            "reference": "urn:uuid:59b193af-386c-44db-acf2-8c3cc2e8228c"
          }
        ],
        "result": [
          {
            "reference": "urn:uuid:0ea46443-c534-4ca4-a6b5-82579fb38df4"
          },
          {
            "reference": "urn:uuid:7a695517-ebb5-42aa-976d-f1f483b17440"
          },
          {
            "reference": "urn:uuid:eb317bd6-e21c-4363-ab76-7d5f5dd42e0f"
          },
          {
            "reference": "urn:uuid:0b165e98-6c09-4678-91cc-cc9ce59d32db"
          },
          {
            "reference": "urn:uuid:f8531a6f-a936-4f7e-8807-09c4b07918a9"
          },
          {
            "reference": "urn:uuid:f4e55d15-7805-4762-a66b-f9ecf55d9aaa"
          },
          {
            "reference": "urn:uuid:9be4032f-9083-415f-a847-0926ecb88ed4"
          },
          {
            "reference": "urn:uuid:ea0cd073-9966-4d8e-96e3-a053a4cd9619"
          },
          {
            "reference": "urn:uuid:63644b69-7555-4265-99e9-819906a2cef6"
          },
          {
            "reference": "urn:uuid:15e9c9ea-e767-4b38-ba73-6bb41f524607"
          },
          {
            "reference": "urn:uuid:8f652278-81d2-42c7-9365-54107d012800"
          },
          {
            "reference": "urn:uuid:74137968-7259-47cc-a4c1-802868381aa1"
          },
          {
            "reference": "urn:uuid:6bba610d-2b8b-47e9-a32e-01e6c7301ced"
          },
          {
            "reference": "urn:uuid:27c60412-3ad7-4035-8c13-11b91182d1d0"
          },
          {
            "reference": "urn:uuid:c0671a66-ee5f-4354-b179-0004da9f1f85"
          },
          {
            "reference": "urn:uuid:a13c9bc9-cd11-4e6e-b92e-c65d8c627374"
          },
          {
            "reference": "urn:uuid:408e7552-120e-4513-9612-da05692224da"
          },
          {
            "reference": "urn:uuid:0901eb22-8fe3-40ba-9f91-501dee185ffb"
          },
          {
            "reference": "urn:uuid:1f4054b6-bf18-4c95-acc8-7c21fa9b2be4"
          },
          {
            "reference": "urn:uuid:4eee96b1-46d9-40cb-a45e-d7007b2fd41e"
          },
          {
            "reference": "urn:uuid:37cf336b-3a81-45aa-8258-7e4f654b02ce"
          },
          {
            "reference": "urn:uuid:885a891d-51a5-4280-9960-035c9d346362"
          },
          {
            "reference": "urn:uuid:71ec5e56-e129-4d2b-a534-b44696f38f50"
          },
          {
            "reference": "urn:uuid:cd8a9396-d649-45b8-97c6-784d9c689b1b"
          },
          {
            "reference": "urn:uuid:59d004d8-6c96-44d4-9e56-c1f7aca00134"
          }
        ],
        "status": "registered",
        "code": {
          "coding": [
            {
              "code": "11502-2",
              "system": "http://loinc.org",
              "display": "Laboratory report"
            }
          ]
        },
        "subject": {
          "reference": "urn:uuid:642bdaa0-c84b-4d51-bd06-b812e7ccd383",
          "display": "Stephen Weinhage"
        }
      }
    },
    {
      "fullUrl": "urn:uuid:642bdaa0-c84b-4d51-bd06-b812e7ccd383",
      "resource": {
        "resourceType": "Patient",
        "id": "642bdaa0-c84b-4d51-bd06-b812e7ccd383",
        "meta": {
          "security": [
            {
              "system": "http://terminology.hl7.org/CodeSystem/v3-ActReason",
              "code": "HTEST"
            },
            {
              "system": "http://terminology.hl7.org/CodeSystem/v3-ActReason",
              "code": "TRAIN"
            }
          ],
          "tag": [
            {
              "system": "https://synderai.net/fhir/CodeSystem/tags",
              "code": "synthetic",
              "display": "SYNDERAI Synthetic data"
            }
          ],
          "profile": [
            "http://hl7.eu/fhir/base/StructureDefinition/patient-eu-core"
          ]
        },
        "identifier": [
          {
            "type": {
              "coding": [
                {
                  "code": "PT",
                  "system": "http://terminology.hl7.org/CodeSystem/v2-0203"
                }
              ]
            },
            "system": "http://ec.europa.eu/identifier/eci",
            "value": "6413-101438-9"
          },
          {
            "type": {
              "coding": [
                {
                  "code": "MR",
                  "system": "http://terminology.hl7.org/CodeSystem/v2-0203"
                }
              ]
            },
            "system": "http://local.setting.eu/identifier",
            "value": "24ebd065-2072-c582-96d3-10256a4a5a7d"
          }
        ],
        "name": [
          {
            "family": "Weinhage"
          },
          {
            "given": [
              "Stephen"
            ]
          },
          {
            "text": "Stephen Weinhage"
          }
        ],
        "address": [
          {
            "line": [
              "Bertold-Stahr-Platz 6/3"
            ],
            "use": "home",
            "type": "physical",
            "postalCode": "31535",
            "city": "Neustadt am Rübenberge",
            "country": "Germany"
          }
        ],
        "telecom": [
          {
            "system": "phone",
            "value": "+49(0)5355171263"
          }
        ],
        "extension": [
          {
            "url": "http://hl7.org/fhir/StructureDefinition/patient-nationality",
            "valueCodeableConcept": {
              "coding": [
                {
                  "code": "DE",
                  "system": "http://hl7.org/fhir/ValueSet/country"
                }
              ]
            }
          }
        ],
        "text": {
          "status": "generated",
          "div": "<div xmlns=\"http://www.w3.org/1999/xhtml\"><table class=\"hl7__ips\"><tr><td>Stephen Weinhage</td><td>male</td><td>11-Aug-1950</td></tr></table></div>"
        },
        "gender": "male",
        "birthDate": "1950-08-11"
      }
    },
    {
      "fullUrl": "urn:uuid:1e60e3ba-d291-4a78-bd92-45ce7c390052",
      "resource": {
        "resourceType": "ServiceRequest",
        "id": "1e60e3ba-d291-4a78-bd92-45ce7c390052",
        "meta": {
          "profile": [
            "http://hl7.eu/fhir/laboratory/StructureDefinition/ServiceRequest-eu-lab"
          ]
        },
        "identifier": [
          {
            "system": "http://example.org",
            "value": "d577984c-4028-4187-a1c0-41f6db0e6cf1"
          }
        ],
        "specimen": [
          {
            "reference": "urn:uuid:59b193af-386c-44db-acf2-8c3cc2e8228c"
          },
          {
            "reference": "urn:uuid:7eb9d5cb-d7d6-49a3-ab81-6b07494b3966"
          },
          {
            "reference": "urn:uuid:c67264bd-b963-4f67-8524-8f3047c89139"
          }
        ],
        "reasonCode": [
          {
            "coding": [
              {
                "code": "422034002",
                "system": "http://snomed.info/sct",
                "display": "Retinopathy due to type 2 diabetes mellitus"
              }
            ]
          },
          {
            "coding": [
              {
                "code": "55822004",
                "system": "http://snomed.info/sct",
                "display": "Hyperlipidemia"
              }
            ]
          },
          {
            "coding": [
              {
                "code": "302870006",
                "system": "http://snomed.info/sct",
                "display": "Hypertriglyceridemia"
              }
            ]
          },
          {
            "coding": [
              {
                "code": "44054006",
                "system": "http://snomed.info/sct",
                "display": "Type 2 diabetes mellitus"
              }
            ]
          },
          {
            "coding": [
              {
                "code": "414545008",
                "system": "http://snomed.info/sct",
                "display": "Ischemic heart disease"
              }
            ]
          },
          {
            "coding": [
              {
                "code": "237602007",
                "system": "http://snomed.info/sct",
                "display": "Metabolic syndrome X"
              }
            ]
          },
          {
            "coding": [
              {
                "code": "68496003",
                "system": "http://snomed.info/sct",
                "display": "Polyp of colon"
              }
            ]
          },
          {
            "coding": [
              {
                "code": "59621000",
                "system": "http://snomed.info/sct",
                "display": "Essential hypertension"
              }
            ]
          },
          {
            "coding": [
              {
                "code": "15777000",
                "system": "http://snomed.info/sct",
                "display": "Prediabetes"
              }
            ]
          },
          {
            "coding": [
              {
                "code": "271737000",
                "system": "http://snomed.info/sct",
                "display": "Anemia"
              }
            ]
          },
          {
            "coding": [
              {
                "code": "40055000",
                "system": "http://snomed.info/sct",
                "display": "Chronic sinusitis"
              }
            ]
          }
        ],
        "status": "active",
        "intent": "order",
        "code": {
          "coding": [
            {
              "code": "108252007",
              "system": "http://snomed.info/sct",
              "display": "Laboratory procedure"
            }
          ]
        },
        "subject": {
          "reference": "urn:uuid:642bdaa0-c84b-4d51-bd06-b812e7ccd383",
          "display": "Stephen Weinhage"
        },
        "requester": {
          "reference": "urn:uuid:3abd83e2-6711-4295-9588-91030bb2a4d6"
        }
      }
    },
    {
      "fullUrl": "urn:uuid:3abd83e2-6711-4295-9588-91030bb2a4d6",
      "resource": {
        "resourceType": "PractitionerRole",
        "id": "3abd83e2-6711-4295-9588-91030bb2a4d6",
        "meta": {
          "profile": [
            "http://hl7.eu/fhir/base/StructureDefinition/practitionerRole-eu"
          ]
        },
        "text": {
          "status": "generated",
          "div": "<div xmlns=\"http://www.w3.org/1999/xhtml\">Provider Role Id: 3abd83e2-6711-4295-9588-91030bb2a4d6</div>"
        },
        "organization": {
          "reference": "urn:uuid:5e909c65-8fc7-4445-83c9-7723e375ea2f"
        }
      }
    },
    {
      "fullUrl": "urn:uuid:5e909c65-8fc7-4445-83c9-7723e375ea2f",
      "resource": {
        "resourceType": "Organization",
        "id": "5e909c65-8fc7-4445-83c9-7723e375ea2f",
        "meta": {
          "profile": [
            "http://hl7.eu/fhir/base/StructureDefinition/organization-eu"
          ]
        },
        "identifier": [
          {
            "assigner": {
              "display": "HL7 Europe"
            },
            "system": "urn:oid:2.16.840.1.113883.2.51.999",
            "value": "112fd4ed-4a5a-41cb-b5c1-61324ee32b63"
          }
        ],
        "address": [
          {
            "line": [
              "Dudenser Straße 41A"
            ],
            "city": "Neustadt am Rübenberge",
            "postalCode": "31535",
            "country": "Germany"
          }
        ],
        "text": {
          "status": "generated",
          "div": "<div xmlns=\"http://www.w3.org/1999/xhtml\">Provider Organization: Landarztpraxis Dudensen</div>"
        },
        "name": "Landarztpraxis Dudensen"
      }
    },
    {
      "fullUrl": "urn:uuid:59b193af-386c-44db-acf2-8c3cc2e8228c",
      "resource": {
        "resourceType": "Specimen",
        "id": "59b193af-386c-44db-acf2-8c3cc2e8228c",
        "meta": {
          "profile": [
            "http://hl7.eu/fhir/laboratory/StructureDefinition/Specimen-eu-lab"
          ]
        },
        "collection": {
          "collectedDateTime": "2021-05-03"
        },
        "text": {
          "status": "generated",
          "div": "<div xmlns=\"http://www.w3.org/1999/xhtml\"><table class=\"hl7__eu__lab__report\"><tr><th>Specimen</th><th>Collection Date</th></tr><tr><td>Whole blood specimen (specimen)</td><td><span class=\"nb\">03-May-2021</span></td></tr></table></div>"
        },
        "type": {
          "coding": [
            {
              "code": "258580003",
              "system": "http://snomed.info/sct",
              "display": "Whole blood specimen (specimen)"
            }
          ]
        }
      }
    },
    {
      "fullUrl": "urn:uuid:7eb9d5cb-d7d6-49a3-ab81-6b07494b3966",
      "resource": {
        "resourceType": "Specimen",
        "id": "7eb9d5cb-d7d6-49a3-ab81-6b07494b3966",
        "meta": {
          "profile": [
            "http://hl7.eu/fhir/laboratory/StructureDefinition/Specimen-eu-lab"
          ]
        },
        "collection": {
          "collectedDateTime": "2021-05-03"
        },
        "text": {
          "status": "generated",
          "div": "<div xmlns=\"http://www.w3.org/1999/xhtml\"><table class=\"hl7__eu__lab__report\"><tr><th>Specimen</th><th>Collection Date</th></tr><tr><td>Acellular blood (serum or plasma) specimen</td><td><span class=\"nb\">03-May-2021</span></td></tr></table></div>"
        },
        "type": {
          "coding": [
            {
              "code": "122592007",
              "system": "http://snomed.info/sct",
              "display": "Acellular blood (serum or plasma) specimen"
            }
          ]
        }
      }
    },
    {
      "fullUrl": "urn:uuid:c67264bd-b963-4f67-8524-8f3047c89139",
      "resource": {
        "resourceType": "Specimen",
        "id": "c67264bd-b963-4f67-8524-8f3047c89139",
        "meta": {
          "profile": [
            "http://hl7.eu/fhir/laboratory/StructureDefinition/Specimen-eu-lab"
          ]
        },
        "collection": {
          "collectedDateTime": "2021-05-03"
        },
        "text": {
          "status": "generated",
          "div": "<div xmlns=\"http://www.w3.org/1999/xhtml\"><table class=\"hl7__eu__lab__report\"><tr><th>Specimen</th><th>Collection Date</th></tr><tr><td>Urine specimen</td><td><span class=\"nb\">03-May-2021</span></td></tr></table></div>"
        },
        "type": {
          "coding": [
            {
              "code": "122575003",
              "system": "http://snomed.info/sct",
              "display": "Urine specimen"
            }
          ]
        }
      }
    },
    {
      "fullUrl": "urn:uuid:59b193af-386c-44db-acf2-8c3cc2e8228c",
      "resource": {
        "resourceType": "Specimen",
        "id": "59b193af-386c-44db-acf2-8c3cc2e8228c",
        "meta": {
          "profile": [
            "http://hl7.eu/fhir/laboratory/StructureDefinition/Specimen-eu-lab"
          ]
        },
        "collection": {
          "collectedDateTime": "2021-05-03"
        },
        "text": {
          "status": "generated",
          "div": "<div xmlns=\"http://www.w3.org/1999/xhtml\"><table class=\"hl7__eu__lab__report\"><tr><th>Specimen</th><th>Collection Date</th></tr><tr><td>Whole blood specimen (specimen)</td><td><span class=\"nb\">03-May-2021</span></td></tr></table></div>"
        },
        "type": {
          "coding": [
            {
              "code": "258580003",
              "system": "http://snomed.info/sct",
              "display": "Whole blood specimen (specimen)"
            }
          ]
        }
      }
    },
    {
      "fullUrl": "urn:uuid:0ea46443-c534-4ca4-a6b5-82579fb38df4",
      "resource": {
        "resourceType": "Observation",
        "id": "0ea46443-c534-4ca4-a6b5-82579fb38df4",
        "meta": {
          "profile": [
            "http://hl7.eu/fhir/laboratory/StructureDefinition/Observation-resultslab-eu-lab"
          ]
        },
        "performer": [
          {
            "display": "The Central European Lab"
          }
        ],
        "category": [
          {
            "coding": [
              {
                "system": "http://terminology.hl7.org/CodeSystem/observation-category",
                "code": "laboratory"
              }
            ]
          }
        ],
        "code": {
          "coding": [
            {
              "code": "4548-4",
              "system": "http://loinc.org",
              "display": "Hemoglobin A1c/Hemoglobin.total in Blood"
            }
          ],
          "text": "Hemoglobin A1c/Hemoglobin.total in Blood"
        },
        "valueQuantity": {
          "system": "http://unitsofmeasure.org",
          "value": 6.9,
          "unit": "%",
          "code": "%"
        },
        "referenceRange": [
          {
            "low": {
              "value": 4.8,
              "code": "%",
              "system": "http://unitsofmeasure.org"
            }
          },
          {
            "high": {
              "value": 5.7,
              "code": "%",
              "system": "http://unitsofmeasure.org"
            }
          }
        ],
        "interpretation": [
          {
            "coding": [
              {
                "code": "H",
                "system": "http://terminology.hl7.org/CodeSystem/v3-ObservationInterpretation",
                "display": "High"
              }
            ]
          }
        ],
        "text": {
          "status": "generated",
          "div": "<div xmlns=\"http://www.w3.org/1999/xhtml\"><table class=\"hl7__eu__lab__report\"><tr><th>Test</th><th>03-May-2021</th><th>Reference&#xA0;Range</th><th>Unit</th></tr><tr><td>Hemoglobin A1c/Hemoglobin.total in Blood</td><td>6.9</td><td>4.8 - 5.7</td><td>H</td><td>%</td></tr></table></div>"
        },
        "status": "final",
        "subject": {
          "reference": "urn:uuid:642bdaa0-c84b-4d51-bd06-b812e7ccd383",
          "display": "Stephen Weinhage"
        },
        "effectiveDateTime": "2021-05-03T06:55:50Z",
        "specimen": {
          "reference": "urn:uuid:59b193af-386c-44db-acf2-8c3cc2e8228c"
        }
      }
    },
    {
      "fullUrl": "urn:uuid:7a695517-ebb5-42aa-976d-f1f483b17440",
      "resource": {
        "resourceType": "Observation",
        "id": "7a695517-ebb5-42aa-976d-f1f483b17440",
        "meta": {
          "profile": [
            "http://hl7.eu/fhir/laboratory/StructureDefinition/Observation-resultslab-eu-lab"
          ]
        },
        "performer": [
          {
            "display": "The Central European Lab"
          }
        ],
        "category": [
          {
            "coding": [
              {
                "system": "http://terminology.hl7.org/CodeSystem/observation-category",
                "code": "laboratory"
              }
            ]
          }
        ],
        "code": {
          "coding": [
            {
              "code": "2339-0",
              "system": "http://loinc.org",
              "display": "Glucose [Mass/volume] in Blood"
            }
          ],
          "text": "Glucose [Mass/volume] in Blood"
        },
        "valueQuantity": {
          "system": "http://unitsofmeasure.org",
          "value": 102.1,
          "unit": "mg/dL",
          "code": "mg/dL"
        },
        "referenceRange": [
          {
            "low": {
              "value": 70,
              "code": "mg/dL",
              "system": "http://unitsofmeasure.org"
            }
          },
          {
            "high": {
              "value": 140,
              "code": "mg/dL",
              "system": "http://unitsofmeasure.org"
            }
          }
        ],
        "text": {
          "status": "generated",
          "div": "<div xmlns=\"http://www.w3.org/1999/xhtml\"><table class=\"hl7__eu__lab__report\"><tr><th>Test</th><th>03-May-2021</th><th>Reference&#xA0;Range</th><th>Unit</th></tr><tr><td>Glucose [Mass/volume] in Blood</td><td>102.1</td><td>70 - 140</td><td></td><td>mg/dL</td></tr></table></div>"
        },
        "status": "final",
        "subject": {
          "reference": "urn:uuid:642bdaa0-c84b-4d51-bd06-b812e7ccd383",
          "display": "Stephen Weinhage"
        },
        "effectiveDateTime": "2021-05-03T06:55:50Z",
        "specimen": {
          "reference": "urn:uuid:59b193af-386c-44db-acf2-8c3cc2e8228c"
        }
      }
    },
    {
      "fullUrl": "urn:uuid:eb317bd6-e21c-4363-ab76-7d5f5dd42e0f",
      "resource": {
        "resourceType": "Observation",
        "id": "eb317bd6-e21c-4363-ab76-7d5f5dd42e0f",
        "meta": {
          "profile": [
            "http://hl7.eu/fhir/laboratory/StructureDefinition/Observation-resultslab-eu-lab"
          ]
        },
        "performer": [
          {
            "display": "The Central European Lab"
          }
        ],
        "category": [
          {
            "coding": [
              {
                "system": "http://terminology.hl7.org/CodeSystem/observation-category",
                "code": "laboratory"
              }
            ]
          }
        ],
        "code": {
          "coding": [
            {
              "code": "6299-2",
              "system": "http://loinc.org",
              "display": "Urea nitrogen [Mass/volume] in Blood"
            }
          ],
          "text": "Urea nitrogen [Mass/volume] in Blood"
        },
        "valueQuantity": {
          "system": "http://unitsofmeasure.org",
          "value": 10.2,
          "unit": "mg/dL",
          "code": "mg/dL"
        },
        "referenceRange": [
          {
            "low": {
              "value": 7,
              "code": "mg/dL",
              "system": "http://unitsofmeasure.org"
            }
          },
          {
            "high": {
              "value": 20,
              "code": "mg/dL",
              "system": "http://unitsofmeasure.org"
            }
          }
        ],
        "text": {
          "status": "generated",
          "div": "<div xmlns=\"http://www.w3.org/1999/xhtml\"><table class=\"hl7__eu__lab__report\"><tr><th>Test</th><th>03-May-2021</th><th>Reference&#xA0;Range</th><th>Unit</th></tr><tr><td>Urea nitrogen [Mass/volume] in Blood</td><td>10.2</td><td>7 - 20</td><td></td><td>mg/dL</td></tr></table></div>"
        },
        "status": "final",
        "subject": {
          "reference": "urn:uuid:642bdaa0-c84b-4d51-bd06-b812e7ccd383",
          "display": "Stephen Weinhage"
        },
        "effectiveDateTime": "2021-05-03T06:55:50Z",
        "specimen": {
          "reference": "urn:uuid:59b193af-386c-44db-acf2-8c3cc2e8228c"
        }
      }
    },
    {
      "fullUrl": "urn:uuid:0b165e98-6c09-4678-91cc-cc9ce59d32db",
      "resource": {
        "resourceType": "Observation",
        "id": "0b165e98-6c09-4678-91cc-cc9ce59d32db",
        "meta": {
          "profile": [
            "http://hl7.eu/fhir/laboratory/StructureDefinition/Observation-resultslab-eu-lab"
          ]
        },
        "performer": [
          {
            "display": "The Central European Lab"
          }
        ],
        "category": [
          {
            "coding": [
              {
                "system": "http://terminology.hl7.org/CodeSystem/observation-category",
                "code": "laboratory"
              }
            ]
          }
        ],
        "code": {
          "coding": [
            {
              "code": "38483-4",
              "system": "http://loinc.org",
              "display": "Creatinine [Mass/volume] in Blood"
            }
          ],
          "text": "Creatinine [Mass/volume] in Blood"
        },
        "valueQuantity": {
          "system": "http://unitsofmeasure.org",
          "value": 0.8,
          "unit": "mg/dL",
          "code": "mg/dL"
        },
        "referenceRange": [
          {
            "low": {
              "value": 0.6,
              "code": "mg/dL",
              "system": "http://unitsofmeasure.org"
            }
          },
          {
            "high": {
              "value": 1.3,
              "code": "mg/dL",
              "system": "http://unitsofmeasure.org"
            }
          }
        ],
        "text": {
          "status": "generated",
          "div": "<div xmlns=\"http://www.w3.org/1999/xhtml\"><table class=\"hl7__eu__lab__report\"><tr><th>Test</th><th>03-May-2021</th><th>Reference&#xA0;Range</th><th>Unit</th></tr><tr><td>Creatinine [Mass/volume] in Blood</td><td>0.8</td><td>0.6 - 1.3</td><td></td><td>mg/dL</td></tr></table></div>"
        },
        "status": "final",
        "subject": {
          "reference": "urn:uuid:642bdaa0-c84b-4d51-bd06-b812e7ccd383",
          "display": "Stephen Weinhage"
        },
        "effectiveDateTime": "2021-05-03T06:55:50Z",
        "specimen": {
          "reference": "urn:uuid:59b193af-386c-44db-acf2-8c3cc2e8228c"
        }
      }
    },
    {
      "fullUrl": "urn:uuid:f8531a6f-a936-4f7e-8807-09c4b07918a9",
      "resource": {
        "resourceType": "Observation",
        "id": "f8531a6f-a936-4f7e-8807-09c4b07918a9",
        "meta": {
          "profile": [
            "http://hl7.eu/fhir/laboratory/StructureDefinition/Observation-resultslab-eu-lab"
          ]
        },
        "performer": [
          {
            "display": "The Central European Lab"
          }
        ],
        "category": [
          {
            "coding": [
              {
                "system": "http://terminology.hl7.org/CodeSystem/observation-category",
                "code": "laboratory"
              }
            ]
          }
        ],
        "code": {
          "coding": [
            {
              "code": "49765-1",
              "system": "http://loinc.org",
              "display": "Calcium [Mass/volume] in Blood"
            }
          ],
          "text": "Calcium [Mass/volume] in Blood"
        },
        "valueQuantity": {
          "system": "http://unitsofmeasure.org",
          "value": 9.4,
          "unit": "mg/dL",
          "code": "mg/dL"
        },
        "referenceRange": [
          {
            "low": {
              "value": 8.5,
              "code": "mg/dL",
              "system": "http://unitsofmeasure.org"
            }
          },
          {
            "high": {
              "value": 10.5,
              "code": "mg/dL",
              "system": "http://unitsofmeasure.org"
            }
          }
        ],
        "text": {
          "status": "generated",
          "div": "<div xmlns=\"http://www.w3.org/1999/xhtml\"><table class=\"hl7__eu__lab__report\"><tr><th>Test</th><th>03-May-2021</th><th>Reference&#xA0;Range</th><th>Unit</th></tr><tr><td>Calcium [Mass/volume] in Blood</td><td>9.4</td><td>8.5 - 10.5</td><td></td><td>mg/dL</td></tr></table></div>"
        },
        "status": "final",
        "subject": {
          "reference": "urn:uuid:642bdaa0-c84b-4d51-bd06-b812e7ccd383",
          "display": "Stephen Weinhage"
        },
        "effectiveDateTime": "2021-05-03T06:55:50Z",
        "specimen": {
          "reference": "urn:uuid:59b193af-386c-44db-acf2-8c3cc2e8228c"
        }
      }
    },
    {
      "fullUrl": "urn:uuid:f4e55d15-7805-4762-a66b-f9ecf55d9aaa",
      "resource": {
        "resourceType": "Observation",
        "id": "f4e55d15-7805-4762-a66b-f9ecf55d9aaa",
        "meta": {
          "profile": [
            "http://hl7.eu/fhir/laboratory/StructureDefinition/Observation-resultslab-eu-lab"
          ]
        },
        "performer": [
          {
            "display": "The Central European Lab"
          }
        ],
        "category": [
          {
            "coding": [
              {
                "system": "http://terminology.hl7.org/CodeSystem/observation-category",
                "code": "laboratory"
              }
            ]
          }
        ],
        "code": {
          "coding": [
            {
              "code": "2947-0",
              "system": "http://loinc.org",
              "display": "Sodium [Moles/volume] in Blood"
            }
          ],
          "text": "Sodium [Moles/volume] in Blood"
        },
        "valueQuantity": {
          "system": "http://unitsofmeasure.org",
          "value": 140.2,
          "unit": "mmol/L",
          "code": "mmol/L"
        },
        "referenceRange": [
          {
            "low": {
              "value": 135,
              "code": "mmol/L",
              "system": "http://unitsofmeasure.org"
            }
          },
          {
            "high": {
              "value": 145,
              "code": "mmol/L",
              "system": "http://unitsofmeasure.org"
            }
          }
        ],
        "text": {
          "status": "generated",
          "div": "<div xmlns=\"http://www.w3.org/1999/xhtml\"><table class=\"hl7__eu__lab__report\"><tr><th>Test</th><th>03-May-2021</th><th>Reference&#xA0;Range</th><th>Unit</th></tr><tr><td>Sodium [Moles/volume] in Blood</td><td>140.2</td><td>135 - 145</td><td></td><td>mmol/L</td></tr></table></div>"
        },
        "status": "final",
        "subject": {
          "reference": "urn:uuid:642bdaa0-c84b-4d51-bd06-b812e7ccd383",
          "display": "Stephen Weinhage"
        },
        "effectiveDateTime": "2021-05-03T06:55:50Z",
        "specimen": {
          "reference": "urn:uuid:59b193af-386c-44db-acf2-8c3cc2e8228c"
        }
      }
    },
    {
      "fullUrl": "urn:uuid:9be4032f-9083-415f-a847-0926ecb88ed4",
      "resource": {
        "resourceType": "Observation",
        "id": "9be4032f-9083-415f-a847-0926ecb88ed4",
        "meta": {
          "profile": [
            "http://hl7.eu/fhir/laboratory/StructureDefinition/Observation-resultslab-eu-lab"
          ]
        },
        "performer": [
          {
            "display": "The Central European Lab"
          }
        ],
        "category": [
          {
            "coding": [
              {
                "system": "http://terminology.hl7.org/CodeSystem/observation-category",
                "code": "laboratory"
              }
            ]
          }
        ],
        "code": {
          "coding": [
            {
              "code": "6298-4",
              "system": "http://loinc.org",
              "display": "Potassium [Moles/volume] in Blood"
            }
          ],
          "text": "Potassium [Moles/volume] in Blood"
        },
        "valueQuantity": {
          "system": "http://unitsofmeasure.org",
          "value": 4.9,
          "unit": "mmol/L",
          "code": "mmol/L"
        },
        "referenceRange": [
          {
            "low": {
              "value": 3.5,
              "code": "mmol/L",
              "system": "http://unitsofmeasure.org"
            }
          },
          {
            "high": {
              "value": 5.1,
              "code": "mmol/L",
              "system": "http://unitsofmeasure.org"
            }
          }
        ],
        "text": {
          "status": "generated",
          "div": "<div xmlns=\"http://www.w3.org/1999/xhtml\"><table class=\"hl7__eu__lab__report\"><tr><th>Test</th><th>03-May-2021</th><th>Reference&#xA0;Range</th><th>Unit</th></tr><tr><td>Potassium [Moles/volume] in Blood</td><td>4.9</td><td>3.5 - 5.1</td><td></td><td>mmol/L</td></tr></table></div>"
        },
        "status": "final",
        "subject": {
          "reference": "urn:uuid:642bdaa0-c84b-4d51-bd06-b812e7ccd383",
          "display": "Stephen Weinhage"
        },
        "effectiveDateTime": "2021-05-03T06:55:50Z",
        "specimen": {
          "reference": "urn:uuid:59b193af-386c-44db-acf2-8c3cc2e8228c"
        }
      }
    },
    {
      "fullUrl": "urn:uuid:ea0cd073-9966-4d8e-96e3-a053a4cd9619",
      "resource": {
        "resourceType": "Observation",
        "id": "ea0cd073-9966-4d8e-96e3-a053a4cd9619",
        "meta": {
          "profile": [
            "http://hl7.eu/fhir/laboratory/StructureDefinition/Observation-resultslab-eu-lab"
          ]
        },
        "performer": [
          {
            "display": "The Central European Lab"
          }
        ],
        "category": [
          {
            "coding": [
              {
                "system": "http://terminology.hl7.org/CodeSystem/observation-category",
                "code": "laboratory"
              }
            ]
          }
        ],
        "code": {
          "coding": [
            {
              "code": "2069-3",
              "system": "http://loinc.org",
              "display": "Chloride [Moles/volume] in Blood"
            }
          ],
          "text": "Chloride [Moles/volume] in Blood"
        },
        "valueQuantity": {
          "system": "http://unitsofmeasure.org",
          "value": 105.5,
          "unit": "mmol/L",
          "code": "mmol/L"
        },
        "referenceRange": [
          {
            "low": {
              "value": 98,
              "code": "mmol/L",
              "system": "http://unitsofmeasure.org"
            }
          },
          {
            "high": {
              "value": 108,
              "code": "mmol/L",
              "system": "http://unitsofmeasure.org"
            }
          }
        ],
        "text": {
          "status": "generated",
          "div": "<div xmlns=\"http://www.w3.org/1999/xhtml\"><table class=\"hl7__eu__lab__report\"><tr><th>Test</th><th>03-May-2021</th><th>Reference&#xA0;Range</th><th>Unit</th></tr><tr><td>Chloride [Moles/volume] in Blood</td><td>105.5</td><td>98 - 108</td><td></td><td>mmol/L</td></tr></table></div>"
        },
        "status": "final",
        "subject": {
          "reference": "urn:uuid:642bdaa0-c84b-4d51-bd06-b812e7ccd383",
          "display": "Stephen Weinhage"
        },
        "effectiveDateTime": "2021-05-03T06:55:50Z",
        "specimen": {
          "reference": "urn:uuid:59b193af-386c-44db-acf2-8c3cc2e8228c"
        }
      }
    },
    {
      "fullUrl": "urn:uuid:63644b69-7555-4265-99e9-819906a2cef6",
      "resource": {
        "resourceType": "Observation",
        "id": "63644b69-7555-4265-99e9-819906a2cef6",
        "meta": {
          "profile": [
            "http://hl7.eu/fhir/laboratory/StructureDefinition/Observation-resultslab-eu-lab"
          ]
        },
        "performer": [
          {
            "display": "The Central European Lab"
          }
        ],
        "category": [
          {
            "coding": [
              {
                "system": "http://terminology.hl7.org/CodeSystem/observation-category",
                "code": "laboratory"
              }
            ]
          }
        ],
        "code": {
          "coding": [
            {
              "code": "20565-8",
              "system": "http://loinc.org",
              "display": "Carbon dioxide, total [Moles/volume] in Blood"
            }
          ],
          "text": "Carbon dioxide, total [Moles/volume] in Blood"
        },
        "valueQuantity": {
          "system": "http://unitsofmeasure.org",
          "value": 28.3,
          "unit": "mmol/L",
          "code": "mmol/L"
        },
        "referenceRange": [
          {
            "low": {
              "value": 22,
              "code": "mmol/L",
              "system": "http://unitsofmeasure.org"
            }
          },
          {
            "high": {
              "value": 32,
              "code": "mmol/L",
              "system": "http://unitsofmeasure.org"
            }
          }
        ],
        "text": {
          "status": "generated",
          "div": "<div xmlns=\"http://www.w3.org/1999/xhtml\"><table class=\"hl7__eu__lab__report\"><tr><th>Test</th><th>03-May-2021</th><th>Reference&#xA0;Range</th><th>Unit</th></tr><tr><td>Carbon dioxide, total [Moles/volume] in Blood</td><td>28.3</td><td>22 - 32</td><td></td><td>mmol/L</td></tr></table></div>"
        },
        "status": "final",
        "subject": {
          "reference": "urn:uuid:642bdaa0-c84b-4d51-bd06-b812e7ccd383",
          "display": "Stephen Weinhage"
        },
        "effectiveDateTime": "2021-05-03T06:55:50Z",
        "specimen": {
          "reference": "urn:uuid:59b193af-386c-44db-acf2-8c3cc2e8228c"
        }
      }
    },
    {
      "fullUrl": "urn:uuid:15e9c9ea-e767-4b38-ba73-6bb41f524607",
      "resource": {
        "resourceType": "Observation",
        "id": "15e9c9ea-e767-4b38-ba73-6bb41f524607",
        "meta": {
          "profile": [
            "http://hl7.eu/fhir/laboratory/StructureDefinition/Observation-resultslab-eu-lab"
          ]
        },
        "performer": [
          {
            "display": "The Central European Lab"
          }
        ],
        "category": [
          {
            "coding": [
              {
                "system": "http://terminology.hl7.org/CodeSystem/observation-category",
                "code": "laboratory"
              }
            ]
          }
        ],
        "code": {
          "coding": [
            {
              "code": "2093-3",
              "system": "http://loinc.org",
              "display": "Cholesterol [Mass/volume] in Serum or Plasma"
            }
          ],
          "text": "Cholesterol [Mass/volume] in Serum or Plasma"
        },
        "valueQuantity": {
          "system": "http://unitsofmeasure.org",
          "value": 221.9,
          "unit": "mg/dL",
          "code": "mg/dL"
        },
        "referenceRange": [
          {
            "low": {
              "value": 125,
              "code": "mg/dL",
              "system": "http://unitsofmeasure.org"
            }
          },
          {
            "high": {
              "value": 200,
              "code": "mg/dL",
              "system": "http://unitsofmeasure.org"
            }
          }
        ],
        "interpretation": [
          {
            "coding": [
              {
                "code": "H",
                "system": "http://terminology.hl7.org/CodeSystem/v3-ObservationInterpretation",
                "display": "High"
              }
            ]
          }
        ],
        "text": {
          "status": "generated",
          "div": "<div xmlns=\"http://www.w3.org/1999/xhtml\"><table class=\"hl7__eu__lab__report\"><tr><th>Test</th><th>03-May-2021</th><th>Reference&#xA0;Range</th><th>Unit</th></tr><tr><td>Cholesterol [Mass/volume] in Serum or Plasma</td><td>221.9</td><td>125 - 200</td><td>H</td><td>mg/dL</td></tr></table></div>"
        },
        "status": "final",
        "subject": {
          "reference": "urn:uuid:642bdaa0-c84b-4d51-bd06-b812e7ccd383",
          "display": "Stephen Weinhage"
        },
        "effectiveDateTime": "2021-05-03T06:55:50Z",
        "specimen": {
          "reference": "urn:uuid:7eb9d5cb-d7d6-49a3-ab81-6b07494b3966"
        }
      }
    },
    {
      "fullUrl": "urn:uuid:8f652278-81d2-42c7-9365-54107d012800",
      "resource": {
        "resourceType": "Observation",
        "id": "8f652278-81d2-42c7-9365-54107d012800",
        "meta": {
          "profile": [
            "http://hl7.eu/fhir/laboratory/StructureDefinition/Observation-resultslab-eu-lab"
          ]
        },
        "performer": [
          {
            "display": "The Central European Lab"
          }
        ],
        "category": [
          {
            "coding": [
              {
                "system": "http://terminology.hl7.org/CodeSystem/observation-category",
                "code": "laboratory"
              }
            ]
          }
        ],
        "code": {
          "coding": [
            {
              "code": "2571-8",
              "system": "http://loinc.org",
              "display": "Triglyceride [Mass/volume] in Serum or Plasma"
            }
          ],
          "text": "Triglyceride [Mass/volume] in Serum or Plasma"
        },
        "valueQuantity": {
          "system": "http://unitsofmeasure.org",
          "value": 184.1,
          "unit": "mg/dL",
          "code": "mg/dL"
        },
        "referenceRange": [
          {
            "low": {
              "value": 40,
              "code": "mg/dL",
              "system": "http://unitsofmeasure.org"
            }
          },
          {
            "high": {
              "value": 150,
              "code": "mg/dL",
              "system": "http://unitsofmeasure.org"
            }
          }
        ],
        "interpretation": [
          {
            "coding": [
              {
                "code": "H",
                "system": "http://terminology.hl7.org/CodeSystem/v3-ObservationInterpretation",
                "display": "High"
              }
            ]
          }
        ],
        "text": {
          "status": "generated",
          "div": "<div xmlns=\"http://www.w3.org/1999/xhtml\"><table class=\"hl7__eu__lab__report\"><tr><th>Test</th><th>03-May-2021</th><th>Reference&#xA0;Range</th><th>Unit</th></tr><tr><td>Triglyceride [Mass/volume] in Serum or Plasma</td><td>184.1</td><td>40 - 150</td><td>H</td><td>mg/dL</td></tr></table></div>"
        },
        "status": "final",
        "subject": {
          "reference": "urn:uuid:642bdaa0-c84b-4d51-bd06-b812e7ccd383",
          "display": "Stephen Weinhage"
        },
        "effectiveDateTime": "2021-05-03T06:55:50Z",
        "specimen": {
          "reference": "urn:uuid:7eb9d5cb-d7d6-49a3-ab81-6b07494b3966"
        }
      }
    },
    {
      "fullUrl": "urn:uuid:74137968-7259-47cc-a4c1-802868381aa1",
      "resource": {
        "resourceType": "Observation",
        "id": "74137968-7259-47cc-a4c1-802868381aa1",
        "meta": {
          "profile": [
            "http://hl7.eu/fhir/laboratory/StructureDefinition/Observation-resultslab-eu-lab"
          ]
        },
        "performer": [
          {
            "display": "The Central European Lab"
          }
        ],
        "category": [
          {
            "coding": [
              {
                "system": "http://terminology.hl7.org/CodeSystem/observation-category",
                "code": "laboratory"
              }
            ]
          }
        ],
        "code": {
          "coding": [
            {
              "code": "18262-6",
              "system": "http://loinc.org",
              "display": "Cholesterol in LDL [Mass/volume] in Serum or Plasma by Direct assay"
            }
          ],
          "text": "Cholesterol in LDL [Mass/volume] in Serum or Plasma by Direct assay"
        },
        "valueQuantity": {
          "system": "http://unitsofmeasure.org",
          "value": 135.5,
          "unit": "mg/dL",
          "code": "mg/dL"
        },
        "referenceRange": [
          {
            "low": {
              "value": 0,
              "code": "mg/dL",
              "system": "http://unitsofmeasure.org"
            }
          },
          {
            "high": {
              "value": 190,
              "code": "mg/dL",
              "system": "http://unitsofmeasure.org"
            }
          }
        ],
        "text": {
          "status": "generated",
          "div": "<div xmlns=\"http://www.w3.org/1999/xhtml\"><table class=\"hl7__eu__lab__report\"><tr><th>Test</th><th>03-May-2021</th><th>Reference&#xA0;Range</th><th>Unit</th></tr><tr><td>Cholesterol in LDL [Mass/volume] in Serum or Plasma by Direct assay</td><td>135.5</td><td>0 - 190</td><td></td><td>mg/dL</td></tr></table></div>"
        },
        "status": "final",
        "subject": {
          "reference": "urn:uuid:642bdaa0-c84b-4d51-bd06-b812e7ccd383",
          "display": "Stephen Weinhage"
        },
        "effectiveDateTime": "2021-05-03T06:55:50Z",
        "specimen": {
          "reference": "urn:uuid:7eb9d5cb-d7d6-49a3-ab81-6b07494b3966"
        }
      }
    },
    {
      "fullUrl": "urn:uuid:6bba610d-2b8b-47e9-a32e-01e6c7301ced",
      "resource": {
        "resourceType": "Observation",
        "id": "6bba610d-2b8b-47e9-a32e-01e6c7301ced",
        "meta": {
          "profile": [
            "http://hl7.eu/fhir/laboratory/StructureDefinition/Observation-resultslab-eu-lab"
          ]
        },
        "performer": [
          {
            "display": "The Central European Lab"
          }
        ],
        "category": [
          {
            "coding": [
              {
                "system": "http://terminology.hl7.org/CodeSystem/observation-category",
                "code": "laboratory"
              }
            ]
          }
        ],
        "code": {
          "coding": [
            {
              "code": "2085-9",
              "system": "http://loinc.org",
              "display": "Cholesterol in HDL [Mass/volume] in Serum or Plasma"
            }
          ],
          "text": "Cholesterol in HDL [Mass/volume] in Serum or Plasma"
        },
        "valueQuantity": {
          "system": "http://unitsofmeasure.org",
          "value": 49.6,
          "unit": "mg/dL",
          "code": "mg/dL"
        },
        "referenceRange": [
          {
            "low": {
              "value": 40,
              "code": "mg/dL",
              "system": "http://unitsofmeasure.org"
            }
          },
          {
            "high": {
              "value": 60,
              "code": "mg/dL",
              "system": "http://unitsofmeasure.org"
            }
          }
        ],
        "text": {
          "status": "generated",
          "div": "<div xmlns=\"http://www.w3.org/1999/xhtml\"><table class=\"hl7__eu__lab__report\"><tr><th>Test</th><th>03-May-2021</th><th>Reference&#xA0;Range</th><th>Unit</th></tr><tr><td>Cholesterol in HDL [Mass/volume] in Serum or Plasma</td><td>49.6</td><td>40 - 60</td><td></td><td>mg/dL</td></tr></table></div>"
        },
        "status": "final",
        "subject": {
          "reference": "urn:uuid:642bdaa0-c84b-4d51-bd06-b812e7ccd383",
          "display": "Stephen Weinhage"
        },
        "effectiveDateTime": "2021-05-03T06:55:50Z",
        "specimen": {
          "reference": "urn:uuid:7eb9d5cb-d7d6-49a3-ab81-6b07494b3966"
        }
      }
    },
    {
      "fullUrl": "urn:uuid:27c60412-3ad7-4035-8c13-11b91182d1d0",
      "resource": {
        "resourceType": "Observation",
        "id": "27c60412-3ad7-4035-8c13-11b91182d1d0",
        "meta": {
          "profile": [
            "http://hl7.eu/fhir/laboratory/StructureDefinition/Observation-resultslab-eu-lab"
          ]
        },
        "performer": [
          {
            "display": "The Central European Lab"
          }
        ],
        "category": [
          {
            "coding": [
              {
                "system": "http://terminology.hl7.org/CodeSystem/observation-category",
                "code": "laboratory"
              }
            ]
          }
        ],
        "code": {
          "coding": [
            {
              "code": "14959-1",
              "system": "http://loinc.org",
              "display": "Microalbumin/Creatinine [Mass Ratio] in Urine"
            }
          ],
          "text": "Microalbumin/Creatinine [Mass Ratio] in Urine"
        },
        "valueQuantity": {
          "system": "http://unitsofmeasure.org",
          "value": 8,
          "unit": "mg/g",
          "code": "mg/g"
        },
        "referenceRange": [
          {
            "low": {
              "value": 0,
              "code": "mg/g",
              "system": "http://unitsofmeasure.org"
            }
          },
          {
            "high": {
              "value": 30,
              "code": "mg/g",
              "system": "http://unitsofmeasure.org"
            }
          }
        ],
        "text": {
          "status": "generated",
          "div": "<div xmlns=\"http://www.w3.org/1999/xhtml\"><table class=\"hl7__eu__lab__report\"><tr><th>Test</th><th>03-May-2021</th><th>Reference&#xA0;Range</th><th>Unit</th></tr><tr><td>Microalbumin/Creatinine [Mass Ratio] in Urine</td><td>8.0</td><td>0 - 30</td><td></td><td>mg/g</td></tr></table></div>"
        },
        "status": "final",
        "subject": {
          "reference": "urn:uuid:642bdaa0-c84b-4d51-bd06-b812e7ccd383",
          "display": "Stephen Weinhage"
        },
        "effectiveDateTime": "2021-05-03T06:55:50Z",
        "specimen": {
          "reference": "urn:uuid:c67264bd-b963-4f67-8524-8f3047c89139"
        }
      }
    },
    {
      "fullUrl": "urn:uuid:c0671a66-ee5f-4354-b179-0004da9f1f85",
      "resource": {
        "resourceType": "Observation",
        "id": "c0671a66-ee5f-4354-b179-0004da9f1f85",
        "meta": {
          "profile": [
            "http://hl7.eu/fhir/laboratory/StructureDefinition/Observation-resultslab-eu-lab"
          ]
        },
        "performer": [
          {
            "display": "The Central European Lab"
          }
        ],
        "category": [
          {
            "coding": [
              {
                "system": "http://terminology.hl7.org/CodeSystem/observation-category",
                "code": "laboratory"
              }
            ]
          }
        ],
        "code": {
          "coding": [
            {
              "code": "6690-2",
              "system": "http://loinc.org",
              "display": "Leukocytes [#/volume] in Blood by Automated count"
            }
          ],
          "text": "Leukocytes [#/volume] in Blood by Automated count"
        },
        "valueQuantity": {
          "system": "http://unitsofmeasure.org",
          "value": 4.1,
          "unit": "10*3/uL",
          "code": "10*3/uL"
        },
        "referenceRange": [
          {
            "low": {
              "value": 3.5,
              "code": "10*3/uL",
              "system": "http://unitsofmeasure.org"
            }
          },
          {
            "high": {
              "value": 10.5,
              "code": "10*3/uL",
              "system": "http://unitsofmeasure.org"
            }
          }
        ],
        "text": {
          "status": "generated",
          "div": "<div xmlns=\"http://www.w3.org/1999/xhtml\"><table class=\"hl7__eu__lab__report\"><tr><th>Test</th><th>03-May-2021</th><th>Reference&#xA0;Range</th><th>Unit</th></tr><tr><td>Leukocytes [#/volume] in Blood by Automated count</td><td>4.1</td><td>3.5 - 10.5</td><td></td><td>10*3/uL</td></tr></table></div>"
        },
        "status": "final",
        "subject": {
          "reference": "urn:uuid:642bdaa0-c84b-4d51-bd06-b812e7ccd383",
          "display": "Stephen Weinhage"
        },
        "effectiveDateTime": "2021-05-03T06:55:50Z",
        "specimen": {
          "reference": "urn:uuid:59b193af-386c-44db-acf2-8c3cc2e8228c"
        }
      }
    },
    {
      "fullUrl": "urn:uuid:a13c9bc9-cd11-4e6e-b92e-c65d8c627374",
      "resource": {
        "resourceType": "Observation",
        "id": "a13c9bc9-cd11-4e6e-b92e-c65d8c627374",
        "meta": {
          "profile": [
            "http://hl7.eu/fhir/laboratory/StructureDefinition/Observation-resultslab-eu-lab"
          ]
        },
        "performer": [
          {
            "display": "The Central European Lab"
          }
        ],
        "category": [
          {
            "coding": [
              {
                "system": "http://terminology.hl7.org/CodeSystem/observation-category",
                "code": "laboratory"
              }
            ]
          }
        ],
        "code": {
          "coding": [
            {
              "code": "789-8",
              "system": "http://loinc.org",
              "display": "Erythrocytes [#/volume] in Blood by Automated count"
            }
          ],
          "text": "Erythrocytes [#/volume] in Blood by Automated count"
        },
        "valueQuantity": {
          "system": "http://unitsofmeasure.org",
          "value": 5.2,
          "unit": "10*6/uL",
          "code": "10*6/uL"
        },
        "referenceRange": [
          {
            "low": {
              "value": 4.5,
              "code": "10*6/uL",
              "system": "http://unitsofmeasure.org"
            }
          },
          {
            "high": {
              "value": 5.7,
              "code": "10*6/uL",
              "system": "http://unitsofmeasure.org"
            }
          }
        ],
        "text": {
          "status": "generated",
          "div": "<div xmlns=\"http://www.w3.org/1999/xhtml\"><table class=\"hl7__eu__lab__report\"><tr><th>Test</th><th>03-May-2021</th><th>Reference&#xA0;Range</th><th>Unit</th></tr><tr><td>Erythrocytes [#/volume] in Blood by Automated count</td><td>5.2</td><td>4.5 - 5.7</td><td></td><td>10*6/uL</td></tr></table></div>"
        },
        "status": "final",
        "subject": {
          "reference": "urn:uuid:642bdaa0-c84b-4d51-bd06-b812e7ccd383",
          "display": "Stephen Weinhage"
        },
        "effectiveDateTime": "2021-05-03T06:55:50Z",
        "specimen": {
          "reference": "urn:uuid:59b193af-386c-44db-acf2-8c3cc2e8228c"
        }
      }
    },
    {
      "fullUrl": "urn:uuid:408e7552-120e-4513-9612-da05692224da",
      "resource": {
        "resourceType": "Observation",
        "id": "408e7552-120e-4513-9612-da05692224da",
        "meta": {
          "profile": [
            "http://hl7.eu/fhir/laboratory/StructureDefinition/Observation-resultslab-eu-lab"
          ]
        },
        "performer": [
          {
            "display": "The Central European Lab"
          }
        ],
        "category": [
          {
            "coding": [
              {
                "system": "http://terminology.hl7.org/CodeSystem/observation-category",
                "code": "laboratory"
              }
            ]
          }
        ],
        "code": {
          "coding": [
            {
              "code": "718-7",
              "system": "http://loinc.org",
              "display": "Hemoglobin [Mass/volume] in Blood"
            }
          ],
          "text": "Hemoglobin [Mass/volume] in Blood"
        },
        "valueQuantity": {
          "system": "http://unitsofmeasure.org",
          "value": 16.5,
          "unit": "g/dL",
          "code": "g/dL"
        },
        "referenceRange": [
          {
            "low": {
              "value": 13.5,
              "code": "g/dL",
              "system": "http://unitsofmeasure.org"
            }
          },
          {
            "high": {
              "value": 17.5,
              "code": "g/dL",
              "system": "http://unitsofmeasure.org"
            }
          }
        ],
        "text": {
          "status": "generated",
          "div": "<div xmlns=\"http://www.w3.org/1999/xhtml\"><table class=\"hl7__eu__lab__report\"><tr><th>Test</th><th>03-May-2021</th><th>Reference&#xA0;Range</th><th>Unit</th></tr><tr><td>Hemoglobin [Mass/volume] in Blood</td><td>16.5</td><td>13.5 - 17.5</td><td></td><td>g/dL</td></tr></table></div>"
        },
        "status": "final",
        "subject": {
          "reference": "urn:uuid:642bdaa0-c84b-4d51-bd06-b812e7ccd383",
          "display": "Stephen Weinhage"
        },
        "effectiveDateTime": "2021-05-03T06:55:50Z",
        "specimen": {
          "reference": "urn:uuid:59b193af-386c-44db-acf2-8c3cc2e8228c"
        }
      }
    },
    {
      "fullUrl": "urn:uuid:0901eb22-8fe3-40ba-9f91-501dee185ffb",
      "resource": {
        "resourceType": "Observation",
        "id": "0901eb22-8fe3-40ba-9f91-501dee185ffb",
        "meta": {
          "profile": [
            "http://hl7.eu/fhir/laboratory/StructureDefinition/Observation-resultslab-eu-lab"
          ]
        },
        "performer": [
          {
            "display": "The Central European Lab"
          }
        ],
        "category": [
          {
            "coding": [
              {
                "system": "http://terminology.hl7.org/CodeSystem/observation-category",
                "code": "laboratory"
              }
            ]
          }
        ],
        "code": {
          "coding": [
            {
              "code": "4544-3",
              "system": "http://loinc.org",
              "display": "Hematocrit [Volume Fraction] of Blood by Automated count"
            }
          ],
          "text": "Hematocrit [Volume Fraction] of Blood by Automated count"
        },
        "valueQuantity": {
          "system": "http://unitsofmeasure.org",
          "value": 46,
          "unit": "%",
          "code": "%"
        },
        "referenceRange": [
          {
            "low": {
              "value": 38,
              "code": "%",
              "system": "http://unitsofmeasure.org"
            }
          },
          {
            "high": {
              "value": 50,
              "code": "%",
              "system": "http://unitsofmeasure.org"
            }
          }
        ],
        "text": {
          "status": "generated",
          "div": "<div xmlns=\"http://www.w3.org/1999/xhtml\"><table class=\"hl7__eu__lab__report\"><tr><th>Test</th><th>03-May-2021</th><th>Reference&#xA0;Range</th><th>Unit</th></tr><tr><td>Hematocrit [Volume Fraction] of Blood by Automated count</td><td>46.0</td><td>38 - 50</td><td></td><td>%</td></tr></table></div>"
        },
        "status": "final",
        "subject": {
          "reference": "urn:uuid:642bdaa0-c84b-4d51-bd06-b812e7ccd383",
          "display": "Stephen Weinhage"
        },
        "effectiveDateTime": "2021-05-03T06:55:50Z",
        "specimen": {
          "reference": "urn:uuid:59b193af-386c-44db-acf2-8c3cc2e8228c"
        }
      }
    },
    {
      "fullUrl": "urn:uuid:1f4054b6-bf18-4c95-acc8-7c21fa9b2be4",
      "resource": {
        "resourceType": "Observation",
        "id": "1f4054b6-bf18-4c95-acc8-7c21fa9b2be4",
        "meta": {
          "profile": [
            "http://hl7.eu/fhir/laboratory/StructureDefinition/Observation-resultslab-eu-lab"
          ]
        },
        "performer": [
          {
            "display": "The Central European Lab"
          }
        ],
        "category": [
          {
            "coding": [
              {
                "system": "http://terminology.hl7.org/CodeSystem/observation-category",
                "code": "laboratory"
              }
            ]
          }
        ],
        "code": {
          "coding": [
            {
              "code": "787-2",
              "system": "http://loinc.org",
              "display": "MCV [Entitic volume] by Automated count"
            }
          ],
          "text": "MCV [Entitic volume] by Automated count"
        },
        "valueQuantity": {
          "system": "http://unitsofmeasure.org",
          "value": 89.3,
          "unit": "fL",
          "code": "fL"
        },
        "referenceRange": [
          {
            "low": {
              "value": 76,
              "code": "fL",
              "system": "http://unitsofmeasure.org"
            }
          },
          {
            "high": {
              "value": 98,
              "code": "fL",
              "system": "http://unitsofmeasure.org"
            }
          }
        ],
        "text": {
          "status": "generated",
          "div": "<div xmlns=\"http://www.w3.org/1999/xhtml\"><table class=\"hl7__eu__lab__report\"><tr><th>Test</th><th>03-May-2021</th><th>Reference&#xA0;Range</th><th>Unit</th></tr><tr><td>MCV [Entitic volume] by Automated count</td><td>89.3</td><td>76 - 98</td><td></td><td>fL</td></tr></table></div>"
        },
        "status": "final",
        "subject": {
          "reference": "urn:uuid:642bdaa0-c84b-4d51-bd06-b812e7ccd383",
          "display": "Stephen Weinhage"
        },
        "effectiveDateTime": "2021-05-03T06:55:50Z",
        "specimen": {
          "reference": "urn:uuid:59b193af-386c-44db-acf2-8c3cc2e8228c"
        }
      }
    },
    {
      "fullUrl": "urn:uuid:4eee96b1-46d9-40cb-a45e-d7007b2fd41e",
      "resource": {
        "resourceType": "Observation",
        "id": "4eee96b1-46d9-40cb-a45e-d7007b2fd41e",
        "meta": {
          "profile": [
            "http://hl7.eu/fhir/laboratory/StructureDefinition/Observation-resultslab-eu-lab"
          ]
        },
        "performer": [
          {
            "display": "The Central European Lab"
          }
        ],
        "category": [
          {
            "coding": [
              {
                "system": "http://terminology.hl7.org/CodeSystem/observation-category",
                "code": "laboratory"
              }
            ]
          }
        ],
        "code": {
          "coding": [
            {
              "code": "785-6",
              "system": "http://loinc.org",
              "display": "MCH [Entitic mass] by Automated count"
            }
          ],
          "text": "MCH [Entitic mass] by Automated count"
        },
        "valueQuantity": {
          "system": "http://unitsofmeasure.org",
          "value": 29.7,
          "unit": "pg",
          "code": "pg"
        },
        "referenceRange": [
          {
            "low": {
              "value": 27,
              "code": "pg",
              "system": "http://unitsofmeasure.org"
            }
          },
          {
            "high": {
              "value": 33,
              "code": "pg",
              "system": "http://unitsofmeasure.org"
            }
          }
        ],
        "text": {
          "status": "generated",
          "div": "<div xmlns=\"http://www.w3.org/1999/xhtml\"><table class=\"hl7__eu__lab__report\"><tr><th>Test</th><th>03-May-2021</th><th>Reference&#xA0;Range</th><th>Unit</th></tr><tr><td>MCH [Entitic mass] by Automated count</td><td>29.7</td><td>27 - 33</td><td></td><td>pg</td></tr></table></div>"
        },
        "status": "final",
        "subject": {
          "reference": "urn:uuid:642bdaa0-c84b-4d51-bd06-b812e7ccd383",
          "display": "Stephen Weinhage"
        },
        "effectiveDateTime": "2021-05-03T06:55:50Z",
        "specimen": {
          "reference": "urn:uuid:59b193af-386c-44db-acf2-8c3cc2e8228c"
        }
      }
    },
    {
      "fullUrl": "urn:uuid:37cf336b-3a81-45aa-8258-7e4f654b02ce",
      "resource": {
        "resourceType": "Observation",
        "id": "37cf336b-3a81-45aa-8258-7e4f654b02ce",
        "meta": {
          "profile": [
            "http://hl7.eu/fhir/laboratory/StructureDefinition/Observation-resultslab-eu-lab"
          ]
        },
        "performer": [
          {
            "display": "The Central European Lab"
          }
        ],
        "category": [
          {
            "coding": [
              {
                "system": "http://terminology.hl7.org/CodeSystem/observation-category",
                "code": "laboratory"
              }
            ]
          }
        ],
        "code": {
          "coding": [
            {
              "code": "786-4",
              "system": "http://loinc.org",
              "display": "MCHC [Mass/volume] by Automated count"
            }
          ],
          "text": "MCHC [Mass/volume] by Automated count"
        },
        "valueQuantity": {
          "system": "http://unitsofmeasure.org",
          "value": 33.3,
          "unit": "g/dL",
          "code": "g/dL"
        },
        "referenceRange": [
          {
            "low": {
              "value": 31,
              "code": "g/dL",
              "system": "http://unitsofmeasure.org"
            }
          },
          {
            "high": {
              "value": 35,
              "code": "g/dL",
              "system": "http://unitsofmeasure.org"
            }
          }
        ],
        "text": {
          "status": "generated",
          "div": "<div xmlns=\"http://www.w3.org/1999/xhtml\"><table class=\"hl7__eu__lab__report\"><tr><th>Test</th><th>03-May-2021</th><th>Reference&#xA0;Range</th><th>Unit</th></tr><tr><td>MCHC [Mass/volume] by Automated count</td><td>33.3</td><td>31 - 35</td><td></td><td>g/dL</td></tr></table></div>"
        },
        "status": "final",
        "subject": {
          "reference": "urn:uuid:642bdaa0-c84b-4d51-bd06-b812e7ccd383",
          "display": "Stephen Weinhage"
        },
        "effectiveDateTime": "2021-05-03T06:55:50Z",
        "specimen": {
          "reference": "urn:uuid:59b193af-386c-44db-acf2-8c3cc2e8228c"
        }
      }
    },
    {
      "fullUrl": "urn:uuid:885a891d-51a5-4280-9960-035c9d346362",
      "resource": {
        "resourceType": "Observation",
        "id": "885a891d-51a5-4280-9960-035c9d346362",
        "meta": {
          "profile": [
            "http://hl7.eu/fhir/laboratory/StructureDefinition/Observation-resultslab-eu-lab"
          ]
        },
        "performer": [
          {
            "display": "The Central European Lab"
          }
        ],
        "category": [
          {
            "coding": [
              {
                "system": "http://terminology.hl7.org/CodeSystem/observation-category",
                "code": "laboratory"
              }
            ]
          }
        ],
        "code": {
          "coding": [
            {
              "code": "21000-5",
              "system": "http://loinc.org",
              "display": "Erythrocyte distribution width [Entitic volume] by Automated count"
            }
          ],
          "text": "Erythrocyte distribution width [Entitic volume] by Automated count"
        },
        "valueQuantity": {
          "system": "http://unitsofmeasure.org",
          "value": 41.1,
          "unit": "fL",
          "code": "fL"
        },
        "referenceRange": [
          {
            "low": {
              "value": 36,
              "code": "fL",
              "system": "http://unitsofmeasure.org"
            }
          },
          {
            "high": {
              "value": 55,
              "code": "fL",
              "system": "http://unitsofmeasure.org"
            }
          }
        ],
        "text": {
          "status": "generated",
          "div": "<div xmlns=\"http://www.w3.org/1999/xhtml\"><table class=\"hl7__eu__lab__report\"><tr><th>Test</th><th>03-May-2021</th><th>Reference&#xA0;Range</th><th>Unit</th></tr><tr><td>Erythrocyte distribution width [Entitic volume] by Automated count</td><td>41.1</td><td>36 - 55</td><td></td><td>fL</td></tr></table></div>"
        },
        "status": "final",
        "subject": {
          "reference": "urn:uuid:642bdaa0-c84b-4d51-bd06-b812e7ccd383",
          "display": "Stephen Weinhage"
        },
        "effectiveDateTime": "2021-05-03T06:55:50Z",
        "specimen": {
          "reference": "urn:uuid:59b193af-386c-44db-acf2-8c3cc2e8228c"
        }
      }
    },
    {
      "fullUrl": "urn:uuid:71ec5e56-e129-4d2b-a534-b44696f38f50",
      "resource": {
        "resourceType": "Observation",
        "id": "71ec5e56-e129-4d2b-a534-b44696f38f50",
        "meta": {
          "profile": [
            "http://hl7.eu/fhir/laboratory/StructureDefinition/Observation-resultslab-eu-lab"
          ]
        },
        "performer": [
          {
            "display": "The Central European Lab"
          }
        ],
        "category": [
          {
            "coding": [
              {
                "system": "http://terminology.hl7.org/CodeSystem/observation-category",
                "code": "laboratory"
              }
            ]
          }
        ],
        "code": {
          "coding": [
            {
              "code": "777-3",
              "system": "http://loinc.org",
              "display": "Platelets [#/volume] in Blood by Automated count"
            }
          ],
          "text": "Platelets [#/volume] in Blood by Automated count"
        },
        "valueQuantity": {
          "system": "http://unitsofmeasure.org",
          "value": 172.2,
          "unit": "10*3/uL",
          "code": "10*3/uL"
        },
        "referenceRange": [
          {
            "low": {
              "value": 140,
              "code": "10*3/uL",
              "system": "http://unitsofmeasure.org"
            }
          },
          {
            "high": {
              "value": 363,
              "code": "10*3/uL",
              "system": "http://unitsofmeasure.org"
            }
          }
        ],
        "text": {
          "status": "generated",
          "div": "<div xmlns=\"http://www.w3.org/1999/xhtml\"><table class=\"hl7__eu__lab__report\"><tr><th>Test</th><th>03-May-2021</th><th>Reference&#xA0;Range</th><th>Unit</th></tr><tr><td>Platelets [#/volume] in Blood by Automated count</td><td>172.2</td><td>140 - 363</td><td></td><td>10*3/uL</td></tr></table></div>"
        },
        "status": "final",
        "subject": {
          "reference": "urn:uuid:642bdaa0-c84b-4d51-bd06-b812e7ccd383",
          "display": "Stephen Weinhage"
        },
        "effectiveDateTime": "2021-05-03T06:55:50Z",
        "specimen": {
          "reference": "urn:uuid:59b193af-386c-44db-acf2-8c3cc2e8228c"
        }
      }
    },
    {
      "fullUrl": "urn:uuid:cd8a9396-d649-45b8-97c6-784d9c689b1b",
      "resource": {
        "resourceType": "Observation",
        "id": "cd8a9396-d649-45b8-97c6-784d9c689b1b",
        "meta": {
          "profile": [
            "http://hl7.eu/fhir/laboratory/StructureDefinition/Observation-resultslab-eu-lab"
          ]
        },
        "performer": [
          {
            "display": "The Central European Lab"
          }
        ],
        "category": [
          {
            "coding": [
              {
                "system": "http://terminology.hl7.org/CodeSystem/observation-category",
                "code": "laboratory"
              }
            ]
          }
        ],
        "code": {
          "coding": [
            {
              "code": "32207-3",
              "system": "http://loinc.org",
              "display": "Platelet distribution width [Entitic volume] in Blood by Automated count"
            }
          ],
          "text": "Platelet distribution width [Entitic volume] in Blood by Automated count"
        },
        "valueQuantity": {
          "system": "http://unitsofmeasure.org",
          "value": 440.4,
          "unit": "fL",
          "code": "fL"
        },
        "referenceRange": [
          {
            "low": {
              "value": 11.6,
              "code": "fL",
              "system": "http://unitsofmeasure.org"
            }
          },
          {
            "high": {
              "value": 17.4,
              "code": "fL",
              "system": "http://unitsofmeasure.org"
            }
          }
        ],
        "interpretation": [
          {
            "coding": [
              {
                "code": "H",
                "system": "http://terminology.hl7.org/CodeSystem/v3-ObservationInterpretation",
                "display": "High"
              }
            ]
          }
        ],
        "text": {
          "status": "generated",
          "div": "<div xmlns=\"http://www.w3.org/1999/xhtml\"><table class=\"hl7__eu__lab__report\"><tr><th>Test</th><th>03-May-2021</th><th>Reference&#xA0;Range</th><th>Unit</th></tr><tr><td>Platelet distribution width [Entitic volume] in Blood by Automated count</td><td>440.4</td><td>11.6 - 17.4</td><td>H</td><td>fL</td></tr></table></div>"
        },
        "status": "final",
        "subject": {
          "reference": "urn:uuid:642bdaa0-c84b-4d51-bd06-b812e7ccd383",
          "display": "Stephen Weinhage"
        },
        "effectiveDateTime": "2021-05-03T06:55:50Z",
        "specimen": {
          "reference": "urn:uuid:59b193af-386c-44db-acf2-8c3cc2e8228c"
        }
      }
    },
    {
      "fullUrl": "urn:uuid:59d004d8-6c96-44d4-9e56-c1f7aca00134",
      "resource": {
        "resourceType": "Observation",
        "id": "59d004d8-6c96-44d4-9e56-c1f7aca00134",
        "meta": {
          "profile": [
            "http://hl7.eu/fhir/laboratory/StructureDefinition/Observation-resultslab-eu-lab"
          ]
        },
        "performer": [
          {
            "display": "The Central European Lab"
          }
        ],
        "category": [
          {
            "coding": [
              {
                "system": "http://terminology.hl7.org/CodeSystem/observation-category",
                "code": "laboratory"
              }
            ]
          }
        ],
        "code": {
          "coding": [
            {
              "code": "32623-1",
              "system": "http://loinc.org",
              "display": "Platelet mean volume [Entitic volume] in Blood by Automated count"
            }
          ],
          "text": "Platelet mean volume [Entitic volume] in Blood by Automated count"
        },
        "valueQuantity": {
          "system": "http://unitsofmeasure.org",
          "value": 10.2,
          "unit": "fL",
          "code": "fL"
        },
        "referenceRange": [
          {
            "low": {
              "value": 9.8,
              "code": "fL",
              "system": "http://unitsofmeasure.org"
            }
          },
          {
            "high": {
              "value": 13.8,
              "code": "fL",
              "system": "http://unitsofmeasure.org"
            }
          }
        ],
        "text": {
          "status": "generated",
          "div": "<div xmlns=\"http://www.w3.org/1999/xhtml\"><table class=\"hl7__eu__lab__report\"><tr><th>Test</th><th>03-May-2021</th><th>Reference&#xA0;Range</th><th>Unit</th></tr><tr><td>Platelet mean volume [Entitic volume] in Blood by Automated count</td><td>10.2</td><td>9.8 - 13.8</td><td></td><td>fL</td></tr></table></div>"
        },
        "status": "final",
        "subject": {
          "reference": "urn:uuid:642bdaa0-c84b-4d51-bd06-b812e7ccd383",
          "display": "Stephen Weinhage"
        },
        "effectiveDateTime": "2021-05-03T06:55:50Z",
        "specimen": {
          "reference": "urn:uuid:59b193af-386c-44db-acf2-8c3cc2e8228c"
        }
      }
    },
    {
      "fullUrl": "urn:uuid:83500b9f-0092-402b-8aca-d8bc8015f2fa",
      "resource": {
        "resourceType": "Device",
        "id": "83500b9f-0092-402b-8aca-d8bc8015f2fa",
        "deviceName": [
          {
            "name": "SYNDERAI Synthetic Generator",
            "type": "manufacturer-name"
          }
        ],
        "version": [
          {
            "value": "5.0"
          }
        ],
        "text": {
          "status": "generated",
          "div": "<div xmlns=\"http://www.w3.org/1999/xhtml\">SYNDERAI Synthetic Generator v5.0</div>"
        },
        "status": "active\"",
        "distinctIdentifier": "synderai-generator-50",
        "manufacturer": "SYNDERAI Project"
      }
    },
    {
      "fullUrl": "urn:uuid:b847bbd0-9dd5-4f06-aa6c-619d3cdf5527",
      "resource": {
        "resourceType": "Provenance",
        "id": "b847bbd0-9dd5-4f06-aa6c-619d3cdf5527",
        "target": [
          {
            "reference": "Patient/642bdaa0-c84b-4d51-bd06-b812e7ccd383"
          },
          {
            "reference": "Bundle/68f9d4d4-b80c-4464-b903-5bb218695214"
          },
          {
            "reference": "Composition/3a353d2e-dfae-46f1-88b7-fec88f13dce5"
          },
          {
            "reference": "PractitionerRole/1047f655-9bf9-4fc7-80df-8232d9d75dab"
          },
          {
            "reference": "Practitioner/ef0c85b2-8331-458d-b092-2c7106bec502"
          },
          {
            "reference": "PractitionerRole/3abd83e2-6711-4295-9588-91030bb2a4d6"
          },
          {
            "reference": "Organization/5e909c65-8fc7-4445-83c9-7723e375ea2f"
          }
        ],
        "activity": {
          "text": "Synthetic Example Data Generation"
        },
        "policy": [
          "https://synderai.net/synderai-synthetic-data-policy"
        ],
        "agent": [
          {
            "type": {
              "text": "author"
            },
            "who": {
              "reference": "Device/83500b9f-0092-402b-8aca-d8bc8015f2fa"
            }
          }
        ],
        "reason": [
          {
            "text": "Interoperability Testing and Training (non-clinical use)"
          }
        ],
        "text": {
          "status": "generated",
          "div": "<div xmlns=\"http://www.w3.org/1999/xhtml\">Provenance for SYNDERAI Synthetic Example Data Resource</div>"
        },
        "recorded": "2021-05-03T08:55:50Z"
      }
    },
    {
      "fullUrl": "urn:uuid:1047f655-9bf9-4fc7-80df-8232d9d75dab",
      "resource": {
        "resourceType": "PractitionerRole",
        "id": "1047f655-9bf9-4fc7-80df-8232d9d75dab",
        "meta": {
          "profile": [
            "http://hl7.eu/fhir/base/StructureDefinition/practitionerRole-eu"
          ]
        },
        "text": {
          "status": "generated",
          "div": "<div xmlns=\"http://www.w3.org/1999/xhtml\">Laboratory Role Id: 1047f655-9bf9-4fc7-80df-8232d9d75dab</div>"
        },
        "practitioner": {
          "reference": "urn:uuid:ef0c85b2-8331-458d-b092-2c7106bec502"
        }
      }
    },
    {
      "fullUrl": "urn:uuid:ef0c85b2-8331-458d-b092-2c7106bec502",
      "resource": {
        "resourceType": "Practitioner",
        "id": "ef0c85b2-8331-458d-b092-2c7106bec502",
        "meta": {
          "profile": [
            "http://hl7.eu/fhir/base/StructureDefinition/practitioner-eu"
          ]
        },
        "identifier": [
          {
            "assigner": {
              "display": "HL7 Europe"
            },
            "system": "urn:oid:2.16.840.1.113883.2.51.999",
            "value": "f996f438-2cd1-4373-9091-5f913d16ad31"
          }
        ],
        "name": [
          {
            "prefix": [
              "dr"
            ],
            "given": [
              "Ex"
            ],
            "family": "Ample"
          }
        ],
        "address": [
          {
            "line": [
              "Laboratoire Central Européenne",
              "Boulevard du Jardin Botanique 32"
            ],
            "postalCode": "1000",
            "city": "Brussels",
            "country": "Belgium"
          }
        ],
        "text": {
          "status": "generated",
          "div": "<div xmlns=\"http://www.w3.org/1999/xhtml\">Laboratory: Laboratoire Central Européenne, 1000 Brussels, Belgium</div>"
        }
      }
    }
  ],
  "type": "document",
  "timestamp": "2021-05-03T08:55:50Z"
}
