{
  "resourceType": "Bundle",
  "id": "0609e9e5-4901-40a3-ae5e-4dd978a638d0",
  "meta": {
    "profile": [
      "http://hl7.eu/fhir/laboratory/StructureDefinition/Bundle-eu-lab"
    ]
  },
  "identifier": {
    "assigner": {
      "display": "HL7 Europe"
    },
    "system": "urn:oid:2.16.840.1.113883.2.51.999",
    "value": "75a377c1-c6d6-4940-849c-8a01e78c9f42"
  },
  "entry": [
    {
      "fullUrl": "urn:uuid:05f06568-68c9-47d5-8fbb-21810b7e0436",
      "resource": {
        "resourceType": "Composition",
        "id": "05f06568-68c9-47d5-8fbb-21810b7e0436",
        "meta": {
          "profile": [
            "http://hl7.eu/fhir/laboratory/StructureDefinition/Composition-eu-lab"
          ]
        },
        "identifier": {
          "assigner": {
            "display": "HL7 Europe"
          },
          "system": "urn:oid:2.16.840.1.113883.2.51.999",
          "value": "5f65b2ad-eb0d-4d74-8f65-b48ffe2527a9"
        },
        "author": [
          {
            "reference": "urn:uuid:5bcf0f0b-9b08-4ef6-9aa1-3e295d09577d"
          }
        ],
        "category": [
          {
            "coding": [
              {
                "code": "26436-6",
                "system": "http://loinc.org",
                "display": "Laboratory studies (set)"
              }
            ]
          }
        ],
        "type": {
          "coding": [
            {
              "code": "11502-2",
              "system": "http://loinc.org",
              "display": "Laboratory report"
            }
          ],
          "text": "Laboratory Report"
        },
        "section": [
          {
            "code": {
              "coding": [
                {
                  "code": "26436-6",
                  "system": "http://loinc.org",
                  "display": "Laboratory studies (set)"
                }
              ],
              "text": "Laboratory studies"
            },
            "section": [
              {
                "code": {
                  "coding": [
                    {
                      "code": "$18719-5",
                      "system": "http://loinc.org",
                      "display": "Chemistry studies (set)"
                    }
                  ],
                  "text": "Chemistry"
                },
                "entry": [
                  {
                    "reference": "urn:uuid:483b2160-f698-4a00-bfe0-e040891d5905"
                  },
                  {
                    "reference": "urn:uuid:f0fec54a-f2e8-4bcc-94d2-74b33e170824"
                  },
                  {
                    "reference": "urn:uuid:c01aab41-f66b-4849-9672-7a71c0aeaf23"
                  },
                  {
                    "reference": "urn:uuid:f848ae6f-2566-4cb9-9eee-3e0b199378e5"
                  },
                  {
                    "reference": "urn:uuid:e8adff4a-9b49-42ad-b124-346cc8a46553"
                  },
                  {
                    "reference": "urn:uuid:a894b39d-e88e-470f-8495-ac04fdaa06fd"
                  },
                  {
                    "reference": "urn:uuid:d4f45a0a-cb2d-44db-9c70-4dc4ccd03803"
                  },
                  {
                    "reference": "urn:uuid:1256836b-c8d0-4cb3-81f5-b1a61fc66f27"
                  },
                  {
                    "reference": "urn:uuid:a79efd4f-adc6-48ff-98cf-8b87b06e7bd5"
                  },
                  {
                    "reference": "urn:uuid:00d30f03-921a-444e-8ab3-2c212823ad5c"
                  },
                  {
                    "reference": "urn:uuid:9650d968-f2e5-4f53-bfec-d63d59ce2b89"
                  },
                  {
                    "reference": "urn:uuid:3de20c82-621c-4217-a40c-8935cbdbfb4b"
                  },
                  {
                    "reference": "urn:uuid:8d3abecf-a8fc-49c0-943b-fc53fbad9eb3"
                  },
                  {
                    "reference": "urn:uuid:981d9d63-af97-4c7f-9593-845296e4100f"
                  },
                  {
                    "reference": "urn:uuid:2ebbe693-95de-4b7c-91fe-8f0f0b9a05a8"
                  },
                  {
                    "reference": "urn:uuid:b57182cf-964b-4232-97c1-b7c2976a3d10"
                  }
                ],
                "text": {
                  "status": "generated",
                  "div": "<div xmlns=\"http://www.w3.org/1999/xhtml\"><h3>Chemistry</h3><table class=\"hl7__eu__lab__report\"><thead><tr><th>Test</th><th>26-DEC-2016</th><th>Reference&#xA0;Range</th><th>Unit</th></tr></thead><tbody><tr><td>Glucose [Mass/volume] in Blood</td><td><strong>67.1 L</strong></td><td>70 - 140</td><td>mg/dL</td></tr><tr><td>Urea nitrogen [Mass/volume] in Blood</td><td>9.6</td><td>7 - 30</td><td>mg/dL</td></tr><tr><td>Creatinine [Mass/volume] in Blood</td><td><strong>3.3 H</strong></td><td>0.5 - 1.3</td><td>mg/dL</td></tr><tr><td>Calcium [Mass/volume] in Blood</td><td>9.5</td><td>8.6 - 10.2</td><td>mg/dL</td></tr><tr><td>Sodium [Moles/volume] in Blood</td><td>137.7</td><td>135 - 145</td><td>mmol/L</td></tr><tr><td>Potassium [Moles/volume] in Blood</td><td>4.9</td><td>3.5 - 5.1</td><td>mmol/L</td></tr><tr><td>Chloride [Moles/volume] in Blood</td><td>106.5</td><td>98 - 114</td><td>mmol/L</td></tr><tr><td>Carbon dioxide, total [Moles/volume] in Blood</td><td>29.0</td><td>22 - 32</td><td>mmol/L</td></tr><tr><td>Protein [Mass/volume] in Serum or Plasma</td><td>6.9</td><td>6 - 8.3</td><td>g/dL</td></tr><tr><td>Albumin [Mass/volume] in Serum or Plasma</td><td>3.9</td><td>3.5 - 5.5</td><td>g/dL</td></tr><tr><td>Globulin [Mass/volume] in Serum by calculation</td><td>2.7</td><td>2 - 3.5</td><td>g/L</td></tr><tr><td>Bilirubin.total [Mass/volume] in Serum or Plasma</td><td>0.5</td><td>0.3 - 1.2</td><td>mg/dL</td></tr><tr><td>Alkaline phosphatase [Enzymatic activity/volume] in Serum or Plasma</td><td>98.8</td><td>44 - 142</td><td>U/L</td></tr><tr><td>Alanine aminotransferase [Enzymatic activity/volume] in Serum or Plasma</td><td>24.9</td><td>7 - 40</td><td>U/L</td></tr><tr><td>Aspartate aminotransferase [Enzymatic activity/volume] in Serum or Plasma</td><td><strong>9.1 L</strong></td><td>10 - 40</td><td>U/L</td></tr><tr><td>Ketones [Presence] in Urine by Test strip</td><td>Urine ketone test = +++</td><td></td><td></td></tr></tbody></table></div>"
                },
                "title": "Chemistry"
              },
              {
                "code": {
                  "coding": [
                    {
                      "code": "$18729-4",
                      "system": "http://loinc.org",
                      "display": "Urinalysis studies (set)"
                    }
                  ],
                  "text": "Urinalysis"
                },
                "entry": [
                  {
                    "reference": "urn:uuid:c098563d-78b3-423e-b85e-76dbd011a011"
                  },
                  {
                    "reference": "urn:uuid:bbfa079d-be7f-4378-a5e9-786023fa23db"
                  },
                  {
                    "reference": "urn:uuid:9291633f-1e09-4716-854c-e0639587479f"
                  },
                  {
                    "reference": "urn:uuid:4821ce80-4ba8-444e-be9f-03c14a5b24c4"
                  },
                  {
                    "reference": "urn:uuid:8c1794c5-f0f0-4b35-a6fe-dda0d2e536d2"
                  },
                  {
                    "reference": "urn:uuid:3a19aa3b-d853-4c97-afe4-570e262de5a1"
                  },
                  {
                    "reference": "urn:uuid:226487db-cb3b-49b7-84a3-e3080bb2faf1"
                  },
                  {
                    "reference": "urn:uuid:9072766a-db9c-4e4c-8f62-c261aeb43a93"
                  },
                  {
                    "reference": "urn:uuid:4e158af5-46ea-453e-856d-8a8528452f6b"
                  },
                  {
                    "reference": "urn:uuid:a7cccded-05a2-4b04-8ae1-711b9ed06cb2"
                  },
                  {
                    "reference": "urn:uuid:4e87731a-4f79-48d3-a608-bf9d69106efc"
                  },
                  {
                    "reference": "urn:uuid:20eab188-aa43-417a-8bea-3eefd91f70fb"
                  }
                ],
                "text": {
                  "status": "generated",
                  "div": "<div xmlns=\"http://www.w3.org/1999/xhtml\"><h3>Urinalysis</h3><table class=\"hl7__eu__lab__report\"><thead><tr><th>Test</th><th>26-DEC-2016</th><th>Reference&#xA0;Range</th><th>Unit</th></tr></thead><tbody><tr><td>Glucose [Mass/volume] in Urine by Test strip</td><td><strong>0.8 H</strong></td><td>0.8 - 0</td><td>mg/dL</td></tr><tr><td>Glucose [Presence] in Urine by Test strip</td><td>++</td><td></td><td></td></tr><tr><td>Bilirubin.total [Mass/volume] in Urine by Test strip</td><td>1.1</td><td>0 - 1.5</td><td>mg/dL</td></tr><tr><td>Bilirubin.total [Presence] in Urine by Test strip</td><td>Finding of bilirubin in urine</td><td></td><td></td></tr><tr><td>Ketones [Mass/volume] in Urine by Test strip</td><td>4.6</td><td>0 - 8</td><td>mg/dL</td></tr><tr><td>Specific gravity of Urine by Test strip</td><td><strong>1.0 L</strong></td><td>1.01 - 1.03</td><td>{nominal}</td></tr><tr><td>pH of Urine by Test strip</td><td>5.4</td><td>4.6 - 7.5</td><td>pH</td></tr><tr><td>Protein [Mass/volume] in Urine by Test strip</td><td><strong>433.7 H</strong></td><td>0 - 14</td><td>mg/dL</td></tr><tr><td>Protein [Presence] in Urine by Test strip</td><td>Urine protein test = +++</td><td></td><td></td></tr><tr><td>Nitrite [Presence] in Urine by Test strip</td><td>Urine nitrite negative</td><td></td><td></td></tr><tr><td>Hemoglobin [Presence] in Urine by Test strip</td><td>Urine blood test = negative</td><td></td><td></td></tr><tr><td>Leukocyte esterase [Presence] in Urine by Test strip</td><td>Urine leukocyte test negative</td><td></td><td></td></tr></tbody></table></div>"
                },
                "title": "Urinalysis"
              },
              {
                "code": {
                  "coding": [
                    {
                      "code": "$LP7846-1",
                      "system": "http://loinc.org",
                      "display": "Specimen information"
                    }
                  ],
                  "text": "Specimen information"
                },
                "entry": [
                  {
                    "reference": "urn:uuid:cbcc6cea-62db-45c1-be34-b42f892cd54f"
                  },
                  {
                    "reference": "urn:uuid:bbfd5c8c-31a9-460a-8c24-a91e83105784"
                  },
                  {
                    "reference": "urn:uuid:61edae72-a116-4206-93cd-8d56968d3dda"
                  },
                  {
                    "reference": "urn:uuid:5047427c-96a4-4566-94a2-626dcfe5effd"
                  }
                ],
                "text": {
                  "status": "generated",
                  "div": "<div xmlns=\"http://www.w3.org/1999/xhtml\"><h3>Specimen information</h3><table class=\"hl7__eu__lab__report\"><thead><tr><th>Test</th><th>26-DEC-2016</th><th>Specimen</th><th></th></tr></thead><tbody><tr><td>Appearance of Urine</td><td>Cloudy urine</td><td>Urine</td><td></td></tr><tr><td>Odor of Urine</td><td>Urine smell ammoniacal</td><td>Urine</td><td></td></tr><tr><td>Clarity of Urine</td><td>Translucent</td><td>Urine</td><td></td></tr><tr><td>Color of Urine</td><td>Brown color</td><td>Urine</td><td></td></tr></tbody></table></div>"
                },
                "title": "Specimen information"
              }
            ],
            "title": "Laboratory Report"
          },
          {
            "text": {
              "status": "generated",
              "div": "<div xmlns=\"http://www.w3.org/1999/xhtml\"><h3>Annotation</h3><table class=\"hl7__eu__lab__report\"><tr><th>Conclusion and Recommendations based on this report and previous findings known to us</th></tr><tr><td>The patient shows significant renal impairment (elevated creatinine, marked proteinuria), hypoglycemia, and abnormal urine findings (cloudy, brown, low specific gravity, proteinuria, glucosuria, ketonuria). Liver and electrolyte parameters are within normal limits. No evidence of urinary tract infection. Findings are suggestive of acute or chronic kidney disease with possible nephrotic features; clinical correlation and further nephrological evaluation are recommended.</td></tr></table></div>"
            },
            "code": {
              "coding": [
                {
                  "system": "http://loinc.org",
                  "code": "48767-8",
                  "display": "Annotation comment"
                }
              ]
            },
            "title": "Annotation comment"
          }
        ],
        "status": "final",
        "subject": {
          "reference": "urn:uuid:b148f89b-6b4a-4df1-af56-9ae878fb6d65",
          "display": "Maria Nohlmans"
        },
        "date": "2016-12-26T11:41:39Z",
        "title": "Laboratory Report",
        "confidentiality": "N"
      }
    },
    {
      "fullUrl": "urn:uuid:e28faea1-c89d-460b-8501-402b880dd0a1",
      "resource": {
        "resourceType": "DiagnosticReport",
        "id": "e28faea1-c89d-460b-8501-402b880dd0a1",
        "meta": {
          "profile": [
            "http://hl7.eu/fhir/laboratory/StructureDefinition/DiagnosticReport-eu-lab"
          ]
        },
        "identifier": [
          {
            "assigner": {
              "display": "HL7 Europe"
            },
            "system": "urn:oid:2.16.840.1.113883.2.51.999",
            "value": "88bf9dd7-813b-42b2-8381-be9777011a00"
          }
        ],
        "extension": [
          {
            "url": "http://hl7.org/fhir/5.0/StructureDefinition/extension-DiagnosticReport.composition",
            "valueReference": {
              "reference": "urn:uuid:5f65b2ad-eb0d-4d74-8f65-b48ffe2527a9"
            }
          }
        ],
        "category": [
          {
            "coding": [
              {
                "code": "26436-6",
                "system": "http://loinc.org",
                "display": "Laboratory studies (set)"
              }
            ]
          }
        ],
        "specimen": [
          {
            "reference": "urn:uuid:f03dbce6-b0da-4502-b704-b131180aad80"
          },
          {
            "reference": "urn:uuid:e8999eda-be7e-4d6e-bc32-39a1b820f3d8"
          },
          {
            "reference": "urn:uuid:dd237867-aded-47df-b060-36a9afb241dd"
          },
          {
            "reference": "urn:uuid:707663e8-aafc-4a0e-98e8-756a08dbae2e"
          }
        ],
        "result": [
          {
            "reference": "urn:uuid:483b2160-f698-4a00-bfe0-e040891d5905"
          },
          {
            "reference": "urn:uuid:f0fec54a-f2e8-4bcc-94d2-74b33e170824"
          },
          {
            "reference": "urn:uuid:c01aab41-f66b-4849-9672-7a71c0aeaf23"
          },
          {
            "reference": "urn:uuid:f848ae6f-2566-4cb9-9eee-3e0b199378e5"
          },
          {
            "reference": "urn:uuid:e8adff4a-9b49-42ad-b124-346cc8a46553"
          },
          {
            "reference": "urn:uuid:a894b39d-e88e-470f-8495-ac04fdaa06fd"
          },
          {
            "reference": "urn:uuid:d4f45a0a-cb2d-44db-9c70-4dc4ccd03803"
          },
          {
            "reference": "urn:uuid:1256836b-c8d0-4cb3-81f5-b1a61fc66f27"
          },
          {
            "reference": "urn:uuid:a79efd4f-adc6-48ff-98cf-8b87b06e7bd5"
          },
          {
            "reference": "urn:uuid:00d30f03-921a-444e-8ab3-2c212823ad5c"
          },
          {
            "reference": "urn:uuid:9650d968-f2e5-4f53-bfec-d63d59ce2b89"
          },
          {
            "reference": "urn:uuid:3de20c82-621c-4217-a40c-8935cbdbfb4b"
          },
          {
            "reference": "urn:uuid:8d3abecf-a8fc-49c0-943b-fc53fbad9eb3"
          },
          {
            "reference": "urn:uuid:981d9d63-af97-4c7f-9593-845296e4100f"
          },
          {
            "reference": "urn:uuid:2ebbe693-95de-4b7c-91fe-8f0f0b9a05a8"
          },
          {
            "reference": "urn:uuid:cbcc6cea-62db-45c1-be34-b42f892cd54f"
          },
          {
            "reference": "urn:uuid:bbfd5c8c-31a9-460a-8c24-a91e83105784"
          },
          {
            "reference": "urn:uuid:61edae72-a116-4206-93cd-8d56968d3dda"
          },
          {
            "reference": "urn:uuid:5047427c-96a4-4566-94a2-626dcfe5effd"
          },
          {
            "reference": "urn:uuid:c098563d-78b3-423e-b85e-76dbd011a011"
          },
          {
            "reference": "urn:uuid:bbfa079d-be7f-4378-a5e9-786023fa23db"
          },
          {
            "reference": "urn:uuid:9291633f-1e09-4716-854c-e0639587479f"
          },
          {
            "reference": "urn:uuid:4821ce80-4ba8-444e-be9f-03c14a5b24c4"
          },
          {
            "reference": "urn:uuid:8c1794c5-f0f0-4b35-a6fe-dda0d2e536d2"
          },
          {
            "reference": "urn:uuid:b57182cf-964b-4232-97c1-b7c2976a3d10"
          },
          {
            "reference": "urn:uuid:3a19aa3b-d853-4c97-afe4-570e262de5a1"
          },
          {
            "reference": "urn:uuid:226487db-cb3b-49b7-84a3-e3080bb2faf1"
          },
          {
            "reference": "urn:uuid:9072766a-db9c-4e4c-8f62-c261aeb43a93"
          },
          {
            "reference": "urn:uuid:4e158af5-46ea-453e-856d-8a8528452f6b"
          },
          {
            "reference": "urn:uuid:a7cccded-05a2-4b04-8ae1-711b9ed06cb2"
          },
          {
            "reference": "urn:uuid:4e87731a-4f79-48d3-a608-bf9d69106efc"
          },
          {
            "reference": "urn:uuid:20eab188-aa43-417a-8bea-3eefd91f70fb"
          }
        ],
        "status": "registered",
        "code": {
          "coding": [
            {
              "code": "11502-2",
              "system": "http://loinc.org",
              "display": "Laboratory report"
            }
          ]
        },
        "subject": {
          "reference": "urn:uuid:b148f89b-6b4a-4df1-af56-9ae878fb6d65",
          "display": "Maria Nohlmans"
        }
      }
    },
    {
      "fullUrl": "urn:uuid:b148f89b-6b4a-4df1-af56-9ae878fb6d65",
      "resource": {
        "resourceType": "Patient",
        "id": "b148f89b-6b4a-4df1-af56-9ae878fb6d65",
        "meta": {
          "security": [
            {
              "system": "http://terminology.hl7.org/CodeSystem/v3-ActReason",
              "code": "HTEST"
            },
            {
              "system": "http://terminology.hl7.org/CodeSystem/v3-ActReason",
              "code": "TRAIN"
            }
          ],
          "tag": [
            {
              "system": "https://synderai.net/fhir/CodeSystem/tags",
              "code": "synthetic",
              "display": "SYNDERAI Synthetic data"
            }
          ],
          "profile": [
            "http://hl7.eu/fhir/base/StructureDefinition/patient-eu-core"
          ]
        },
        "identifier": [
          {
            "type": {
              "coding": [
                {
                  "code": "PT",
                  "system": "http://terminology.hl7.org/CodeSystem/v2-0203"
                }
              ]
            },
            "system": "http://ec.europa.eu/identifier/eci",
            "value": "6886-506417-1"
          },
          {
            "type": {
              "coding": [
                {
                  "code": "MR",
                  "system": "http://terminology.hl7.org/CodeSystem/v2-0203"
                }
              ]
            },
            "system": "http://local.setting.eu/identifier",
            "value": "2cb21ed6-b617-b1f3-2290-589a710de5ee"
          }
        ],
        "name": [
          {
            "family": "Nohlmans"
          },
          {
            "given": [
              "Maria"
            ]
          },
          {
            "text": "Maria Nohlmans"
          }
        ],
        "address": [
          {
            "line": [
              "Alfons-Wulff-Weg 1"
            ],
            "use": "home",
            "type": "physical",
            "postalCode": "25813",
            "city": "Husum",
            "country": "Germany"
          }
        ],
        "telecom": [
          {
            "system": "phone",
            "value": "+49(0)1911 105501"
          }
        ],
        "extension": [
          {
            "url": "http://hl7.org/fhir/StructureDefinition/patient-nationality",
            "valueCodeableConcept": {
              "coding": [
                {
                  "code": "DE",
                  "system": "http://hl7.org/fhir/ValueSet/country"
                }
              ]
            }
          }
        ],
        "text": {
          "status": "generated",
          "div": "<div xmlns=\"http://www.w3.org/1999/xhtml\"><table class=\"hl7__ips\"><tr><td>Maria Nohlmans</td><td>female</td><td>11-Jun-1947</td></tr></table></div>"
        },
        "gender": "female",
        "birthDate": "1947-06-11"
      }
    },
    {
      "fullUrl": "urn:uuid:eb90a98b-579d-49c6-9ac9-51e2ff1c7117",
      "resource": {
        "resourceType": "ServiceRequest",
        "id": "eb90a98b-579d-49c6-9ac9-51e2ff1c7117",
        "meta": {
          "profile": [
            "http://hl7.eu/fhir/laboratory/StructureDefinition/ServiceRequest-eu-lab"
          ]
        },
        "identifier": [
          {
            "system": "http://example.org",
            "value": "f7bf1a2d-f34d-46f4-bc41-643d73594990"
          }
        ],
        "specimen": [
          {
            "reference": "urn:uuid:f03dbce6-b0da-4502-b704-b131180aad80"
          },
          {
            "reference": "urn:uuid:e8999eda-be7e-4d6e-bc32-39a1b820f3d8"
          },
          {
            "reference": "urn:uuid:dd237867-aded-47df-b060-36a9afb241dd"
          },
          {
            "reference": "urn:uuid:707663e8-aafc-4a0e-98e8-756a08dbae2e"
          }
        ],
        "reasonCode": [
          {
            "coding": [
              {
                "code": "401314000",
                "system": "http://snomed.info/sct",
                "display": "Acute non-ST segment elevation myocardial infarction"
              }
            ]
          },
          {
            "coding": [
              {
                "code": "157141000119108",
                "system": "http://snomed.info/sct",
                "display": "Proteinuria due to type 2 diabetes mellitus"
              }
            ]
          },
          {
            "coding": [
              {
                "code": "237602007",
                "system": "http://snomed.info/sct",
                "display": "Metabolic syndrome X"
              }
            ]
          },
          {
            "coding": [
              {
                "code": "90781000119102",
                "system": "http://snomed.info/sct",
                "display": "Microalbuminuria due to type 2 diabetes mellitus"
              }
            ]
          },
          {
            "coding": [
              {
                "code": "127013003",
                "system": "http://snomed.info/sct",
                "display": "Disorder of kidney due to diabetes mellitus"
              }
            ]
          },
          {
            "coding": [
              {
                "code": "59621000",
                "system": "http://snomed.info/sct",
                "display": "Essential hypertension"
              }
            ]
          },
          {
            "coding": [
              {
                "code": "271737000",
                "system": "http://snomed.info/sct",
                "display": "Anemia"
              }
            ]
          },
          {
            "coding": [
              {
                "code": "15777000",
                "system": "http://snomed.info/sct",
                "display": "Prediabetes"
              }
            ]
          }
        ],
        "status": "active",
        "intent": "order",
        "code": {
          "coding": [
            {
              "code": "108252007",
              "system": "http://snomed.info/sct",
              "display": "Laboratory procedure"
            }
          ]
        },
        "subject": {
          "reference": "urn:uuid:b148f89b-6b4a-4df1-af56-9ae878fb6d65",
          "display": "Maria Nohlmans"
        },
        "requester": {
          "reference": "urn:uuid:02332694-643a-4893-929f-f17662d945cd"
        }
      }
    },
    {
      "fullUrl": "urn:uuid:02332694-643a-4893-929f-f17662d945cd",
      "resource": {
        "resourceType": "PractitionerRole",
        "id": "02332694-643a-4893-929f-f17662d945cd",
        "meta": {
          "profile": [
            "http://hl7.eu/fhir/base/StructureDefinition/practitionerRole-eu"
          ]
        },
        "text": {
          "status": "generated",
          "div": "<div xmlns=\"http://www.w3.org/1999/xhtml\">Provider Role Id: 02332694-643a-4893-929f-f17662d945cd</div>"
        },
        "organization": {
          "reference": "urn:uuid:a1f4ed8d-8bba-4913-9696-af6aae0e1801"
        }
      }
    },
    {
      "fullUrl": "urn:uuid:a1f4ed8d-8bba-4913-9696-af6aae0e1801",
      "resource": {
        "resourceType": "Organization",
        "id": "a1f4ed8d-8bba-4913-9696-af6aae0e1801",
        "meta": {
          "profile": [
            "http://hl7.eu/fhir/base/StructureDefinition/organization-eu"
          ]
        },
        "identifier": [
          {
            "assigner": {
              "display": "HL7 Europe"
            },
            "system": "urn:oid:2.16.840.1.113883.2.51.999",
            "value": "51cd2af5-6bd4-402b-8222-474ada08cdfa"
          }
        ],
        "address": [
          {
            "line": [
              "Brinckmannstraße 35"
            ],
            "city": "Husum",
            "postalCode": "25813",
            "country": "Germany"
          }
        ],
        "text": {
          "status": "generated",
          "div": "<div xmlns=\"http://www.w3.org/1999/xhtml\">Provider Organization: Dr. Wolfram Hussels Kieferorthopäde</div>"
        },
        "name": "Dr. Wolfram Hussels Kieferorthopäde"
      }
    },
    {
      "fullUrl": "urn:uuid:f03dbce6-b0da-4502-b704-b131180aad80",
      "resource": {
        "resourceType": "Specimen",
        "id": "f03dbce6-b0da-4502-b704-b131180aad80",
        "meta": {
          "profile": [
            "http://hl7.eu/fhir/laboratory/StructureDefinition/Specimen-eu-lab"
          ]
        },
        "collection": {
          "collectedDateTime": "2016-12-26"
        },
        "text": {
          "status": "generated",
          "div": "<div xmlns=\"http://www.w3.org/1999/xhtml\"><table class=\"hl7__eu__lab__report\"><tr><th>Specimen</th><th>Collection Date</th></tr><tr><td>Whole blood specimen (specimen)</td><td><span class=\"nb\">26-Dec-2016</span></td></tr></table></div>"
        },
        "type": {
          "coding": [
            {
              "code": "258580003",
              "system": "http://snomed.info/sct",
              "display": "Whole blood specimen (specimen)"
            }
          ]
        }
      }
    },
    {
      "fullUrl": "urn:uuid:e8999eda-be7e-4d6e-bc32-39a1b820f3d8",
      "resource": {
        "resourceType": "Specimen",
        "id": "e8999eda-be7e-4d6e-bc32-39a1b820f3d8",
        "meta": {
          "profile": [
            "http://hl7.eu/fhir/laboratory/StructureDefinition/Specimen-eu-lab"
          ]
        },
        "collection": {
          "collectedDateTime": "2016-12-26"
        },
        "text": {
          "status": "generated",
          "div": "<div xmlns=\"http://www.w3.org/1999/xhtml\"><table class=\"hl7__eu__lab__report\"><tr><th>Specimen</th><th>Collection Date</th></tr><tr><td>Acellular blood (serum or plasma) specimen</td><td><span class=\"nb\">26-Dec-2016</span></td></tr></table></div>"
        },
        "type": {
          "coding": [
            {
              "code": "122592007",
              "system": "http://snomed.info/sct",
              "display": "Acellular blood (serum or plasma) specimen"
            }
          ]
        }
      }
    },
    {
      "fullUrl": "urn:uuid:dd237867-aded-47df-b060-36a9afb241dd",
      "resource": {
        "resourceType": "Specimen",
        "id": "dd237867-aded-47df-b060-36a9afb241dd",
        "meta": {
          "profile": [
            "http://hl7.eu/fhir/laboratory/StructureDefinition/Specimen-eu-lab"
          ]
        },
        "collection": {
          "collectedDateTime": "2016-12-26"
        },
        "text": {
          "status": "generated",
          "div": "<div xmlns=\"http://www.w3.org/1999/xhtml\"><table class=\"hl7__eu__lab__report\"><tr><th>Specimen</th><th>Collection Date</th></tr><tr><td>Serum specimen</td><td><span class=\"nb\">26-Dec-2016</span></td></tr></table></div>"
        },
        "type": {
          "coding": [
            {
              "code": "119364003",
              "system": "http://snomed.info/sct",
              "display": "Serum specimen"
            }
          ]
        }
      }
    },
    {
      "fullUrl": "urn:uuid:707663e8-aafc-4a0e-98e8-756a08dbae2e",
      "resource": {
        "resourceType": "Specimen",
        "id": "707663e8-aafc-4a0e-98e8-756a08dbae2e",
        "meta": {
          "profile": [
            "http://hl7.eu/fhir/laboratory/StructureDefinition/Specimen-eu-lab"
          ]
        },
        "collection": {
          "collectedDateTime": "2016-12-26"
        },
        "text": {
          "status": "generated",
          "div": "<div xmlns=\"http://www.w3.org/1999/xhtml\"><table class=\"hl7__eu__lab__report\"><tr><th>Specimen</th><th>Collection Date</th></tr><tr><td>Urine specimen</td><td><span class=\"nb\">26-Dec-2016</span></td></tr></table></div>"
        },
        "type": {
          "coding": [
            {
              "code": "122575003",
              "system": "http://snomed.info/sct",
              "display": "Urine specimen"
            }
          ]
        }
      }
    },
    {
      "fullUrl": "urn:uuid:483b2160-f698-4a00-bfe0-e040891d5905",
      "resource": {
        "resourceType": "Observation",
        "id": "483b2160-f698-4a00-bfe0-e040891d5905",
        "meta": {
          "profile": [
            "http://hl7.eu/fhir/laboratory/StructureDefinition/Observation-resultslab-eu-lab"
          ]
        },
        "performer": [
          {
            "display": "The Central European Lab"
          }
        ],
        "category": [
          {
            "coding": [
              {
                "system": "http://terminology.hl7.org/CodeSystem/observation-category",
                "code": "laboratory"
              }
            ]
          }
        ],
        "code": {
          "coding": [
            {
              "code": "2339-0",
              "system": "http://loinc.org",
              "display": "Glucose [Mass/volume] in Blood"
            }
          ],
          "text": "Glucose [Mass/volume] in Blood"
        },
        "valueQuantity": {
          "system": "http://unitsofmeasure.org",
          "value": 67.1,
          "unit": "mg/dL",
          "code": "mg/dL"
        },
        "referenceRange": [
          {
            "low": {
              "value": 70,
              "code": "mg/dL",
              "system": "http://unitsofmeasure.org"
            }
          },
          {
            "high": {
              "value": 140,
              "code": "mg/dL",
              "system": "http://unitsofmeasure.org"
            }
          }
        ],
        "interpretation": [
          {
            "coding": [
              {
                "code": "L",
                "system": "http://terminology.hl7.org/CodeSystem/v3-ObservationInterpretation",
                "display": "Low"
              }
            ]
          }
        ],
        "text": {
          "status": "generated",
          "div": "<div xmlns=\"http://www.w3.org/1999/xhtml\"><table class=\"hl7__eu__lab__report\"><tr><th>Test</th><th>26-Dec-2016</th><th>Reference&#xA0;Range</th><th>Unit</th></tr><tr><td>Glucose [Mass/volume] in Blood</td><td>67.1</td><td>70 - 140</td><td>L</td><td>mg/dL</td></tr></table></div>"
        },
        "status": "final",
        "subject": {
          "reference": "urn:uuid:b148f89b-6b4a-4df1-af56-9ae878fb6d65",
          "display": "Maria Nohlmans"
        },
        "effectiveDateTime": "2016-12-26T10:41:39Z",
        "specimen": {
          "reference": "urn:uuid:f03dbce6-b0da-4502-b704-b131180aad80"
        }
      }
    },
    {
      "fullUrl": "urn:uuid:f0fec54a-f2e8-4bcc-94d2-74b33e170824",
      "resource": {
        "resourceType": "Observation",
        "id": "f0fec54a-f2e8-4bcc-94d2-74b33e170824",
        "meta": {
          "profile": [
            "http://hl7.eu/fhir/laboratory/StructureDefinition/Observation-resultslab-eu-lab"
          ]
        },
        "performer": [
          {
            "display": "The Central European Lab"
          }
        ],
        "category": [
          {
            "coding": [
              {
                "system": "http://terminology.hl7.org/CodeSystem/observation-category",
                "code": "laboratory"
              }
            ]
          }
        ],
        "code": {
          "coding": [
            {
              "code": "6299-2",
              "system": "http://loinc.org",
              "display": "Urea nitrogen [Mass/volume] in Blood"
            }
          ],
          "text": "Urea nitrogen [Mass/volume] in Blood"
        },
        "valueQuantity": {
          "system": "http://unitsofmeasure.org",
          "value": 9.6,
          "unit": "mg/dL",
          "code": "mg/dL"
        },
        "referenceRange": [
          {
            "low": {
              "value": 7,
              "code": "mg/dL",
              "system": "http://unitsofmeasure.org"
            }
          },
          {
            "high": {
              "value": 30,
              "code": "mg/dL",
              "system": "http://unitsofmeasure.org"
            }
          }
        ],
        "text": {
          "status": "generated",
          "div": "<div xmlns=\"http://www.w3.org/1999/xhtml\"><table class=\"hl7__eu__lab__report\"><tr><th>Test</th><th>26-Dec-2016</th><th>Reference&#xA0;Range</th><th>Unit</th></tr><tr><td>Urea nitrogen [Mass/volume] in Blood</td><td>9.6</td><td>7 - 30</td><td></td><td>mg/dL</td></tr></table></div>"
        },
        "status": "final",
        "subject": {
          "reference": "urn:uuid:b148f89b-6b4a-4df1-af56-9ae878fb6d65",
          "display": "Maria Nohlmans"
        },
        "effectiveDateTime": "2016-12-26T10:41:39Z",
        "specimen": {
          "reference": "urn:uuid:f03dbce6-b0da-4502-b704-b131180aad80"
        }
      }
    },
    {
      "fullUrl": "urn:uuid:c01aab41-f66b-4849-9672-7a71c0aeaf23",
      "resource": {
        "resourceType": "Observation",
        "id": "c01aab41-f66b-4849-9672-7a71c0aeaf23",
        "meta": {
          "profile": [
            "http://hl7.eu/fhir/laboratory/StructureDefinition/Observation-resultslab-eu-lab"
          ]
        },
        "performer": [
          {
            "display": "The Central European Lab"
          }
        ],
        "category": [
          {
            "coding": [
              {
                "system": "http://terminology.hl7.org/CodeSystem/observation-category",
                "code": "laboratory"
              }
            ]
          }
        ],
        "code": {
          "coding": [
            {
              "code": "38483-4",
              "system": "http://loinc.org",
              "display": "Creatinine [Mass/volume] in Blood"
            }
          ],
          "text": "Creatinine [Mass/volume] in Blood"
        },
        "valueQuantity": {
          "system": "http://unitsofmeasure.org",
          "value": 3.3,
          "unit": "mg/dL",
          "code": "mg/dL"
        },
        "referenceRange": [
          {
            "low": {
              "value": 0.5,
              "code": "mg/dL",
              "system": "http://unitsofmeasure.org"
            }
          },
          {
            "high": {
              "value": 1.3,
              "code": "mg/dL",
              "system": "http://unitsofmeasure.org"
            }
          }
        ],
        "interpretation": [
          {
            "coding": [
              {
                "code": "H",
                "system": "http://terminology.hl7.org/CodeSystem/v3-ObservationInterpretation",
                "display": "High"
              }
            ]
          }
        ],
        "text": {
          "status": "generated",
          "div": "<div xmlns=\"http://www.w3.org/1999/xhtml\"><table class=\"hl7__eu__lab__report\"><tr><th>Test</th><th>26-Dec-2016</th><th>Reference&#xA0;Range</th><th>Unit</th></tr><tr><td>Creatinine [Mass/volume] in Blood</td><td>3.3</td><td>0.5 - 1.3</td><td>H</td><td>mg/dL</td></tr></table></div>"
        },
        "status": "final",
        "subject": {
          "reference": "urn:uuid:b148f89b-6b4a-4df1-af56-9ae878fb6d65",
          "display": "Maria Nohlmans"
        },
        "effectiveDateTime": "2016-12-26T10:41:39Z",
        "specimen": {
          "reference": "urn:uuid:f03dbce6-b0da-4502-b704-b131180aad80"
        }
      }
    },
    {
      "fullUrl": "urn:uuid:f848ae6f-2566-4cb9-9eee-3e0b199378e5",
      "resource": {
        "resourceType": "Observation",
        "id": "f848ae6f-2566-4cb9-9eee-3e0b199378e5",
        "meta": {
          "profile": [
            "http://hl7.eu/fhir/laboratory/StructureDefinition/Observation-resultslab-eu-lab"
          ]
        },
        "performer": [
          {
            "display": "The Central European Lab"
          }
        ],
        "category": [
          {
            "coding": [
              {
                "system": "http://terminology.hl7.org/CodeSystem/observation-category",
                "code": "laboratory"
              }
            ]
          }
        ],
        "code": {
          "coding": [
            {
              "code": "49765-1",
              "system": "http://loinc.org",
              "display": "Calcium [Mass/volume] in Blood"
            }
          ],
          "text": "Calcium [Mass/volume] in Blood"
        },
        "valueQuantity": {
          "system": "http://unitsofmeasure.org",
          "value": 9.5,
          "unit": "mg/dL",
          "code": "mg/dL"
        },
        "referenceRange": [
          {
            "low": {
              "value": 8.6,
              "code": "mg/dL",
              "system": "http://unitsofmeasure.org"
            }
          },
          {
            "high": {
              "value": 10.2,
              "code": "mg/dL",
              "system": "http://unitsofmeasure.org"
            }
          }
        ],
        "text": {
          "status": "generated",
          "div": "<div xmlns=\"http://www.w3.org/1999/xhtml\"><table class=\"hl7__eu__lab__report\"><tr><th>Test</th><th>26-Dec-2016</th><th>Reference&#xA0;Range</th><th>Unit</th></tr><tr><td>Calcium [Mass/volume] in Blood</td><td>9.5</td><td>8.6 - 10.2</td><td></td><td>mg/dL</td></tr></table></div>"
        },
        "status": "final",
        "subject": {
          "reference": "urn:uuid:b148f89b-6b4a-4df1-af56-9ae878fb6d65",
          "display": "Maria Nohlmans"
        },
        "effectiveDateTime": "2016-12-26T10:41:39Z",
        "specimen": {
          "reference": "urn:uuid:f03dbce6-b0da-4502-b704-b131180aad80"
        }
      }
    },
    {
      "fullUrl": "urn:uuid:e8adff4a-9b49-42ad-b124-346cc8a46553",
      "resource": {
        "resourceType": "Observation",
        "id": "e8adff4a-9b49-42ad-b124-346cc8a46553",
        "meta": {
          "profile": [
            "http://hl7.eu/fhir/laboratory/StructureDefinition/Observation-resultslab-eu-lab"
          ]
        },
        "performer": [
          {
            "display": "The Central European Lab"
          }
        ],
        "category": [
          {
            "coding": [
              {
                "system": "http://terminology.hl7.org/CodeSystem/observation-category",
                "code": "laboratory"
              }
            ]
          }
        ],
        "code": {
          "coding": [
            {
              "code": "2947-0",
              "system": "http://loinc.org",
              "display": "Sodium [Moles/volume] in Blood"
            }
          ],
          "text": "Sodium [Moles/volume] in Blood"
        },
        "valueQuantity": {
          "system": "http://unitsofmeasure.org",
          "value": 137.7,
          "unit": "mmol/L",
          "code": "mmol/L"
        },
        "referenceRange": [
          {
            "low": {
              "value": 135,
              "code": "mmol/L",
              "system": "http://unitsofmeasure.org"
            }
          },
          {
            "high": {
              "value": 145,
              "code": "mmol/L",
              "system": "http://unitsofmeasure.org"
            }
          }
        ],
        "text": {
          "status": "generated",
          "div": "<div xmlns=\"http://www.w3.org/1999/xhtml\"><table class=\"hl7__eu__lab__report\"><tr><th>Test</th><th>26-Dec-2016</th><th>Reference&#xA0;Range</th><th>Unit</th></tr><tr><td>Sodium [Moles/volume] in Blood</td><td>137.7</td><td>135 - 145</td><td></td><td>mmol/L</td></tr></table></div>"
        },
        "status": "final",
        "subject": {
          "reference": "urn:uuid:b148f89b-6b4a-4df1-af56-9ae878fb6d65",
          "display": "Maria Nohlmans"
        },
        "effectiveDateTime": "2016-12-26T10:41:39Z",
        "specimen": {
          "reference": "urn:uuid:f03dbce6-b0da-4502-b704-b131180aad80"
        }
      }
    },
    {
      "fullUrl": "urn:uuid:a894b39d-e88e-470f-8495-ac04fdaa06fd",
      "resource": {
        "resourceType": "Observation",
        "id": "a894b39d-e88e-470f-8495-ac04fdaa06fd",
        "meta": {
          "profile": [
            "http://hl7.eu/fhir/laboratory/StructureDefinition/Observation-resultslab-eu-lab"
          ]
        },
        "performer": [
          {
            "display": "The Central European Lab"
          }
        ],
        "category": [
          {
            "coding": [
              {
                "system": "http://terminology.hl7.org/CodeSystem/observation-category",
                "code": "laboratory"
              }
            ]
          }
        ],
        "code": {
          "coding": [
            {
              "code": "6298-4",
              "system": "http://loinc.org",
              "display": "Potassium [Moles/volume] in Blood"
            }
          ],
          "text": "Potassium [Moles/volume] in Blood"
        },
        "valueQuantity": {
          "system": "http://unitsofmeasure.org",
          "value": 4.9,
          "unit": "mmol/L",
          "code": "mmol/L"
        },
        "referenceRange": [
          {
            "low": {
              "value": 3.5,
              "code": "mmol/L",
              "system": "http://unitsofmeasure.org"
            }
          },
          {
            "high": {
              "value": 5.1,
              "code": "mmol/L",
              "system": "http://unitsofmeasure.org"
            }
          }
        ],
        "text": {
          "status": "generated",
          "div": "<div xmlns=\"http://www.w3.org/1999/xhtml\"><table class=\"hl7__eu__lab__report\"><tr><th>Test</th><th>26-Dec-2016</th><th>Reference&#xA0;Range</th><th>Unit</th></tr><tr><td>Potassium [Moles/volume] in Blood</td><td>4.9</td><td>3.5 - 5.1</td><td></td><td>mmol/L</td></tr></table></div>"
        },
        "status": "final",
        "subject": {
          "reference": "urn:uuid:b148f89b-6b4a-4df1-af56-9ae878fb6d65",
          "display": "Maria Nohlmans"
        },
        "effectiveDateTime": "2016-12-26T10:41:39Z",
        "specimen": {
          "reference": "urn:uuid:f03dbce6-b0da-4502-b704-b131180aad80"
        }
      }
    },
    {
      "fullUrl": "urn:uuid:d4f45a0a-cb2d-44db-9c70-4dc4ccd03803",
      "resource": {
        "resourceType": "Observation",
        "id": "d4f45a0a-cb2d-44db-9c70-4dc4ccd03803",
        "meta": {
          "profile": [
            "http://hl7.eu/fhir/laboratory/StructureDefinition/Observation-resultslab-eu-lab"
          ]
        },
        "performer": [
          {
            "display": "The Central European Lab"
          }
        ],
        "category": [
          {
            "coding": [
              {
                "system": "http://terminology.hl7.org/CodeSystem/observation-category",
                "code": "laboratory"
              }
            ]
          }
        ],
        "code": {
          "coding": [
            {
              "code": "2069-3",
              "system": "http://loinc.org",
              "display": "Chloride [Moles/volume] in Blood"
            }
          ],
          "text": "Chloride [Moles/volume] in Blood"
        },
        "valueQuantity": {
          "system": "http://unitsofmeasure.org",
          "value": 106.5,
          "unit": "mmol/L",
          "code": "mmol/L"
        },
        "referenceRange": [
          {
            "low": {
              "value": 98,
              "code": "mmol/L",
              "system": "http://unitsofmeasure.org"
            }
          },
          {
            "high": {
              "value": 114,
              "code": "mmol/L",
              "system": "http://unitsofmeasure.org"
            }
          }
        ],
        "text": {
          "status": "generated",
          "div": "<div xmlns=\"http://www.w3.org/1999/xhtml\"><table class=\"hl7__eu__lab__report\"><tr><th>Test</th><th>26-Dec-2016</th><th>Reference&#xA0;Range</th><th>Unit</th></tr><tr><td>Chloride [Moles/volume] in Blood</td><td>106.5</td><td>98 - 114</td><td></td><td>mmol/L</td></tr></table></div>"
        },
        "status": "final",
        "subject": {
          "reference": "urn:uuid:b148f89b-6b4a-4df1-af56-9ae878fb6d65",
          "display": "Maria Nohlmans"
        },
        "effectiveDateTime": "2016-12-26T10:41:39Z",
        "specimen": {
          "reference": "urn:uuid:f03dbce6-b0da-4502-b704-b131180aad80"
        }
      }
    },
    {
      "fullUrl": "urn:uuid:1256836b-c8d0-4cb3-81f5-b1a61fc66f27",
      "resource": {
        "resourceType": "Observation",
        "id": "1256836b-c8d0-4cb3-81f5-b1a61fc66f27",
        "meta": {
          "profile": [
            "http://hl7.eu/fhir/laboratory/StructureDefinition/Observation-resultslab-eu-lab"
          ]
        },
        "performer": [
          {
            "display": "The Central European Lab"
          }
        ],
        "category": [
          {
            "coding": [
              {
                "system": "http://terminology.hl7.org/CodeSystem/observation-category",
                "code": "laboratory"
              }
            ]
          }
        ],
        "code": {
          "coding": [
            {
              "code": "20565-8",
              "system": "http://loinc.org",
              "display": "Carbon dioxide, total [Moles/volume] in Blood"
            }
          ],
          "text": "Carbon dioxide, total [Moles/volume] in Blood"
        },
        "valueQuantity": {
          "system": "http://unitsofmeasure.org",
          "value": 29,
          "unit": "mmol/L",
          "code": "mmol/L"
        },
        "referenceRange": [
          {
            "low": {
              "value": 22,
              "code": "mmol/L",
              "system": "http://unitsofmeasure.org"
            }
          },
          {
            "high": {
              "value": 32,
              "code": "mmol/L",
              "system": "http://unitsofmeasure.org"
            }
          }
        ],
        "text": {
          "status": "generated",
          "div": "<div xmlns=\"http://www.w3.org/1999/xhtml\"><table class=\"hl7__eu__lab__report\"><tr><th>Test</th><th>26-Dec-2016</th><th>Reference&#xA0;Range</th><th>Unit</th></tr><tr><td>Carbon dioxide, total [Moles/volume] in Blood</td><td>29.0</td><td>22 - 32</td><td></td><td>mmol/L</td></tr></table></div>"
        },
        "status": "final",
        "subject": {
          "reference": "urn:uuid:b148f89b-6b4a-4df1-af56-9ae878fb6d65",
          "display": "Maria Nohlmans"
        },
        "effectiveDateTime": "2016-12-26T10:41:39Z",
        "specimen": {
          "reference": "urn:uuid:f03dbce6-b0da-4502-b704-b131180aad80"
        }
      }
    },
    {
      "fullUrl": "urn:uuid:a79efd4f-adc6-48ff-98cf-8b87b06e7bd5",
      "resource": {
        "resourceType": "Observation",
        "id": "a79efd4f-adc6-48ff-98cf-8b87b06e7bd5",
        "meta": {
          "profile": [
            "http://hl7.eu/fhir/laboratory/StructureDefinition/Observation-resultslab-eu-lab"
          ]
        },
        "performer": [
          {
            "display": "The Central European Lab"
          }
        ],
        "category": [
          {
            "coding": [
              {
                "system": "http://terminology.hl7.org/CodeSystem/observation-category",
                "code": "laboratory"
              }
            ]
          }
        ],
        "code": {
          "coding": [
            {
              "code": "2885-2",
              "system": "http://loinc.org",
              "display": "Protein [Mass/volume] in Serum or Plasma"
            }
          ],
          "text": "Protein [Mass/volume] in Serum or Plasma"
        },
        "valueQuantity": {
          "system": "http://unitsofmeasure.org",
          "value": 6.9,
          "unit": "g/dL",
          "code": "g/dL"
        },
        "referenceRange": [
          {
            "low": {
              "value": 6,
              "code": "g/dL",
              "system": "http://unitsofmeasure.org"
            }
          },
          {
            "high": {
              "value": 8.3,
              "code": "g/dL",
              "system": "http://unitsofmeasure.org"
            }
          }
        ],
        "text": {
          "status": "generated",
          "div": "<div xmlns=\"http://www.w3.org/1999/xhtml\"><table class=\"hl7__eu__lab__report\"><tr><th>Test</th><th>26-Dec-2016</th><th>Reference&#xA0;Range</th><th>Unit</th></tr><tr><td>Protein [Mass/volume] in Serum or Plasma</td><td>6.9</td><td>6 - 8.3</td><td></td><td>g/dL</td></tr></table></div>"
        },
        "status": "final",
        "subject": {
          "reference": "urn:uuid:b148f89b-6b4a-4df1-af56-9ae878fb6d65",
          "display": "Maria Nohlmans"
        },
        "effectiveDateTime": "2016-12-26T10:41:39Z",
        "specimen": {
          "reference": "urn:uuid:e8999eda-be7e-4d6e-bc32-39a1b820f3d8"
        }
      }
    },
    {
      "fullUrl": "urn:uuid:00d30f03-921a-444e-8ab3-2c212823ad5c",
      "resource": {
        "resourceType": "Observation",
        "id": "00d30f03-921a-444e-8ab3-2c212823ad5c",
        "meta": {
          "profile": [
            "http://hl7.eu/fhir/laboratory/StructureDefinition/Observation-resultslab-eu-lab"
          ]
        },
        "performer": [
          {
            "display": "The Central European Lab"
          }
        ],
        "category": [
          {
            "coding": [
              {
                "system": "http://terminology.hl7.org/CodeSystem/observation-category",
                "code": "laboratory"
              }
            ]
          }
        ],
        "code": {
          "coding": [
            {
              "code": "1751-7",
              "system": "http://loinc.org",
              "display": "Albumin [Mass/volume] in Serum or Plasma"
            }
          ],
          "text": "Albumin [Mass/volume] in Serum or Plasma"
        },
        "valueQuantity": {
          "system": "http://unitsofmeasure.org",
          "value": 3.9,
          "unit": "g/dL",
          "code": "g/dL"
        },
        "referenceRange": [
          {
            "low": {
              "value": 3.5,
              "code": "g/dL",
              "system": "http://unitsofmeasure.org"
            }
          },
          {
            "high": {
              "value": 5.5,
              "code": "g/dL",
              "system": "http://unitsofmeasure.org"
            }
          }
        ],
        "text": {
          "status": "generated",
          "div": "<div xmlns=\"http://www.w3.org/1999/xhtml\"><table class=\"hl7__eu__lab__report\"><tr><th>Test</th><th>26-Dec-2016</th><th>Reference&#xA0;Range</th><th>Unit</th></tr><tr><td>Albumin [Mass/volume] in Serum or Plasma</td><td>3.9</td><td>3.5 - 5.5</td><td></td><td>g/dL</td></tr></table></div>"
        },
        "status": "final",
        "subject": {
          "reference": "urn:uuid:b148f89b-6b4a-4df1-af56-9ae878fb6d65",
          "display": "Maria Nohlmans"
        },
        "effectiveDateTime": "2016-12-26T10:41:39Z",
        "specimen": {
          "reference": "urn:uuid:e8999eda-be7e-4d6e-bc32-39a1b820f3d8"
        }
      }
    },
    {
      "fullUrl": "urn:uuid:9650d968-f2e5-4f53-bfec-d63d59ce2b89",
      "resource": {
        "resourceType": "Observation",
        "id": "9650d968-f2e5-4f53-bfec-d63d59ce2b89",
        "meta": {
          "profile": [
            "http://hl7.eu/fhir/laboratory/StructureDefinition/Observation-resultslab-eu-lab"
          ]
        },
        "performer": [
          {
            "display": "The Central European Lab"
          }
        ],
        "category": [
          {
            "coding": [
              {
                "system": "http://terminology.hl7.org/CodeSystem/observation-category",
                "code": "laboratory"
              }
            ]
          }
        ],
        "code": {
          "coding": [
            {
              "code": "10834-0",
              "system": "http://loinc.org",
              "display": "Globulin [Mass/volume] in Serum by calculation"
            }
          ],
          "text": "Globulin [Mass/volume] in Serum by calculation"
        },
        "valueQuantity": {
          "system": "http://unitsofmeasure.org",
          "value": 2.7,
          "unit": "g/L",
          "code": "g/L"
        },
        "referenceRange": [
          {
            "low": {
              "value": 2,
              "code": "g/L",
              "system": "http://unitsofmeasure.org"
            }
          },
          {
            "high": {
              "value": 3.5,
              "code": "g/L",
              "system": "http://unitsofmeasure.org"
            }
          }
        ],
        "text": {
          "status": "generated",
          "div": "<div xmlns=\"http://www.w3.org/1999/xhtml\"><table class=\"hl7__eu__lab__report\"><tr><th>Test</th><th>26-Dec-2016</th><th>Reference&#xA0;Range</th><th>Unit</th></tr><tr><td>Globulin [Mass/volume] in Serum by calculation</td><td>2.7</td><td>2 - 3.5</td><td></td><td>g/L</td></tr></table></div>"
        },
        "status": "final",
        "subject": {
          "reference": "urn:uuid:b148f89b-6b4a-4df1-af56-9ae878fb6d65",
          "display": "Maria Nohlmans"
        },
        "effectiveDateTime": "2016-12-26T10:41:39Z",
        "specimen": {
          "reference": "urn:uuid:dd237867-aded-47df-b060-36a9afb241dd"
        }
      }
    },
    {
      "fullUrl": "urn:uuid:3de20c82-621c-4217-a40c-8935cbdbfb4b",
      "resource": {
        "resourceType": "Observation",
        "id": "3de20c82-621c-4217-a40c-8935cbdbfb4b",
        "meta": {
          "profile": [
            "http://hl7.eu/fhir/laboratory/StructureDefinition/Observation-resultslab-eu-lab"
          ]
        },
        "performer": [
          {
            "display": "The Central European Lab"
          }
        ],
        "category": [
          {
            "coding": [
              {
                "system": "http://terminology.hl7.org/CodeSystem/observation-category",
                "code": "laboratory"
              }
            ]
          }
        ],
        "code": {
          "coding": [
            {
              "code": "1975-2",
              "system": "http://loinc.org",
              "display": "Bilirubin.total [Mass/volume] in Serum or Plasma"
            }
          ],
          "text": "Bilirubin.total [Mass/volume] in Serum or Plasma"
        },
        "valueQuantity": {
          "system": "http://unitsofmeasure.org",
          "value": 0.5,
          "unit": "mg/dL",
          "code": "mg/dL"
        },
        "referenceRange": [
          {
            "low": {
              "value": 0.3,
              "code": "mg/dL",
              "system": "http://unitsofmeasure.org"
            }
          },
          {
            "high": {
              "value": 1.2,
              "code": "mg/dL",
              "system": "http://unitsofmeasure.org"
            }
          }
        ],
        "text": {
          "status": "generated",
          "div": "<div xmlns=\"http://www.w3.org/1999/xhtml\"><table class=\"hl7__eu__lab__report\"><tr><th>Test</th><th>26-Dec-2016</th><th>Reference&#xA0;Range</th><th>Unit</th></tr><tr><td>Bilirubin.total [Mass/volume] in Serum or Plasma</td><td>0.5</td><td>0.3 - 1.2</td><td></td><td>mg/dL</td></tr></table></div>"
        },
        "status": "final",
        "subject": {
          "reference": "urn:uuid:b148f89b-6b4a-4df1-af56-9ae878fb6d65",
          "display": "Maria Nohlmans"
        },
        "effectiveDateTime": "2016-12-26T10:41:39Z",
        "specimen": {
          "reference": "urn:uuid:e8999eda-be7e-4d6e-bc32-39a1b820f3d8"
        }
      }
    },
    {
      "fullUrl": "urn:uuid:8d3abecf-a8fc-49c0-943b-fc53fbad9eb3",
      "resource": {
        "resourceType": "Observation",
        "id": "8d3abecf-a8fc-49c0-943b-fc53fbad9eb3",
        "meta": {
          "profile": [
            "http://hl7.eu/fhir/laboratory/StructureDefinition/Observation-resultslab-eu-lab"
          ]
        },
        "performer": [
          {
            "display": "The Central European Lab"
          }
        ],
        "category": [
          {
            "coding": [
              {
                "system": "http://terminology.hl7.org/CodeSystem/observation-category",
                "code": "laboratory"
              }
            ]
          }
        ],
        "code": {
          "coding": [
            {
              "code": "6768-6",
              "system": "http://loinc.org",
              "display": "Alkaline phosphatase [Enzymatic activity/volume] in Serum or Plasma"
            }
          ],
          "text": "Alkaline phosphatase [Enzymatic activity/volume] in Serum or Plasma"
        },
        "valueQuantity": {
          "system": "http://unitsofmeasure.org",
          "value": 98.8,
          "unit": "U/L",
          "code": "U/L"
        },
        "referenceRange": [
          {
            "low": {
              "value": 44,
              "code": "U/L",
              "system": "http://unitsofmeasure.org"
            }
          },
          {
            "high": {
              "value": 142,
              "code": "U/L",
              "system": "http://unitsofmeasure.org"
            }
          }
        ],
        "text": {
          "status": "generated",
          "div": "<div xmlns=\"http://www.w3.org/1999/xhtml\"><table class=\"hl7__eu__lab__report\"><tr><th>Test</th><th>26-Dec-2016</th><th>Reference&#xA0;Range</th><th>Unit</th></tr><tr><td>Alkaline phosphatase [Enzymatic activity/volume] in Serum or Plasma</td><td>98.8</td><td>44 - 142</td><td></td><td>U/L</td></tr></table></div>"
        },
        "status": "final",
        "subject": {
          "reference": "urn:uuid:b148f89b-6b4a-4df1-af56-9ae878fb6d65",
          "display": "Maria Nohlmans"
        },
        "effectiveDateTime": "2016-12-26T10:41:39Z",
        "specimen": {
          "reference": "urn:uuid:e8999eda-be7e-4d6e-bc32-39a1b820f3d8"
        }
      }
    },
    {
      "fullUrl": "urn:uuid:981d9d63-af97-4c7f-9593-845296e4100f",
      "resource": {
        "resourceType": "Observation",
        "id": "981d9d63-af97-4c7f-9593-845296e4100f",
        "meta": {
          "profile": [
            "http://hl7.eu/fhir/laboratory/StructureDefinition/Observation-resultslab-eu-lab"
          ]
        },
        "performer": [
          {
            "display": "The Central European Lab"
          }
        ],
        "category": [
          {
            "coding": [
              {
                "system": "http://terminology.hl7.org/CodeSystem/observation-category",
                "code": "laboratory"
              }
            ]
          }
        ],
        "code": {
          "coding": [
            {
              "code": "1742-6",
              "system": "http://loinc.org",
              "display": "Alanine aminotransferase [Enzymatic activity/volume] in Serum or Plasma"
            }
          ],
          "text": "Alanine aminotransferase [Enzymatic activity/volume] in Serum or Plasma"
        },
        "valueQuantity": {
          "system": "http://unitsofmeasure.org",
          "value": 24.9,
          "unit": "U/L",
          "code": "U/L"
        },
        "referenceRange": [
          {
            "low": {
              "value": 7,
              "code": "U/L",
              "system": "http://unitsofmeasure.org"
            }
          },
          {
            "high": {
              "value": 40,
              "code": "U/L",
              "system": "http://unitsofmeasure.org"
            }
          }
        ],
        "text": {
          "status": "generated",
          "div": "<div xmlns=\"http://www.w3.org/1999/xhtml\"><table class=\"hl7__eu__lab__report\"><tr><th>Test</th><th>26-Dec-2016</th><th>Reference&#xA0;Range</th><th>Unit</th></tr><tr><td>Alanine aminotransferase [Enzymatic activity/volume] in Serum or Plasma</td><td>24.9</td><td>7 - 40</td><td></td><td>U/L</td></tr></table></div>"
        },
        "status": "final",
        "subject": {
          "reference": "urn:uuid:b148f89b-6b4a-4df1-af56-9ae878fb6d65",
          "display": "Maria Nohlmans"
        },
        "effectiveDateTime": "2016-12-26T10:41:39Z",
        "specimen": {
          "reference": "urn:uuid:e8999eda-be7e-4d6e-bc32-39a1b820f3d8"
        }
      }
    },
    {
      "fullUrl": "urn:uuid:2ebbe693-95de-4b7c-91fe-8f0f0b9a05a8",
      "resource": {
        "resourceType": "Observation",
        "id": "2ebbe693-95de-4b7c-91fe-8f0f0b9a05a8",
        "meta": {
          "profile": [
            "http://hl7.eu/fhir/laboratory/StructureDefinition/Observation-resultslab-eu-lab"
          ]
        },
        "performer": [
          {
            "display": "The Central European Lab"
          }
        ],
        "category": [
          {
            "coding": [
              {
                "system": "http://terminology.hl7.org/CodeSystem/observation-category",
                "code": "laboratory"
              }
            ]
          }
        ],
        "code": {
          "coding": [
            {
              "code": "1920-8",
              "system": "http://loinc.org",
              "display": "Aspartate aminotransferase [Enzymatic activity/volume] in Serum or Plasma"
            }
          ],
          "text": "Aspartate aminotransferase [Enzymatic activity/volume] in Serum or Plasma"
        },
        "valueQuantity": {
          "system": "http://unitsofmeasure.org",
          "value": 9.1,
          "unit": "U/L",
          "code": "U/L"
        },
        "referenceRange": [
          {
            "low": {
              "value": 10,
              "code": "U/L",
              "system": "http://unitsofmeasure.org"
            }
          },
          {
            "high": {
              "value": 40,
              "code": "U/L",
              "system": "http://unitsofmeasure.org"
            }
          }
        ],
        "interpretation": [
          {
            "coding": [
              {
                "code": "L",
                "system": "http://terminology.hl7.org/CodeSystem/v3-ObservationInterpretation",
                "display": "Low"
              }
            ]
          }
        ],
        "text": {
          "status": "generated",
          "div": "<div xmlns=\"http://www.w3.org/1999/xhtml\"><table class=\"hl7__eu__lab__report\"><tr><th>Test</th><th>26-Dec-2016</th><th>Reference&#xA0;Range</th><th>Unit</th></tr><tr><td>Aspartate aminotransferase [Enzymatic activity/volume] in Serum or Plasma</td><td>9.1</td><td>10 - 40</td><td>L</td><td>U/L</td></tr></table></div>"
        },
        "status": "final",
        "subject": {
          "reference": "urn:uuid:b148f89b-6b4a-4df1-af56-9ae878fb6d65",
          "display": "Maria Nohlmans"
        },
        "effectiveDateTime": "2016-12-26T10:41:39Z",
        "specimen": {
          "reference": "urn:uuid:e8999eda-be7e-4d6e-bc32-39a1b820f3d8"
        }
      }
    },
    {
      "fullUrl": "urn:uuid:cbcc6cea-62db-45c1-be34-b42f892cd54f",
      "resource": {
        "resourceType": "Observation",
        "id": "cbcc6cea-62db-45c1-be34-b42f892cd54f",
        "meta": {
          "profile": [
            "http://hl7.eu/fhir/laboratory/StructureDefinition/Observation-resultslab-eu-lab"
          ]
        },
        "performer": [
          {
            "display": "The Central European Lab"
          }
        ],
        "category": [
          {
            "coding": [
              {
                "system": "http://terminology.hl7.org/CodeSystem/observation-category",
                "code": "laboratory"
              }
            ]
          }
        ],
        "code": {
          "coding": [
            {
              "code": "5767-9",
              "system": "http://loinc.org",
              "display": "Appearance of Urine"
            }
          ],
          "text": "Appearance of Urine"
        },
        "text": {
          "status": "generated",
          "div": "<div xmlns=\"http://www.w3.org/1999/xhtml\"><table class=\"hl7__eu__lab__report\"><tr><th>Test</th><th>26-Dec-2016</th><th>Reference&#xA0;Range</th><th>Unit</th></tr><tr><td>Appearance of Urine</td></tr></table></div>"
        },
        "status": "final",
        "subject": {
          "reference": "urn:uuid:b148f89b-6b4a-4df1-af56-9ae878fb6d65",
          "display": "Maria Nohlmans"
        },
        "effectiveDateTime": "2016-12-26T10:41:39Z",
        "specimen": {
          "reference": "urn:uuid:707663e8-aafc-4a0e-98e8-756a08dbae2e"
        }
      }
    },
    {
      "fullUrl": "urn:uuid:bbfd5c8c-31a9-460a-8c24-a91e83105784",
      "resource": {
        "resourceType": "Observation",
        "id": "bbfd5c8c-31a9-460a-8c24-a91e83105784",
        "meta": {
          "profile": [
            "http://hl7.eu/fhir/laboratory/StructureDefinition/Observation-resultslab-eu-lab"
          ]
        },
        "performer": [
          {
            "display": "The Central European Lab"
          }
        ],
        "category": [
          {
            "coding": [
              {
                "system": "http://terminology.hl7.org/CodeSystem/observation-category",
                "code": "laboratory"
              }
            ]
          }
        ],
        "code": {
          "coding": [
            {
              "code": "34533-0",
              "system": "http://loinc.org",
              "display": "Odor of Urine"
            }
          ],
          "text": "Odor of Urine"
        },
        "text": {
          "status": "generated",
          "div": "<div xmlns=\"http://www.w3.org/1999/xhtml\"><table class=\"hl7__eu__lab__report\"><tr><th>Test</th><th>26-Dec-2016</th><th>Reference&#xA0;Range</th><th>Unit</th></tr><tr><td>Odor of Urine</td></tr></table></div>"
        },
        "status": "final",
        "subject": {
          "reference": "urn:uuid:b148f89b-6b4a-4df1-af56-9ae878fb6d65",
          "display": "Maria Nohlmans"
        },
        "effectiveDateTime": "2016-12-26T10:41:39Z",
        "specimen": {
          "reference": "urn:uuid:707663e8-aafc-4a0e-98e8-756a08dbae2e"
        }
      }
    },
    {
      "fullUrl": "urn:uuid:61edae72-a116-4206-93cd-8d56968d3dda",
      "resource": {
        "resourceType": "Observation",
        "id": "61edae72-a116-4206-93cd-8d56968d3dda",
        "meta": {
          "profile": [
            "http://hl7.eu/fhir/laboratory/StructureDefinition/Observation-resultslab-eu-lab"
          ]
        },
        "performer": [
          {
            "display": "The Central European Lab"
          }
        ],
        "category": [
          {
            "coding": [
              {
                "system": "http://terminology.hl7.org/CodeSystem/observation-category",
                "code": "laboratory"
              }
            ]
          }
        ],
        "code": {
          "coding": [
            {
              "code": "32167-9",
              "system": "http://loinc.org",
              "display": "Clarity of Urine"
            }
          ],
          "text": "Clarity of Urine"
        },
        "text": {
          "status": "generated",
          "div": "<div xmlns=\"http://www.w3.org/1999/xhtml\"><table class=\"hl7__eu__lab__report\"><tr><th>Test</th><th>26-Dec-2016</th><th>Reference&#xA0;Range</th><th>Unit</th></tr><tr><td>Clarity of Urine</td></tr></table></div>"
        },
        "status": "final",
        "subject": {
          "reference": "urn:uuid:b148f89b-6b4a-4df1-af56-9ae878fb6d65",
          "display": "Maria Nohlmans"
        },
        "effectiveDateTime": "2016-12-26T10:41:39Z",
        "specimen": {
          "reference": "urn:uuid:707663e8-aafc-4a0e-98e8-756a08dbae2e"
        }
      }
    },
    {
      "fullUrl": "urn:uuid:5047427c-96a4-4566-94a2-626dcfe5effd",
      "resource": {
        "resourceType": "Observation",
        "id": "5047427c-96a4-4566-94a2-626dcfe5effd",
        "meta": {
          "profile": [
            "http://hl7.eu/fhir/laboratory/StructureDefinition/Observation-resultslab-eu-lab"
          ]
        },
        "performer": [
          {
            "display": "The Central European Lab"
          }
        ],
        "category": [
          {
            "coding": [
              {
                "system": "http://terminology.hl7.org/CodeSystem/observation-category",
                "code": "laboratory"
              }
            ]
          }
        ],
        "code": {
          "coding": [
            {
              "code": "5778-6",
              "system": "http://loinc.org",
              "display": "Color of Urine"
            }
          ],
          "text": "Color of Urine"
        },
        "text": {
          "status": "generated",
          "div": "<div xmlns=\"http://www.w3.org/1999/xhtml\"><table class=\"hl7__eu__lab__report\"><tr><th>Test</th><th>26-Dec-2016</th><th>Reference&#xA0;Range</th><th>Unit</th></tr><tr><td>Color of Urine</td></tr></table></div>"
        },
        "status": "final",
        "subject": {
          "reference": "urn:uuid:b148f89b-6b4a-4df1-af56-9ae878fb6d65",
          "display": "Maria Nohlmans"
        },
        "effectiveDateTime": "2016-12-26T10:41:39Z",
        "specimen": {
          "reference": "urn:uuid:707663e8-aafc-4a0e-98e8-756a08dbae2e"
        }
      }
    },
    {
      "fullUrl": "urn:uuid:c098563d-78b3-423e-b85e-76dbd011a011",
      "resource": {
        "resourceType": "Observation",
        "id": "c098563d-78b3-423e-b85e-76dbd011a011",
        "meta": {
          "profile": [
            "http://hl7.eu/fhir/laboratory/StructureDefinition/Observation-resultslab-eu-lab"
          ]
        },
        "performer": [
          {
            "display": "The Central European Lab"
          }
        ],
        "category": [
          {
            "coding": [
              {
                "system": "http://terminology.hl7.org/CodeSystem/observation-category",
                "code": "laboratory"
              }
            ]
          }
        ],
        "code": {
          "coding": [
            {
              "code": "5792-7",
              "system": "http://loinc.org",
              "display": "Glucose [Mass/volume] in Urine by Test strip"
            }
          ],
          "text": "Glucose [Mass/volume] in Urine by Test strip"
        },
        "valueQuantity": {
          "system": "http://unitsofmeasure.org",
          "value": 0.8,
          "unit": "mg/dL",
          "code": "mg/dL"
        },
        "referenceRange": [
          {
            "low": {
              "value": 0.8,
              "code": "mg/dL",
              "system": "http://unitsofmeasure.org"
            }
          },
          {
            "high": {
              "value": 0,
              "code": "mg/dL",
              "system": "http://unitsofmeasure.org"
            }
          }
        ],
        "interpretation": [
          {
            "coding": [
              {
                "code": "H",
                "system": "http://terminology.hl7.org/CodeSystem/v3-ObservationInterpretation",
                "display": "High"
              }
            ]
          }
        ],
        "text": {
          "status": "generated",
          "div": "<div xmlns=\"http://www.w3.org/1999/xhtml\"><table class=\"hl7__eu__lab__report\"><tr><th>Test</th><th>26-Dec-2016</th><th>Reference&#xA0;Range</th><th>Unit</th></tr><tr><td>Glucose [Mass/volume] in Urine by Test strip</td><td>0.8</td><td>0.8 - 0</td><td>H</td><td>mg/dL</td></tr></table></div>"
        },
        "status": "final",
        "subject": {
          "reference": "urn:uuid:b148f89b-6b4a-4df1-af56-9ae878fb6d65",
          "display": "Maria Nohlmans"
        },
        "effectiveDateTime": "2016-12-26T10:41:39Z",
        "specimen": {
          "reference": "urn:uuid:707663e8-aafc-4a0e-98e8-756a08dbae2e"
        }
      }
    },
    {
      "fullUrl": "urn:uuid:bbfa079d-be7f-4378-a5e9-786023fa23db",
      "resource": {
        "resourceType": "Observation",
        "id": "bbfa079d-be7f-4378-a5e9-786023fa23db",
        "meta": {
          "profile": [
            "http://hl7.eu/fhir/laboratory/StructureDefinition/Observation-resultslab-eu-lab"
          ]
        },
        "performer": [
          {
            "display": "The Central European Lab"
          }
        ],
        "category": [
          {
            "coding": [
              {
                "system": "http://terminology.hl7.org/CodeSystem/observation-category",
                "code": "laboratory"
              }
            ]
          }
        ],
        "code": {
          "coding": [
            {
              "code": "25428-4",
              "system": "http://loinc.org",
              "display": "Glucose [Presence] in Urine by Test strip"
            }
          ],
          "text": "Glucose [Presence] in Urine by Test strip"
        },
        "text": {
          "status": "generated",
          "div": "<div xmlns=\"http://www.w3.org/1999/xhtml\"><table class=\"hl7__eu__lab__report\"><tr><th>Test</th><th>26-Dec-2016</th><th>Reference&#xA0;Range</th><th>Unit</th></tr><tr><td>Glucose [Presence] in Urine by Test strip</td></tr></table></div>"
        },
        "status": "final",
        "subject": {
          "reference": "urn:uuid:b148f89b-6b4a-4df1-af56-9ae878fb6d65",
          "display": "Maria Nohlmans"
        },
        "effectiveDateTime": "2016-12-26T10:41:39Z",
        "specimen": {
          "reference": "urn:uuid:707663e8-aafc-4a0e-98e8-756a08dbae2e"
        }
      }
    },
    {
      "fullUrl": "urn:uuid:9291633f-1e09-4716-854c-e0639587479f",
      "resource": {
        "resourceType": "Observation",
        "id": "9291633f-1e09-4716-854c-e0639587479f",
        "meta": {
          "profile": [
            "http://hl7.eu/fhir/laboratory/StructureDefinition/Observation-resultslab-eu-lab"
          ]
        },
        "performer": [
          {
            "display": "The Central European Lab"
          }
        ],
        "category": [
          {
            "coding": [
              {
                "system": "http://terminology.hl7.org/CodeSystem/observation-category",
                "code": "laboratory"
              }
            ]
          }
        ],
        "code": {
          "coding": [
            {
              "code": "20505-4",
              "system": "http://loinc.org",
              "display": "Bilirubin.total [Mass/volume] in Urine by Test strip"
            }
          ],
          "text": "Bilirubin.total [Mass/volume] in Urine by Test strip"
        },
        "valueQuantity": {
          "system": "http://unitsofmeasure.org",
          "value": 1.1,
          "unit": "mg/dL",
          "code": "mg/dL"
        },
        "referenceRange": [
          {
            "low": {
              "value": 0,
              "code": "mg/dL",
              "system": "http://unitsofmeasure.org"
            }
          },
          {
            "high": {
              "value": 1.5,
              "code": "mg/dL",
              "system": "http://unitsofmeasure.org"
            }
          }
        ],
        "text": {
          "status": "generated",
          "div": "<div xmlns=\"http://www.w3.org/1999/xhtml\"><table class=\"hl7__eu__lab__report\"><tr><th>Test</th><th>26-Dec-2016</th><th>Reference&#xA0;Range</th><th>Unit</th></tr><tr><td>Bilirubin.total [Mass/volume] in Urine by Test strip</td><td>1.1</td><td>0 - 1.5</td><td></td><td>mg/dL</td></tr></table></div>"
        },
        "status": "final",
        "subject": {
          "reference": "urn:uuid:b148f89b-6b4a-4df1-af56-9ae878fb6d65",
          "display": "Maria Nohlmans"
        },
        "effectiveDateTime": "2016-12-26T10:41:39Z",
        "specimen": {
          "reference": "urn:uuid:707663e8-aafc-4a0e-98e8-756a08dbae2e"
        }
      }
    },
    {
      "fullUrl": "urn:uuid:4821ce80-4ba8-444e-be9f-03c14a5b24c4",
      "resource": {
        "resourceType": "Observation",
        "id": "4821ce80-4ba8-444e-be9f-03c14a5b24c4",
        "meta": {
          "profile": [
            "http://hl7.eu/fhir/laboratory/StructureDefinition/Observation-resultslab-eu-lab"
          ]
        },
        "performer": [
          {
            "display": "The Central European Lab"
          }
        ],
        "category": [
          {
            "coding": [
              {
                "system": "http://terminology.hl7.org/CodeSystem/observation-category",
                "code": "laboratory"
              }
            ]
          }
        ],
        "code": {
          "coding": [
            {
              "code": "5770-3",
              "system": "http://loinc.org",
              "display": "Bilirubin.total [Presence] in Urine by Test strip"
            }
          ],
          "text": "Bilirubin.total [Presence] in Urine by Test strip"
        },
        "text": {
          "status": "generated",
          "div": "<div xmlns=\"http://www.w3.org/1999/xhtml\"><table class=\"hl7__eu__lab__report\"><tr><th>Test</th><th>26-Dec-2016</th><th>Reference&#xA0;Range</th><th>Unit</th></tr><tr><td>Bilirubin.total [Presence] in Urine by Test strip</td></tr></table></div>"
        },
        "status": "final",
        "subject": {
          "reference": "urn:uuid:b148f89b-6b4a-4df1-af56-9ae878fb6d65",
          "display": "Maria Nohlmans"
        },
        "effectiveDateTime": "2016-12-26T10:41:39Z",
        "specimen": {
          "reference": "urn:uuid:707663e8-aafc-4a0e-98e8-756a08dbae2e"
        }
      }
    },
    {
      "fullUrl": "urn:uuid:8c1794c5-f0f0-4b35-a6fe-dda0d2e536d2",
      "resource": {
        "resourceType": "Observation",
        "id": "8c1794c5-f0f0-4b35-a6fe-dda0d2e536d2",
        "meta": {
          "profile": [
            "http://hl7.eu/fhir/laboratory/StructureDefinition/Observation-resultslab-eu-lab"
          ]
        },
        "performer": [
          {
            "display": "The Central European Lab"
          }
        ],
        "category": [
          {
            "coding": [
              {
                "system": "http://terminology.hl7.org/CodeSystem/observation-category",
                "code": "laboratory"
              }
            ]
          }
        ],
        "code": {
          "coding": [
            {
              "code": "5797-6",
              "system": "http://loinc.org",
              "display": "Ketones [Mass/volume] in Urine by Test strip"
            }
          ],
          "text": "Ketones [Mass/volume] in Urine by Test strip"
        },
        "valueQuantity": {
          "system": "http://unitsofmeasure.org",
          "value": 4.6,
          "unit": "mg/dL",
          "code": "mg/dL"
        },
        "referenceRange": [
          {
            "low": {
              "value": 0,
              "code": "mg/dL",
              "system": "http://unitsofmeasure.org"
            }
          },
          {
            "high": {
              "value": 8,
              "code": "mg/dL",
              "system": "http://unitsofmeasure.org"
            }
          }
        ],
        "text": {
          "status": "generated",
          "div": "<div xmlns=\"http://www.w3.org/1999/xhtml\"><table class=\"hl7__eu__lab__report\"><tr><th>Test</th><th>26-Dec-2016</th><th>Reference&#xA0;Range</th><th>Unit</th></tr><tr><td>Ketones [Mass/volume] in Urine by Test strip</td><td>4.6</td><td>0 - 8</td><td></td><td>mg/dL</td></tr></table></div>"
        },
        "status": "final",
        "subject": {
          "reference": "urn:uuid:b148f89b-6b4a-4df1-af56-9ae878fb6d65",
          "display": "Maria Nohlmans"
        },
        "effectiveDateTime": "2016-12-26T10:41:39Z",
        "specimen": {
          "reference": "urn:uuid:707663e8-aafc-4a0e-98e8-756a08dbae2e"
        }
      }
    },
    {
      "fullUrl": "urn:uuid:b57182cf-964b-4232-97c1-b7c2976a3d10",
      "resource": {
        "resourceType": "Observation",
        "id": "b57182cf-964b-4232-97c1-b7c2976a3d10",
        "meta": {
          "profile": [
            "http://hl7.eu/fhir/laboratory/StructureDefinition/Observation-resultslab-eu-lab"
          ]
        },
        "performer": [
          {
            "display": "The Central European Lab"
          }
        ],
        "category": [
          {
            "coding": [
              {
                "system": "http://terminology.hl7.org/CodeSystem/observation-category",
                "code": "laboratory"
              }
            ]
          }
        ],
        "code": {
          "coding": [
            {
              "code": "2514-8",
              "system": "http://loinc.org",
              "display": "Ketones [Presence] in Urine by Test strip"
            }
          ],
          "text": "Ketones [Presence] in Urine by Test strip"
        },
        "text": {
          "status": "generated",
          "div": "<div xmlns=\"http://www.w3.org/1999/xhtml\"><table class=\"hl7__eu__lab__report\"><tr><th>Test</th><th>26-Dec-2016</th><th>Reference&#xA0;Range</th><th>Unit</th></tr><tr><td>Ketones [Presence] in Urine by Test strip</td></tr></table></div>"
        },
        "status": "final",
        "subject": {
          "reference": "urn:uuid:b148f89b-6b4a-4df1-af56-9ae878fb6d65",
          "display": "Maria Nohlmans"
        },
        "effectiveDateTime": "2016-12-26T10:41:39Z",
        "specimen": {
          "reference": "urn:uuid:707663e8-aafc-4a0e-98e8-756a08dbae2e"
        }
      }
    },
    {
      "fullUrl": "urn:uuid:3a19aa3b-d853-4c97-afe4-570e262de5a1",
      "resource": {
        "resourceType": "Observation",
        "id": "3a19aa3b-d853-4c97-afe4-570e262de5a1",
        "meta": {
          "profile": [
            "http://hl7.eu/fhir/laboratory/StructureDefinition/Observation-resultslab-eu-lab"
          ]
        },
        "performer": [
          {
            "display": "The Central European Lab"
          }
        ],
        "category": [
          {
            "coding": [
              {
                "system": "http://terminology.hl7.org/CodeSystem/observation-category",
                "code": "laboratory"
              }
            ]
          }
        ],
        "code": {
          "coding": [
            {
              "code": "5811-5",
              "system": "http://loinc.org",
              "display": "Specific gravity of Urine by Test strip"
            }
          ],
          "text": "Specific gravity of Urine by Test strip"
        },
        "valueQuantity": {
          "system": "http://unitsofmeasure.org",
          "value": 1,
          "unit": "{nominal}",
          "code": "{nominal}"
        },
        "referenceRange": [
          {
            "low": {
              "value": 1.01,
              "code": "g/mL",
              "system": "http://unitsofmeasure.org"
            }
          },
          {
            "high": {
              "value": 1.03,
              "code": "g/mL",
              "system": "http://unitsofmeasure.org"
            }
          }
        ],
        "interpretation": [
          {
            "coding": [
              {
                "code": "L",
                "system": "http://terminology.hl7.org/CodeSystem/v3-ObservationInterpretation",
                "display": "Low"
              }
            ]
          }
        ],
        "text": {
          "status": "generated",
          "div": "<div xmlns=\"http://www.w3.org/1999/xhtml\"><table class=\"hl7__eu__lab__report\"><tr><th>Test</th><th>26-Dec-2016</th><th>Reference&#xA0;Range</th><th>Unit</th></tr><tr><td>Specific gravity of Urine by Test strip</td><td>1.0</td><td>1.01 - 1.03</td><td>L</td><td>{nominal}</td></tr></table></div>"
        },
        "status": "final",
        "subject": {
          "reference": "urn:uuid:b148f89b-6b4a-4df1-af56-9ae878fb6d65",
          "display": "Maria Nohlmans"
        },
        "effectiveDateTime": "2016-12-26T10:41:39Z",
        "specimen": {
          "reference": "urn:uuid:707663e8-aafc-4a0e-98e8-756a08dbae2e"
        }
      }
    },
    {
      "fullUrl": "urn:uuid:226487db-cb3b-49b7-84a3-e3080bb2faf1",
      "resource": {
        "resourceType": "Observation",
        "id": "226487db-cb3b-49b7-84a3-e3080bb2faf1",
        "meta": {
          "profile": [
            "http://hl7.eu/fhir/laboratory/StructureDefinition/Observation-resultslab-eu-lab"
          ]
        },
        "performer": [
          {
            "display": "The Central European Lab"
          }
        ],
        "category": [
          {
            "coding": [
              {
                "system": "http://terminology.hl7.org/CodeSystem/observation-category",
                "code": "laboratory"
              }
            ]
          }
        ],
        "code": {
          "coding": [
            {
              "code": "5803-2",
              "system": "http://loinc.org",
              "display": "pH of Urine by Test strip"
            }
          ],
          "text": "pH of Urine by Test strip"
        },
        "valueQuantity": {
          "system": "http://unitsofmeasure.org",
          "value": 5.4,
          "unit": "pH",
          "code": "pH"
        },
        "referenceRange": [
          {
            "low": {
              "value": 4.6,
              "code": "pH",
              "system": "http://unitsofmeasure.org"
            }
          },
          {
            "high": {
              "value": 7.5,
              "code": "pH",
              "system": "http://unitsofmeasure.org"
            }
          }
        ],
        "text": {
          "status": "generated",
          "div": "<div xmlns=\"http://www.w3.org/1999/xhtml\"><table class=\"hl7__eu__lab__report\"><tr><th>Test</th><th>26-Dec-2016</th><th>Reference&#xA0;Range</th><th>Unit</th></tr><tr><td>pH of Urine by Test strip</td><td>5.4</td><td>4.6 - 7.5</td><td></td><td>pH</td></tr></table></div>"
        },
        "status": "final",
        "subject": {
          "reference": "urn:uuid:b148f89b-6b4a-4df1-af56-9ae878fb6d65",
          "display": "Maria Nohlmans"
        },
        "effectiveDateTime": "2016-12-26T10:41:39Z",
        "specimen": {
          "reference": "urn:uuid:707663e8-aafc-4a0e-98e8-756a08dbae2e"
        }
      }
    },
    {
      "fullUrl": "urn:uuid:9072766a-db9c-4e4c-8f62-c261aeb43a93",
      "resource": {
        "resourceType": "Observation",
        "id": "9072766a-db9c-4e4c-8f62-c261aeb43a93",
        "meta": {
          "profile": [
            "http://hl7.eu/fhir/laboratory/StructureDefinition/Observation-resultslab-eu-lab"
          ]
        },
        "performer": [
          {
            "display": "The Central European Lab"
          }
        ],
        "category": [
          {
            "coding": [
              {
                "system": "http://terminology.hl7.org/CodeSystem/observation-category",
                "code": "laboratory"
              }
            ]
          }
        ],
        "code": {
          "coding": [
            {
              "code": "5804-0",
              "system": "http://loinc.org",
              "display": "Protein [Mass/volume] in Urine by Test strip"
            }
          ],
          "text": "Protein [Mass/volume] in Urine by Test strip"
        },
        "valueQuantity": {
          "system": "http://unitsofmeasure.org",
          "value": 433.7,
          "unit": "mg/dL",
          "code": "mg/dL"
        },
        "referenceRange": [
          {
            "low": {
              "value": 0,
              "code": "mg/dL",
              "system": "http://unitsofmeasure.org"
            }
          },
          {
            "high": {
              "value": 14,
              "code": "mg/dL",
              "system": "http://unitsofmeasure.org"
            }
          }
        ],
        "interpretation": [
          {
            "coding": [
              {
                "code": "H",
                "system": "http://terminology.hl7.org/CodeSystem/v3-ObservationInterpretation",
                "display": "High"
              }
            ]
          }
        ],
        "text": {
          "status": "generated",
          "div": "<div xmlns=\"http://www.w3.org/1999/xhtml\"><table class=\"hl7__eu__lab__report\"><tr><th>Test</th><th>26-Dec-2016</th><th>Reference&#xA0;Range</th><th>Unit</th></tr><tr><td>Protein [Mass/volume] in Urine by Test strip</td><td>433.7</td><td>0 - 14</td><td>H</td><td>mg/dL</td></tr></table></div>"
        },
        "status": "final",
        "subject": {
          "reference": "urn:uuid:b148f89b-6b4a-4df1-af56-9ae878fb6d65",
          "display": "Maria Nohlmans"
        },
        "effectiveDateTime": "2016-12-26T10:41:39Z",
        "specimen": {
          "reference": "urn:uuid:707663e8-aafc-4a0e-98e8-756a08dbae2e"
        }
      }
    },
    {
      "fullUrl": "urn:uuid:4e158af5-46ea-453e-856d-8a8528452f6b",
      "resource": {
        "resourceType": "Observation",
        "id": "4e158af5-46ea-453e-856d-8a8528452f6b",
        "meta": {
          "profile": [
            "http://hl7.eu/fhir/laboratory/StructureDefinition/Observation-resultslab-eu-lab"
          ]
        },
        "performer": [
          {
            "display": "The Central European Lab"
          }
        ],
        "category": [
          {
            "coding": [
              {
                "system": "http://terminology.hl7.org/CodeSystem/observation-category",
                "code": "laboratory"
              }
            ]
          }
        ],
        "code": {
          "coding": [
            {
              "code": "20454-5",
              "system": "http://loinc.org",
              "display": "Protein [Presence] in Urine by Test strip"
            }
          ],
          "text": "Protein [Presence] in Urine by Test strip"
        },
        "text": {
          "status": "generated",
          "div": "<div xmlns=\"http://www.w3.org/1999/xhtml\"><table class=\"hl7__eu__lab__report\"><tr><th>Test</th><th>26-Dec-2016</th><th>Reference&#xA0;Range</th><th>Unit</th></tr><tr><td>Protein [Presence] in Urine by Test strip</td></tr></table></div>"
        },
        "status": "final",
        "subject": {
          "reference": "urn:uuid:b148f89b-6b4a-4df1-af56-9ae878fb6d65",
          "display": "Maria Nohlmans"
        },
        "effectiveDateTime": "2016-12-26T10:41:39Z",
        "specimen": {
          "reference": "urn:uuid:707663e8-aafc-4a0e-98e8-756a08dbae2e"
        }
      }
    },
    {
      "fullUrl": "urn:uuid:a7cccded-05a2-4b04-8ae1-711b9ed06cb2",
      "resource": {
        "resourceType": "Observation",
        "id": "a7cccded-05a2-4b04-8ae1-711b9ed06cb2",
        "meta": {
          "profile": [
            "http://hl7.eu/fhir/laboratory/StructureDefinition/Observation-resultslab-eu-lab"
          ]
        },
        "performer": [
          {
            "display": "The Central European Lab"
          }
        ],
        "category": [
          {
            "coding": [
              {
                "system": "http://terminology.hl7.org/CodeSystem/observation-category",
                "code": "laboratory"
              }
            ]
          }
        ],
        "code": {
          "coding": [
            {
              "code": "5802-4",
              "system": "http://loinc.org",
              "display": "Nitrite [Presence] in Urine by Test strip"
            }
          ],
          "text": "Nitrite [Presence] in Urine by Test strip"
        },
        "text": {
          "status": "generated",
          "div": "<div xmlns=\"http://www.w3.org/1999/xhtml\"><table class=\"hl7__eu__lab__report\"><tr><th>Test</th><th>26-Dec-2016</th><th>Reference&#xA0;Range</th><th>Unit</th></tr><tr><td>Nitrite [Presence] in Urine by Test strip</td></tr></table></div>"
        },
        "status": "final",
        "subject": {
          "reference": "urn:uuid:b148f89b-6b4a-4df1-af56-9ae878fb6d65",
          "display": "Maria Nohlmans"
        },
        "effectiveDateTime": "2016-12-26T10:41:39Z",
        "specimen": {
          "reference": "urn:uuid:707663e8-aafc-4a0e-98e8-756a08dbae2e"
        }
      }
    },
    {
      "fullUrl": "urn:uuid:4e87731a-4f79-48d3-a608-bf9d69106efc",
      "resource": {
        "resourceType": "Observation",
        "id": "4e87731a-4f79-48d3-a608-bf9d69106efc",
        "meta": {
          "profile": [
            "http://hl7.eu/fhir/laboratory/StructureDefinition/Observation-resultslab-eu-lab"
          ]
        },
        "performer": [
          {
            "display": "The Central European Lab"
          }
        ],
        "category": [
          {
            "coding": [
              {
                "system": "http://terminology.hl7.org/CodeSystem/observation-category",
                "code": "laboratory"
              }
            ]
          }
        ],
        "code": {
          "coding": [
            {
              "code": "5794-3",
              "system": "http://loinc.org",
              "display": "Hemoglobin [Presence] in Urine by Test strip"
            }
          ],
          "text": "Hemoglobin [Presence] in Urine by Test strip"
        },
        "text": {
          "status": "generated",
          "div": "<div xmlns=\"http://www.w3.org/1999/xhtml\"><table class=\"hl7__eu__lab__report\"><tr><th>Test</th><th>26-Dec-2016</th><th>Reference&#xA0;Range</th><th>Unit</th></tr><tr><td>Hemoglobin [Presence] in Urine by Test strip</td></tr></table></div>"
        },
        "status": "final",
        "subject": {
          "reference": "urn:uuid:b148f89b-6b4a-4df1-af56-9ae878fb6d65",
          "display": "Maria Nohlmans"
        },
        "effectiveDateTime": "2016-12-26T10:41:39Z",
        "specimen": {
          "reference": "urn:uuid:707663e8-aafc-4a0e-98e8-756a08dbae2e"
        }
      }
    },
    {
      "fullUrl": "urn:uuid:20eab188-aa43-417a-8bea-3eefd91f70fb",
      "resource": {
        "resourceType": "Observation",
        "id": "20eab188-aa43-417a-8bea-3eefd91f70fb",
        "meta": {
          "profile": [
            "http://hl7.eu/fhir/laboratory/StructureDefinition/Observation-resultslab-eu-lab"
          ]
        },
        "performer": [
          {
            "display": "The Central European Lab"
          }
        ],
        "category": [
          {
            "coding": [
              {
                "system": "http://terminology.hl7.org/CodeSystem/observation-category",
                "code": "laboratory"
              }
            ]
          }
        ],
        "code": {
          "coding": [
            {
              "code": "5799-2",
              "system": "http://loinc.org",
              "display": "Leukocyte esterase [Presence] in Urine by Test strip"
            }
          ],
          "text": "Leukocyte esterase [Presence] in Urine by Test strip"
        },
        "text": {
          "status": "generated",
          "div": "<div xmlns=\"http://www.w3.org/1999/xhtml\"><table class=\"hl7__eu__lab__report\"><tr><th>Test</th><th>26-Dec-2016</th><th>Reference&#xA0;Range</th><th>Unit</th></tr><tr><td>Leukocyte esterase [Presence] in Urine by Test strip</td></tr></table></div>"
        },
        "status": "final",
        "subject": {
          "reference": "urn:uuid:b148f89b-6b4a-4df1-af56-9ae878fb6d65",
          "display": "Maria Nohlmans"
        },
        "effectiveDateTime": "2016-12-26T10:41:39Z",
        "specimen": {
          "reference": "urn:uuid:707663e8-aafc-4a0e-98e8-756a08dbae2e"
        }
      }
    },
    {
      "fullUrl": "urn:uuid:67f65726-1330-44ec-ae78-cdbee539649a",
      "resource": {
        "resourceType": "Device",
        "id": "67f65726-1330-44ec-ae78-cdbee539649a",
        "deviceName": [
          {
            "name": "SYNDERAI Synthetic Generator",
            "type": "manufacturer-name"
          }
        ],
        "version": [
          {
            "value": "5.0"
          }
        ],
        "text": {
          "status": "generated",
          "div": "<div xmlns=\"http://www.w3.org/1999/xhtml\">SYNDERAI Synthetic Generator v5.0</div>"
        },
        "status": "active\"",
        "distinctIdentifier": "synderai-generator-50",
        "manufacturer": "SYNDERAI Project"
      }
    },
    {
      "fullUrl": "urn:uuid:215736f5-8cc6-4519-81fc-f9574e727889",
      "resource": {
        "resourceType": "Provenance",
        "id": "215736f5-8cc6-4519-81fc-f9574e727889",
        "target": [
          {
            "reference": "Patient/b148f89b-6b4a-4df1-af56-9ae878fb6d65"
          },
          {
            "reference": "Bundle/0609e9e5-4901-40a3-ae5e-4dd978a638d0"
          },
          {
            "reference": "Composition/05f06568-68c9-47d5-8fbb-21810b7e0436"
          },
          {
            "reference": "PractitionerRole/5bcf0f0b-9b08-4ef6-9aa1-3e295d09577d"
          },
          {
            "reference": "Practitioner/79248c34-5f26-451a-b588-86ae8fb3521e"
          },
          {
            "reference": "PractitionerRole/02332694-643a-4893-929f-f17662d945cd"
          },
          {
            "reference": "Organization/a1f4ed8d-8bba-4913-9696-af6aae0e1801"
          }
        ],
        "activity": {
          "text": "Synthetic Example Data Generation"
        },
        "policy": [
          "https://synderai.net/synderai-synthetic-data-policy"
        ],
        "agent": [
          {
            "type": {
              "text": "author"
            },
            "who": {
              "reference": "Device/67f65726-1330-44ec-ae78-cdbee539649a"
            }
          }
        ],
        "reason": [
          {
            "text": "Interoperability Testing and Training (non-clinical use)"
          }
        ],
        "text": {
          "status": "generated",
          "div": "<div xmlns=\"http://www.w3.org/1999/xhtml\">Provenance for SYNDERAI Synthetic Example Data Resource</div>"
        },
        "recorded": "2016-12-26T11:41:39Z"
      }
    },
    {
      "fullUrl": "urn:uuid:5bcf0f0b-9b08-4ef6-9aa1-3e295d09577d",
      "resource": {
        "resourceType": "PractitionerRole",
        "id": "5bcf0f0b-9b08-4ef6-9aa1-3e295d09577d",
        "meta": {
          "profile": [
            "http://hl7.eu/fhir/base/StructureDefinition/practitionerRole-eu"
          ]
        },
        "text": {
          "status": "generated",
          "div": "<div xmlns=\"http://www.w3.org/1999/xhtml\">Laboratory Role Id: 5bcf0f0b-9b08-4ef6-9aa1-3e295d09577d</div>"
        },
        "practitioner": {
          "reference": "urn:uuid:79248c34-5f26-451a-b588-86ae8fb3521e"
        }
      }
    },
    {
      "fullUrl": "urn:uuid:79248c34-5f26-451a-b588-86ae8fb3521e",
      "resource": {
        "resourceType": "Practitioner",
        "id": "79248c34-5f26-451a-b588-86ae8fb3521e",
        "meta": {
          "profile": [
            "http://hl7.eu/fhir/base/StructureDefinition/practitioner-eu"
          ]
        },
        "identifier": [
          {
            "assigner": {
              "display": "HL7 Europe"
            },
            "system": "urn:oid:2.16.840.1.113883.2.51.999",
            "value": "4882e3e0-a6a2-4a7b-b75b-4173b82fee68"
          }
        ],
        "name": [
          {
            "prefix": [
              "dr"
            ],
            "given": [
              "Ex"
            ],
            "family": "Ample"
          }
        ],
        "address": [
          {
            "line": [
              "Laboratoire Central Européenne",
              "Boulevard du Jardin Botanique 32"
            ],
            "postalCode": "1000",
            "city": "Brussels",
            "country": "Belgium"
          }
        ],
        "text": {
          "status": "generated",
          "div": "<div xmlns=\"http://www.w3.org/1999/xhtml\">Laboratory: Laboratoire Central Européenne, 1000 Brussels, Belgium</div>"
        }
      }
    }
  ],
  "type": "document",
  "timestamp": "2016-12-26T11:41:39Z"
}
