{
  "resourceType": "Bundle",
  "id": "e21b2690-e974-43b1-b919-2c8450b70235",
  "meta": {
    "profile": [
      "http://hl7.eu/fhir/laboratory/StructureDefinition/Bundle-eu-lab"
    ]
  },
  "identifier": {
    "assigner": {
      "display": "HL7 Europe"
    },
    "system": "urn:oid:2.16.840.1.113883.2.51.999",
    "value": "55294984-a094-4f5c-8d5a-69f357048f91"
  },
  "entry": [
    {
      "fullUrl": "urn:uuid:95ddf54a-cee1-4898-a5a5-eef53547fe37",
      "resource": {
        "resourceType": "Composition",
        "id": "95ddf54a-cee1-4898-a5a5-eef53547fe37",
        "meta": {
          "profile": [
            "http://hl7.eu/fhir/laboratory/StructureDefinition/Composition-eu-lab"
          ]
        },
        "identifier": {
          "assigner": {
            "display": "HL7 Europe"
          },
          "system": "urn:oid:2.16.840.1.113883.2.51.999",
          "value": "4c46adc1-e634-4857-9907-3aba324af174"
        },
        "author": [
          {
            "reference": "urn:uuid:a6315424-ea7e-4138-bf2f-7685186b946f"
          }
        ],
        "category": [
          {
            "coding": [
              {
                "code": "26436-6",
                "system": "http://loinc.org",
                "display": "Laboratory studies (set)"
              }
            ]
          }
        ],
        "type": {
          "coding": [
            {
              "code": "11502-2",
              "system": "http://loinc.org",
              "display": "Laboratory report"
            }
          ],
          "text": "Laboratory Report"
        },
        "section": [
          {
            "code": {
              "coding": [
                {
                  "code": "26436-6",
                  "system": "http://loinc.org",
                  "display": "Laboratory studies (set)"
                }
              ],
              "text": "Laboratory studies"
            },
            "section": [
              {
                "code": {
                  "coding": [
                    {
                      "code": "$18719-5",
                      "system": "http://loinc.org",
                      "display": "Chemistry studies (set)"
                    }
                  ],
                  "text": "Chemistry"
                },
                "entry": [
                  {
                    "reference": "urn:uuid:8b7e2d31-93a0-496f-8466-1e1fd7889308"
                  },
                  {
                    "reference": "urn:uuid:e565b2ac-ff05-4783-a4d6-98f7fa93e467"
                  },
                  {
                    "reference": "urn:uuid:a4104fff-3c69-466c-b5f7-3f2db211952b"
                  },
                  {
                    "reference": "urn:uuid:861efa54-0e1e-4300-9c87-f12285217aec"
                  },
                  {
                    "reference": "urn:uuid:2030c31f-4bd0-4508-8e4a-7e674a1be47d"
                  },
                  {
                    "reference": "urn:uuid:955bd68c-27b8-4e2a-baaf-4d1c13ccd6f5"
                  },
                  {
                    "reference": "urn:uuid:3b4f37b0-947f-43d6-a95b-90f669a02334"
                  },
                  {
                    "reference": "urn:uuid:e491f8e6-72a7-446e-8cf1-d35986b6410e"
                  },
                  {
                    "reference": "urn:uuid:dc38aee0-f49b-4425-a437-a781e9642a60"
                  },
                  {
                    "reference": "urn:uuid:a44b7ee8-12c2-445c-b7be-da97072bfd73"
                  },
                  {
                    "reference": "urn:uuid:7c065926-0c55-4694-8cea-71a08f35d070"
                  },
                  {
                    "reference": "urn:uuid:ce1156e5-beca-41ab-a263-58d92cceb461"
                  },
                  {
                    "reference": "urn:uuid:2087ebe3-cccf-4450-8bff-74494e1ff25c"
                  },
                  {
                    "reference": "urn:uuid:9f965273-9f7c-4e87-8218-c4637ff07b65"
                  },
                  {
                    "reference": "urn:uuid:363723a6-3396-4fbf-89aa-1b07af908630"
                  },
                  {
                    "reference": "urn:uuid:1eddcf33-7773-4cd0-907f-6bd95ec3e369"
                  },
                  {
                    "reference": "urn:uuid:8625c667-a1c0-493e-b814-455e35c54220"
                  },
                  {
                    "reference": "urn:uuid:1dd6e034-a113-4cf6-a329-bd0ef930b0e8"
                  },
                  {
                    "reference": "urn:uuid:f496cbd1-d566-4295-ae9e-ee6ff5488116"
                  }
                ],
                "text": {
                  "status": "generated",
                  "div": "<div xmlns=\"http://www.w3.org/1999/xhtml\"><h3>Chemistry</h3><table class=\"hl7__eu__lab__report\"><thead><tr><th>Test</th><th>10-JUN-2025</th><th>Reference&#xA0;Range</th><th>Unit</th></tr></thead><tbody><tr><td>Glucose [Mass/volume] in Blood</td><td>77.7</td><td>70 - 99</td><td>mg/dL</td></tr><tr><td>Urea nitrogen [Mass/volume] in Blood</td><td>11.5</td><td>7 - 20</td><td>mg/dL</td></tr><tr><td>Creatinine [Mass/volume] in Blood</td><td><strong>2.8 H</strong></td><td>0.7 - 1.3</td><td>mg/dL</td></tr><tr><td>Calcium [Mass/volume] in Blood</td><td>9.3</td><td>8.5 - 10.5</td><td>mg/dL</td></tr><tr><td>Sodium [Moles/volume] in Blood</td><td>138.8</td><td>135 - 145</td><td>mmol/L</td></tr><tr><td>Potassium [Moles/volume] in Blood</td><td>4.9</td><td>3.5 - 5</td><td>mmol/L</td></tr><tr><td>Chloride [Moles/volume] in Blood</td><td>101.9</td><td>98 - 107</td><td>mmol/L</td></tr><tr><td>Carbon dioxide, total [Moles/volume] in Blood</td><td>27.5</td><td>24 - 29</td><td>mmol/L</td></tr><tr><td>Protein [Mass/volume] in Serum or Plasma</td><td><strong>6.2 L</strong></td><td>6.6 - 8.3</td><td>g/dL</td></tr><tr><td>Albumin [Mass/volume] in Serum or Plasma</td><td>3.8</td><td>3.5 - 5.5</td><td>g/dL</td></tr><tr><td>Globulin [Mass/volume] in Serum by calculation</td><td>3.4</td><td>2 - 3.5</td><td>g/L</td></tr><tr><td>Bilirubin.total [Mass/volume] in Serum or Plasma</td><td>0.6</td><td>0.3 - 1.2</td><td>mg/dL</td></tr><tr><td>Alkaline phosphatase [Enzymatic activity/volume] in Serum or Plasma</td><td>65.3</td><td>39 - 136</td><td>U/L</td></tr><tr><td>Alanine aminotransferase [Enzymatic activity/volume] in Serum or Plasma</td><td>40.7</td><td>7 - 52</td><td>U/L</td></tr><tr><td>Aspartate aminotransferase [Enzymatic activity/volume] in Serum or Plasma</td><td>12.3</td><td>10 - 40</td><td>U/L</td></tr><tr><td>Cholesterol [Mass/volume] in Serum or Plasma</td><td><strong>200.4 H</strong></td><td>125 - 200</td><td>mg/dL</td></tr><tr><td>Triglyceride [Mass/volume] in Serum or Plasma</td><td>100.5</td><td>0 - 150</td><td>mg/dL</td></tr><tr><td>Cholesterol in LDL [Mass/volume] in Serum or Plasma by Direct assay</td><td>106.5</td><td>0 - 130</td><td>mg/dL</td></tr><tr><td>Cholesterol in HDL [Mass/volume] in Serum or Plasma</td><td><strong>31.4 L</strong></td><td>40 - 100</td><td>mg/dL</td></tr></tbody></table></div>"
                },
                "title": "Chemistry"
              }
            ],
            "title": "Laboratory Report"
          },
          {
            "text": {
              "status": "generated",
              "div": "<div xmlns=\"http://www.w3.org/1999/xhtml\"><h3>Annotation</h3><table class=\"hl7__eu__lab__report\"><tr><th>Conclusion and Recommendations based on this report and previous findings known to us</th></tr><tr><td>The results show elevated creatinine, suggesting impaired renal function, and low total protein, possibly due to decreased synthesis or increased loss. Cholesterol is slightly elevated with low HDL, indicating increased cardiovascular risk. Other parameters, including glucose, electrolytes, liver enzymes, and bilirubin, are within normal limits. Renal function and lipid profile should be further evaluated and monitored.</td></tr></table></div>"
            },
            "code": {
              "coding": [
                {
                  "system": "http://loinc.org",
                  "code": "48767-8",
                  "display": "Annotation comment"
                }
              ]
            },
            "title": "Annotation comment"
          }
        ],
        "status": "final",
        "subject": {
          "reference": "urn:uuid:e1d487fb-2375-4eb8-89dc-3cf8f3f942e4",
          "display": "Gioele Fabbri"
        },
        "date": "2025-06-10T17:46:20Z",
        "title": "Laboratory Report",
        "confidentiality": "N"
      }
    },
    {
      "fullUrl": "urn:uuid:ca8082c8-7d2f-4649-8f3b-2678c630d24d",
      "resource": {
        "resourceType": "DiagnosticReport",
        "id": "ca8082c8-7d2f-4649-8f3b-2678c630d24d",
        "meta": {
          "profile": [
            "http://hl7.eu/fhir/laboratory/StructureDefinition/DiagnosticReport-eu-lab"
          ]
        },
        "identifier": [
          {
            "assigner": {
              "display": "HL7 Europe"
            },
            "system": "urn:oid:2.16.840.1.113883.2.51.999",
            "value": "4482ea7b-857d-4136-ad08-5dee20f3969f"
          }
        ],
        "extension": [
          {
            "url": "http://hl7.org/fhir/5.0/StructureDefinition/extension-DiagnosticReport.composition",
            "valueReference": {
              "reference": "urn:uuid:4c46adc1-e634-4857-9907-3aba324af174"
            }
          }
        ],
        "category": [
          {
            "coding": [
              {
                "code": "26436-6",
                "system": "http://loinc.org",
                "display": "Laboratory studies (set)"
              }
            ]
          }
        ],
        "specimen": [
          {
            "reference": "urn:uuid:9d6267bc-3f43-483f-adb7-0b62aef75a17"
          },
          {
            "reference": "urn:uuid:538dc402-fbb0-4af9-82bb-ac66d5157faf"
          },
          {
            "reference": "urn:uuid:6f23b918-c927-48b5-9fa7-16729552c04e"
          }
        ],
        "result": [
          {
            "reference": "urn:uuid:8b7e2d31-93a0-496f-8466-1e1fd7889308"
          },
          {
            "reference": "urn:uuid:e565b2ac-ff05-4783-a4d6-98f7fa93e467"
          },
          {
            "reference": "urn:uuid:a4104fff-3c69-466c-b5f7-3f2db211952b"
          },
          {
            "reference": "urn:uuid:861efa54-0e1e-4300-9c87-f12285217aec"
          },
          {
            "reference": "urn:uuid:2030c31f-4bd0-4508-8e4a-7e674a1be47d"
          },
          {
            "reference": "urn:uuid:955bd68c-27b8-4e2a-baaf-4d1c13ccd6f5"
          },
          {
            "reference": "urn:uuid:3b4f37b0-947f-43d6-a95b-90f669a02334"
          },
          {
            "reference": "urn:uuid:e491f8e6-72a7-446e-8cf1-d35986b6410e"
          },
          {
            "reference": "urn:uuid:dc38aee0-f49b-4425-a437-a781e9642a60"
          },
          {
            "reference": "urn:uuid:a44b7ee8-12c2-445c-b7be-da97072bfd73"
          },
          {
            "reference": "urn:uuid:7c065926-0c55-4694-8cea-71a08f35d070"
          },
          {
            "reference": "urn:uuid:ce1156e5-beca-41ab-a263-58d92cceb461"
          },
          {
            "reference": "urn:uuid:2087ebe3-cccf-4450-8bff-74494e1ff25c"
          },
          {
            "reference": "urn:uuid:9f965273-9f7c-4e87-8218-c4637ff07b65"
          },
          {
            "reference": "urn:uuid:363723a6-3396-4fbf-89aa-1b07af908630"
          },
          {
            "reference": "urn:uuid:1eddcf33-7773-4cd0-907f-6bd95ec3e369"
          },
          {
            "reference": "urn:uuid:8625c667-a1c0-493e-b814-455e35c54220"
          },
          {
            "reference": "urn:uuid:1dd6e034-a113-4cf6-a329-bd0ef930b0e8"
          },
          {
            "reference": "urn:uuid:f496cbd1-d566-4295-ae9e-ee6ff5488116"
          }
        ],
        "status": "registered",
        "code": {
          "coding": [
            {
              "code": "11502-2",
              "system": "http://loinc.org",
              "display": "Laboratory report"
            }
          ]
        },
        "subject": {
          "reference": "urn:uuid:e1d487fb-2375-4eb8-89dc-3cf8f3f942e4",
          "display": "Gioele Fabbri"
        }
      }
    },
    {
      "fullUrl": "urn:uuid:e1d487fb-2375-4eb8-89dc-3cf8f3f942e4",
      "resource": {
        "resourceType": "Patient",
        "id": "e1d487fb-2375-4eb8-89dc-3cf8f3f942e4",
        "meta": {
          "security": [
            {
              "system": "http://terminology.hl7.org/CodeSystem/v3-ActReason",
              "code": "HTEST"
            },
            {
              "system": "http://terminology.hl7.org/CodeSystem/v3-ActReason",
              "code": "TRAIN"
            }
          ],
          "tag": [
            {
              "system": "https://synderai.net/fhir/CodeSystem/tags",
              "code": "synthetic",
              "display": "SYNDERAI Synthetic data"
            }
          ],
          "profile": [
            "http://hl7.eu/fhir/base/StructureDefinition/patient-eu-core"
          ]
        },
        "identifier": [
          {
            "type": {
              "coding": [
                {
                  "code": "PT",
                  "system": "http://terminology.hl7.org/CodeSystem/v2-0203"
                }
              ]
            },
            "system": "http://ec.europa.eu/identifier/eci",
            "value": "3631-767680-1"
          },
          {
            "type": {
              "coding": [
                {
                  "code": "MR",
                  "system": "http://terminology.hl7.org/CodeSystem/v2-0203"
                }
              ]
            },
            "system": "http://local.setting.eu/identifier",
            "value": "0a14935e-e0f7-2e1e-46fa-42b10e75d1f9"
          }
        ],
        "name": [
          {
            "family": "Fabbri"
          },
          {
            "given": [
              "Gioele"
            ]
          },
          {
            "text": "Gioele Fabbri"
          }
        ],
        "address": [
          {
            "line": [
              "Canale Armani, 25"
            ],
            "use": "home",
            "type": "physical",
            "postalCode": "23887",
            "city": "Revislate",
            "country": "Italy"
          }
        ],
        "telecom": [
          {
            "system": "phone",
            "value": "+39 0423197768"
          }
        ],
        "extension": [
          {
            "url": "http://hl7.org/fhir/StructureDefinition/patient-nationality",
            "valueCodeableConcept": {
              "coding": [
                {
                  "code": "IT",
                  "system": "http://hl7.org/fhir/ValueSet/country"
                }
              ]
            }
          }
        ],
        "text": {
          "status": "generated",
          "div": "<div xmlns=\"http://www.w3.org/1999/xhtml\"><table class=\"hl7__ips\"><tr><td>Gioele Fabbri</td><td>male</td><td>12-Sep-1972</td></tr></table></div>"
        },
        "gender": "male",
        "birthDate": "1972-09-12"
      }
    },
    {
      "fullUrl": "urn:uuid:69548f1e-927e-4ae9-a399-3618ceb90a0c",
      "resource": {
        "resourceType": "ServiceRequest",
        "id": "69548f1e-927e-4ae9-a399-3618ceb90a0c",
        "meta": {
          "profile": [
            "http://hl7.eu/fhir/laboratory/StructureDefinition/ServiceRequest-eu-lab"
          ]
        },
        "identifier": [
          {
            "system": "http://example.org",
            "value": "3d4515ff-cd9d-4c48-89c3-7595eee3c0fd"
          }
        ],
        "specimen": [
          {
            "reference": "urn:uuid:9d6267bc-3f43-483f-adb7-0b62aef75a17"
          },
          {
            "reference": "urn:uuid:538dc402-fbb0-4af9-82bb-ac66d5157faf"
          },
          {
            "reference": "urn:uuid:6f23b918-c927-48b5-9fa7-16729552c04e"
          }
        ],
        "reasonCode": [
          {
            "coding": [
              {
                "code": "271737000",
                "system": "http://snomed.info/sct",
                "display": "Anemia"
              }
            ]
          },
          {
            "coding": [
              {
                "code": "15777000",
                "system": "http://snomed.info/sct",
                "display": "Prediabetes"
              }
            ]
          },
          {
            "coding": [
              {
                "code": "713197008",
                "system": "http://snomed.info/sct",
                "display": "Recurrent rectal polyp"
              }
            ]
          },
          {
            "coding": [
              {
                "code": "68496003",
                "system": "http://snomed.info/sct",
                "display": "Polyp of colon"
              }
            ]
          },
          {
            "coding": [
              {
                "code": "55822004",
                "system": "http://snomed.info/sct",
                "display": "Hyperlipidemia"
              }
            ]
          },
          {
            "coding": [
              {
                "code": "124171000119105",
                "system": "http://snomed.info/sct",
                "display": "Chronic intractable migraine without aura"
              }
            ]
          }
        ],
        "status": "active",
        "intent": "order",
        "code": {
          "coding": [
            {
              "code": "108252007",
              "system": "http://snomed.info/sct",
              "display": "Laboratory procedure"
            }
          ]
        },
        "subject": {
          "reference": "urn:uuid:e1d487fb-2375-4eb8-89dc-3cf8f3f942e4",
          "display": "Gioele Fabbri"
        },
        "requester": {
          "reference": "urn:uuid:5b07926f-c180-40fd-819f-084324ae3dbe"
        }
      }
    },
    {
      "fullUrl": "urn:uuid:5b07926f-c180-40fd-819f-084324ae3dbe",
      "resource": {
        "resourceType": "PractitionerRole",
        "id": "5b07926f-c180-40fd-819f-084324ae3dbe",
        "meta": {
          "profile": [
            "http://hl7.eu/fhir/base/StructureDefinition/practitionerRole-eu"
          ]
        },
        "text": {
          "status": "generated",
          "div": "<div xmlns=\"http://www.w3.org/1999/xhtml\">Provider Role Id: 5b07926f-c180-40fd-819f-084324ae3dbe</div>"
        },
        "organization": {
          "reference": "urn:uuid:3fd8e8ac-e5ca-4758-9116-a9cf80455880"
        }
      }
    },
    {
      "fullUrl": "urn:uuid:3fd8e8ac-e5ca-4758-9116-a9cf80455880",
      "resource": {
        "resourceType": "Organization",
        "id": "3fd8e8ac-e5ca-4758-9116-a9cf80455880",
        "meta": {
          "profile": [
            "http://hl7.eu/fhir/base/StructureDefinition/organization-eu"
          ]
        },
        "identifier": [
          {
            "assigner": {
              "display": "HL7 Europe"
            },
            "system": "urn:oid:2.16.840.1.113883.2.51.999",
            "value": "ed9a8200-edd4-44d1-8356-65837c2ec1cc"
          }
        ],
        "address": [
          {
            "line": [
              "Piazza Ospedale 3"
            ],
            "city": "Calcinate",
            "postalCode": "24050",
            "country": "Italy"
          }
        ],
        "text": {
          "status": "generated",
          "div": "<div xmlns=\"http://www.w3.org/1999/xhtml\">Provider Organization: Ospedale di Calcinate &quot;F.M. Passi&quot;</div>"
        },
        "name": "Ospedale di Calcinate &quot;F.M. Passi&quot;"
      }
    },
    {
      "fullUrl": "urn:uuid:9d6267bc-3f43-483f-adb7-0b62aef75a17",
      "resource": {
        "resourceType": "Specimen",
        "id": "9d6267bc-3f43-483f-adb7-0b62aef75a17",
        "meta": {
          "profile": [
            "http://hl7.eu/fhir/laboratory/StructureDefinition/Specimen-eu-lab"
          ]
        },
        "collection": {
          "collectedDateTime": "2025-06-10"
        },
        "text": {
          "status": "generated",
          "div": "<div xmlns=\"http://www.w3.org/1999/xhtml\"><table class=\"hl7__eu__lab__report\"><tr><th>Specimen</th><th>Collection Date</th></tr><tr><td>Whole blood specimen (specimen)</td><td><span class=\"nb\">10-Jun-2025</span></td></tr></table></div>"
        },
        "type": {
          "coding": [
            {
              "code": "258580003",
              "system": "http://snomed.info/sct",
              "display": "Whole blood specimen (specimen)"
            }
          ]
        }
      }
    },
    {
      "fullUrl": "urn:uuid:538dc402-fbb0-4af9-82bb-ac66d5157faf",
      "resource": {
        "resourceType": "Specimen",
        "id": "538dc402-fbb0-4af9-82bb-ac66d5157faf",
        "meta": {
          "profile": [
            "http://hl7.eu/fhir/laboratory/StructureDefinition/Specimen-eu-lab"
          ]
        },
        "collection": {
          "collectedDateTime": "2025-06-10"
        },
        "text": {
          "status": "generated",
          "div": "<div xmlns=\"http://www.w3.org/1999/xhtml\"><table class=\"hl7__eu__lab__report\"><tr><th>Specimen</th><th>Collection Date</th></tr><tr><td>Acellular blood (serum or plasma) specimen</td><td><span class=\"nb\">10-Jun-2025</span></td></tr></table></div>"
        },
        "type": {
          "coding": [
            {
              "code": "122592007",
              "system": "http://snomed.info/sct",
              "display": "Acellular blood (serum or plasma) specimen"
            }
          ]
        }
      }
    },
    {
      "fullUrl": "urn:uuid:6f23b918-c927-48b5-9fa7-16729552c04e",
      "resource": {
        "resourceType": "Specimen",
        "id": "6f23b918-c927-48b5-9fa7-16729552c04e",
        "meta": {
          "profile": [
            "http://hl7.eu/fhir/laboratory/StructureDefinition/Specimen-eu-lab"
          ]
        },
        "collection": {
          "collectedDateTime": "2025-06-10"
        },
        "text": {
          "status": "generated",
          "div": "<div xmlns=\"http://www.w3.org/1999/xhtml\"><table class=\"hl7__eu__lab__report\"><tr><th>Specimen</th><th>Collection Date</th></tr><tr><td>Serum specimen</td><td><span class=\"nb\">10-Jun-2025</span></td></tr></table></div>"
        },
        "type": {
          "coding": [
            {
              "code": "119364003",
              "system": "http://snomed.info/sct",
              "display": "Serum specimen"
            }
          ]
        }
      }
    },
    {
      "fullUrl": "urn:uuid:8b7e2d31-93a0-496f-8466-1e1fd7889308",
      "resource": {
        "resourceType": "Observation",
        "id": "8b7e2d31-93a0-496f-8466-1e1fd7889308",
        "meta": {
          "profile": [
            "http://hl7.eu/fhir/laboratory/StructureDefinition/Observation-resultslab-eu-lab"
          ]
        },
        "performer": [
          {
            "display": "The Central European Lab"
          }
        ],
        "category": [
          {
            "coding": [
              {
                "system": "http://terminology.hl7.org/CodeSystem/observation-category",
                "code": "laboratory"
              }
            ]
          }
        ],
        "code": {
          "coding": [
            {
              "code": "2339-0",
              "system": "http://loinc.org",
              "display": "Glucose [Mass/volume] in Blood"
            }
          ],
          "text": "Glucose [Mass/volume] in Blood"
        },
        "valueQuantity": {
          "system": "http://unitsofmeasure.org",
          "value": 77.7,
          "unit": "mg/dL",
          "code": "mg/dL"
        },
        "referenceRange": [
          {
            "low": {
              "value": 70,
              "code": "mg/dL",
              "system": "http://unitsofmeasure.org"
            }
          },
          {
            "high": {
              "value": 99,
              "code": "mg/dL",
              "system": "http://unitsofmeasure.org"
            }
          }
        ],
        "text": {
          "status": "generated",
          "div": "<div xmlns=\"http://www.w3.org/1999/xhtml\"><table class=\"hl7__eu__lab__report\"><tr><th>Test</th><th>10-Jun-2025</th><th>Reference&#xA0;Range</th><th>Unit</th></tr><tr><td>Glucose [Mass/volume] in Blood</td><td>77.7</td><td>70 - 99</td><td></td><td>mg/dL</td></tr></table></div>"
        },
        "status": "final",
        "subject": {
          "reference": "urn:uuid:e1d487fb-2375-4eb8-89dc-3cf8f3f942e4",
          "display": "Gioele Fabbri"
        },
        "effectiveDateTime": "2025-06-10T15:46:20Z",
        "specimen": {
          "reference": "urn:uuid:9d6267bc-3f43-483f-adb7-0b62aef75a17"
        }
      }
    },
    {
      "fullUrl": "urn:uuid:e565b2ac-ff05-4783-a4d6-98f7fa93e467",
      "resource": {
        "resourceType": "Observation",
        "id": "e565b2ac-ff05-4783-a4d6-98f7fa93e467",
        "meta": {
          "profile": [
            "http://hl7.eu/fhir/laboratory/StructureDefinition/Observation-resultslab-eu-lab"
          ]
        },
        "performer": [
          {
            "display": "The Central European Lab"
          }
        ],
        "category": [
          {
            "coding": [
              {
                "system": "http://terminology.hl7.org/CodeSystem/observation-category",
                "code": "laboratory"
              }
            ]
          }
        ],
        "code": {
          "coding": [
            {
              "code": "6299-2",
              "system": "http://loinc.org",
              "display": "Urea nitrogen [Mass/volume] in Blood"
            }
          ],
          "text": "Urea nitrogen [Mass/volume] in Blood"
        },
        "valueQuantity": {
          "system": "http://unitsofmeasure.org",
          "value": 11.5,
          "unit": "mg/dL",
          "code": "mg/dL"
        },
        "referenceRange": [
          {
            "low": {
              "value": 7,
              "code": "mg/dL",
              "system": "http://unitsofmeasure.org"
            }
          },
          {
            "high": {
              "value": 20,
              "code": "mg/dL",
              "system": "http://unitsofmeasure.org"
            }
          }
        ],
        "text": {
          "status": "generated",
          "div": "<div xmlns=\"http://www.w3.org/1999/xhtml\"><table class=\"hl7__eu__lab__report\"><tr><th>Test</th><th>10-Jun-2025</th><th>Reference&#xA0;Range</th><th>Unit</th></tr><tr><td>Urea nitrogen [Mass/volume] in Blood</td><td>11.5</td><td>7 - 20</td><td></td><td>mg/dL</td></tr></table></div>"
        },
        "status": "final",
        "subject": {
          "reference": "urn:uuid:e1d487fb-2375-4eb8-89dc-3cf8f3f942e4",
          "display": "Gioele Fabbri"
        },
        "effectiveDateTime": "2025-06-10T15:46:20Z",
        "specimen": {
          "reference": "urn:uuid:9d6267bc-3f43-483f-adb7-0b62aef75a17"
        }
      }
    },
    {
      "fullUrl": "urn:uuid:a4104fff-3c69-466c-b5f7-3f2db211952b",
      "resource": {
        "resourceType": "Observation",
        "id": "a4104fff-3c69-466c-b5f7-3f2db211952b",
        "meta": {
          "profile": [
            "http://hl7.eu/fhir/laboratory/StructureDefinition/Observation-resultslab-eu-lab"
          ]
        },
        "performer": [
          {
            "display": "The Central European Lab"
          }
        ],
        "category": [
          {
            "coding": [
              {
                "system": "http://terminology.hl7.org/CodeSystem/observation-category",
                "code": "laboratory"
              }
            ]
          }
        ],
        "code": {
          "coding": [
            {
              "code": "38483-4",
              "system": "http://loinc.org",
              "display": "Creatinine [Mass/volume] in Blood"
            }
          ],
          "text": "Creatinine [Mass/volume] in Blood"
        },
        "valueQuantity": {
          "system": "http://unitsofmeasure.org",
          "value": 2.8,
          "unit": "mg/dL",
          "code": "mg/dL"
        },
        "referenceRange": [
          {
            "low": {
              "value": 0.7,
              "code": "mg/dL",
              "system": "http://unitsofmeasure.org"
            }
          },
          {
            "high": {
              "value": 1.3,
              "code": "mg/dL",
              "system": "http://unitsofmeasure.org"
            }
          }
        ],
        "interpretation": [
          {
            "coding": [
              {
                "code": "H",
                "system": "http://terminology.hl7.org/CodeSystem/v3-ObservationInterpretation",
                "display": "High"
              }
            ]
          }
        ],
        "text": {
          "status": "generated",
          "div": "<div xmlns=\"http://www.w3.org/1999/xhtml\"><table class=\"hl7__eu__lab__report\"><tr><th>Test</th><th>10-Jun-2025</th><th>Reference&#xA0;Range</th><th>Unit</th></tr><tr><td>Creatinine [Mass/volume] in Blood</td><td>2.8</td><td>0.7 - 1.3</td><td>H</td><td>mg/dL</td></tr></table></div>"
        },
        "status": "final",
        "subject": {
          "reference": "urn:uuid:e1d487fb-2375-4eb8-89dc-3cf8f3f942e4",
          "display": "Gioele Fabbri"
        },
        "effectiveDateTime": "2025-06-10T15:46:20Z",
        "specimen": {
          "reference": "urn:uuid:9d6267bc-3f43-483f-adb7-0b62aef75a17"
        }
      }
    },
    {
      "fullUrl": "urn:uuid:861efa54-0e1e-4300-9c87-f12285217aec",
      "resource": {
        "resourceType": "Observation",
        "id": "861efa54-0e1e-4300-9c87-f12285217aec",
        "meta": {
          "profile": [
            "http://hl7.eu/fhir/laboratory/StructureDefinition/Observation-resultslab-eu-lab"
          ]
        },
        "performer": [
          {
            "display": "The Central European Lab"
          }
        ],
        "category": [
          {
            "coding": [
              {
                "system": "http://terminology.hl7.org/CodeSystem/observation-category",
                "code": "laboratory"
              }
            ]
          }
        ],
        "code": {
          "coding": [
            {
              "code": "49765-1",
              "system": "http://loinc.org",
              "display": "Calcium [Mass/volume] in Blood"
            }
          ],
          "text": "Calcium [Mass/volume] in Blood"
        },
        "valueQuantity": {
          "system": "http://unitsofmeasure.org",
          "value": 9.3,
          "unit": "mg/dL",
          "code": "mg/dL"
        },
        "referenceRange": [
          {
            "low": {
              "value": 8.5,
              "code": "mg/dL",
              "system": "http://unitsofmeasure.org"
            }
          },
          {
            "high": {
              "value": 10.5,
              "code": "mg/dL",
              "system": "http://unitsofmeasure.org"
            }
          }
        ],
        "text": {
          "status": "generated",
          "div": "<div xmlns=\"http://www.w3.org/1999/xhtml\"><table class=\"hl7__eu__lab__report\"><tr><th>Test</th><th>10-Jun-2025</th><th>Reference&#xA0;Range</th><th>Unit</th></tr><tr><td>Calcium [Mass/volume] in Blood</td><td>9.3</td><td>8.5 - 10.5</td><td></td><td>mg/dL</td></tr></table></div>"
        },
        "status": "final",
        "subject": {
          "reference": "urn:uuid:e1d487fb-2375-4eb8-89dc-3cf8f3f942e4",
          "display": "Gioele Fabbri"
        },
        "effectiveDateTime": "2025-06-10T15:46:20Z",
        "specimen": {
          "reference": "urn:uuid:9d6267bc-3f43-483f-adb7-0b62aef75a17"
        }
      }
    },
    {
      "fullUrl": "urn:uuid:2030c31f-4bd0-4508-8e4a-7e674a1be47d",
      "resource": {
        "resourceType": "Observation",
        "id": "2030c31f-4bd0-4508-8e4a-7e674a1be47d",
        "meta": {
          "profile": [
            "http://hl7.eu/fhir/laboratory/StructureDefinition/Observation-resultslab-eu-lab"
          ]
        },
        "performer": [
          {
            "display": "The Central European Lab"
          }
        ],
        "category": [
          {
            "coding": [
              {
                "system": "http://terminology.hl7.org/CodeSystem/observation-category",
                "code": "laboratory"
              }
            ]
          }
        ],
        "code": {
          "coding": [
            {
              "code": "2947-0",
              "system": "http://loinc.org",
              "display": "Sodium [Moles/volume] in Blood"
            }
          ],
          "text": "Sodium [Moles/volume] in Blood"
        },
        "valueQuantity": {
          "system": "http://unitsofmeasure.org",
          "value": 138.8,
          "unit": "mmol/L",
          "code": "mmol/L"
        },
        "referenceRange": [
          {
            "low": {
              "value": 135,
              "code": "mmol/L",
              "system": "http://unitsofmeasure.org"
            }
          },
          {
            "high": {
              "value": 145,
              "code": "mmol/L",
              "system": "http://unitsofmeasure.org"
            }
          }
        ],
        "text": {
          "status": "generated",
          "div": "<div xmlns=\"http://www.w3.org/1999/xhtml\"><table class=\"hl7__eu__lab__report\"><tr><th>Test</th><th>10-Jun-2025</th><th>Reference&#xA0;Range</th><th>Unit</th></tr><tr><td>Sodium [Moles/volume] in Blood</td><td>138.8</td><td>135 - 145</td><td></td><td>mmol/L</td></tr></table></div>"
        },
        "status": "final",
        "subject": {
          "reference": "urn:uuid:e1d487fb-2375-4eb8-89dc-3cf8f3f942e4",
          "display": "Gioele Fabbri"
        },
        "effectiveDateTime": "2025-06-10T15:46:20Z",
        "specimen": {
          "reference": "urn:uuid:9d6267bc-3f43-483f-adb7-0b62aef75a17"
        }
      }
    },
    {
      "fullUrl": "urn:uuid:955bd68c-27b8-4e2a-baaf-4d1c13ccd6f5",
      "resource": {
        "resourceType": "Observation",
        "id": "955bd68c-27b8-4e2a-baaf-4d1c13ccd6f5",
        "meta": {
          "profile": [
            "http://hl7.eu/fhir/laboratory/StructureDefinition/Observation-resultslab-eu-lab"
          ]
        },
        "performer": [
          {
            "display": "The Central European Lab"
          }
        ],
        "category": [
          {
            "coding": [
              {
                "system": "http://terminology.hl7.org/CodeSystem/observation-category",
                "code": "laboratory"
              }
            ]
          }
        ],
        "code": {
          "coding": [
            {
              "code": "6298-4",
              "system": "http://loinc.org",
              "display": "Potassium [Moles/volume] in Blood"
            }
          ],
          "text": "Potassium [Moles/volume] in Blood"
        },
        "valueQuantity": {
          "system": "http://unitsofmeasure.org",
          "value": 4.9,
          "unit": "mmol/L",
          "code": "mmol/L"
        },
        "referenceRange": [
          {
            "low": {
              "value": 3.5,
              "code": "mmol/L",
              "system": "http://unitsofmeasure.org"
            }
          },
          {
            "high": {
              "value": 5,
              "code": "mmol/L",
              "system": "http://unitsofmeasure.org"
            }
          }
        ],
        "text": {
          "status": "generated",
          "div": "<div xmlns=\"http://www.w3.org/1999/xhtml\"><table class=\"hl7__eu__lab__report\"><tr><th>Test</th><th>10-Jun-2025</th><th>Reference&#xA0;Range</th><th>Unit</th></tr><tr><td>Potassium [Moles/volume] in Blood</td><td>4.9</td><td>3.5 - 5</td><td></td><td>mmol/L</td></tr></table></div>"
        },
        "status": "final",
        "subject": {
          "reference": "urn:uuid:e1d487fb-2375-4eb8-89dc-3cf8f3f942e4",
          "display": "Gioele Fabbri"
        },
        "effectiveDateTime": "2025-06-10T15:46:20Z",
        "specimen": {
          "reference": "urn:uuid:9d6267bc-3f43-483f-adb7-0b62aef75a17"
        }
      }
    },
    {
      "fullUrl": "urn:uuid:3b4f37b0-947f-43d6-a95b-90f669a02334",
      "resource": {
        "resourceType": "Observation",
        "id": "3b4f37b0-947f-43d6-a95b-90f669a02334",
        "meta": {
          "profile": [
            "http://hl7.eu/fhir/laboratory/StructureDefinition/Observation-resultslab-eu-lab"
          ]
        },
        "performer": [
          {
            "display": "The Central European Lab"
          }
        ],
        "category": [
          {
            "coding": [
              {
                "system": "http://terminology.hl7.org/CodeSystem/observation-category",
                "code": "laboratory"
              }
            ]
          }
        ],
        "code": {
          "coding": [
            {
              "code": "2069-3",
              "system": "http://loinc.org",
              "display": "Chloride [Moles/volume] in Blood"
            }
          ],
          "text": "Chloride [Moles/volume] in Blood"
        },
        "valueQuantity": {
          "system": "http://unitsofmeasure.org",
          "value": 101.9,
          "unit": "mmol/L",
          "code": "mmol/L"
        },
        "referenceRange": [
          {
            "low": {
              "value": 98,
              "code": "mmol/L",
              "system": "http://unitsofmeasure.org"
            }
          },
          {
            "high": {
              "value": 107,
              "code": "mmol/L",
              "system": "http://unitsofmeasure.org"
            }
          }
        ],
        "text": {
          "status": "generated",
          "div": "<div xmlns=\"http://www.w3.org/1999/xhtml\"><table class=\"hl7__eu__lab__report\"><tr><th>Test</th><th>10-Jun-2025</th><th>Reference&#xA0;Range</th><th>Unit</th></tr><tr><td>Chloride [Moles/volume] in Blood</td><td>101.9</td><td>98 - 107</td><td></td><td>mmol/L</td></tr></table></div>"
        },
        "status": "final",
        "subject": {
          "reference": "urn:uuid:e1d487fb-2375-4eb8-89dc-3cf8f3f942e4",
          "display": "Gioele Fabbri"
        },
        "effectiveDateTime": "2025-06-10T15:46:20Z",
        "specimen": {
          "reference": "urn:uuid:9d6267bc-3f43-483f-adb7-0b62aef75a17"
        }
      }
    },
    {
      "fullUrl": "urn:uuid:e491f8e6-72a7-446e-8cf1-d35986b6410e",
      "resource": {
        "resourceType": "Observation",
        "id": "e491f8e6-72a7-446e-8cf1-d35986b6410e",
        "meta": {
          "profile": [
            "http://hl7.eu/fhir/laboratory/StructureDefinition/Observation-resultslab-eu-lab"
          ]
        },
        "performer": [
          {
            "display": "The Central European Lab"
          }
        ],
        "category": [
          {
            "coding": [
              {
                "system": "http://terminology.hl7.org/CodeSystem/observation-category",
                "code": "laboratory"
              }
            ]
          }
        ],
        "code": {
          "coding": [
            {
              "code": "20565-8",
              "system": "http://loinc.org",
              "display": "Carbon dioxide, total [Moles/volume] in Blood"
            }
          ],
          "text": "Carbon dioxide, total [Moles/volume] in Blood"
        },
        "valueQuantity": {
          "system": "http://unitsofmeasure.org",
          "value": 27.5,
          "unit": "mmol/L",
          "code": "mmol/L"
        },
        "referenceRange": [
          {
            "low": {
              "value": 24,
              "code": "mmol/L",
              "system": "http://unitsofmeasure.org"
            }
          },
          {
            "high": {
              "value": 29,
              "code": "mmol/L",
              "system": "http://unitsofmeasure.org"
            }
          }
        ],
        "text": {
          "status": "generated",
          "div": "<div xmlns=\"http://www.w3.org/1999/xhtml\"><table class=\"hl7__eu__lab__report\"><tr><th>Test</th><th>10-Jun-2025</th><th>Reference&#xA0;Range</th><th>Unit</th></tr><tr><td>Carbon dioxide, total [Moles/volume] in Blood</td><td>27.5</td><td>24 - 29</td><td></td><td>mmol/L</td></tr></table></div>"
        },
        "status": "final",
        "subject": {
          "reference": "urn:uuid:e1d487fb-2375-4eb8-89dc-3cf8f3f942e4",
          "display": "Gioele Fabbri"
        },
        "effectiveDateTime": "2025-06-10T15:46:20Z",
        "specimen": {
          "reference": "urn:uuid:9d6267bc-3f43-483f-adb7-0b62aef75a17"
        }
      }
    },
    {
      "fullUrl": "urn:uuid:dc38aee0-f49b-4425-a437-a781e9642a60",
      "resource": {
        "resourceType": "Observation",
        "id": "dc38aee0-f49b-4425-a437-a781e9642a60",
        "meta": {
          "profile": [
            "http://hl7.eu/fhir/laboratory/StructureDefinition/Observation-resultslab-eu-lab"
          ]
        },
        "performer": [
          {
            "display": "The Central European Lab"
          }
        ],
        "category": [
          {
            "coding": [
              {
                "system": "http://terminology.hl7.org/CodeSystem/observation-category",
                "code": "laboratory"
              }
            ]
          }
        ],
        "code": {
          "coding": [
            {
              "code": "2885-2",
              "system": "http://loinc.org",
              "display": "Protein [Mass/volume] in Serum or Plasma"
            }
          ],
          "text": "Protein [Mass/volume] in Serum or Plasma"
        },
        "valueQuantity": {
          "system": "http://unitsofmeasure.org",
          "value": 6.2,
          "unit": "g/dL",
          "code": "g/dL"
        },
        "referenceRange": [
          {
            "low": {
              "value": 6.6,
              "code": "g/dL",
              "system": "http://unitsofmeasure.org"
            }
          },
          {
            "high": {
              "value": 8.3,
              "code": "g/dL",
              "system": "http://unitsofmeasure.org"
            }
          }
        ],
        "interpretation": [
          {
            "coding": [
              {
                "code": "L",
                "system": "http://terminology.hl7.org/CodeSystem/v3-ObservationInterpretation",
                "display": "Low"
              }
            ]
          }
        ],
        "text": {
          "status": "generated",
          "div": "<div xmlns=\"http://www.w3.org/1999/xhtml\"><table class=\"hl7__eu__lab__report\"><tr><th>Test</th><th>10-Jun-2025</th><th>Reference&#xA0;Range</th><th>Unit</th></tr><tr><td>Protein [Mass/volume] in Serum or Plasma</td><td>6.2</td><td>6.6 - 8.3</td><td>L</td><td>g/dL</td></tr></table></div>"
        },
        "status": "final",
        "subject": {
          "reference": "urn:uuid:e1d487fb-2375-4eb8-89dc-3cf8f3f942e4",
          "display": "Gioele Fabbri"
        },
        "effectiveDateTime": "2025-06-10T15:46:20Z",
        "specimen": {
          "reference": "urn:uuid:538dc402-fbb0-4af9-82bb-ac66d5157faf"
        }
      }
    },
    {
      "fullUrl": "urn:uuid:a44b7ee8-12c2-445c-b7be-da97072bfd73",
      "resource": {
        "resourceType": "Observation",
        "id": "a44b7ee8-12c2-445c-b7be-da97072bfd73",
        "meta": {
          "profile": [
            "http://hl7.eu/fhir/laboratory/StructureDefinition/Observation-resultslab-eu-lab"
          ]
        },
        "performer": [
          {
            "display": "The Central European Lab"
          }
        ],
        "category": [
          {
            "coding": [
              {
                "system": "http://terminology.hl7.org/CodeSystem/observation-category",
                "code": "laboratory"
              }
            ]
          }
        ],
        "code": {
          "coding": [
            {
              "code": "1751-7",
              "system": "http://loinc.org",
              "display": "Albumin [Mass/volume] in Serum or Plasma"
            }
          ],
          "text": "Albumin [Mass/volume] in Serum or Plasma"
        },
        "valueQuantity": {
          "system": "http://unitsofmeasure.org",
          "value": 3.8,
          "unit": "g/dL",
          "code": "g/dL"
        },
        "referenceRange": [
          {
            "low": {
              "value": 3.5,
              "code": "g/dL",
              "system": "http://unitsofmeasure.org"
            }
          },
          {
            "high": {
              "value": 5.5,
              "code": "g/dL",
              "system": "http://unitsofmeasure.org"
            }
          }
        ],
        "text": {
          "status": "generated",
          "div": "<div xmlns=\"http://www.w3.org/1999/xhtml\"><table class=\"hl7__eu__lab__report\"><tr><th>Test</th><th>10-Jun-2025</th><th>Reference&#xA0;Range</th><th>Unit</th></tr><tr><td>Albumin [Mass/volume] in Serum or Plasma</td><td>3.8</td><td>3.5 - 5.5</td><td></td><td>g/dL</td></tr></table></div>"
        },
        "status": "final",
        "subject": {
          "reference": "urn:uuid:e1d487fb-2375-4eb8-89dc-3cf8f3f942e4",
          "display": "Gioele Fabbri"
        },
        "effectiveDateTime": "2025-06-10T15:46:20Z",
        "specimen": {
          "reference": "urn:uuid:538dc402-fbb0-4af9-82bb-ac66d5157faf"
        }
      }
    },
    {
      "fullUrl": "urn:uuid:7c065926-0c55-4694-8cea-71a08f35d070",
      "resource": {
        "resourceType": "Observation",
        "id": "7c065926-0c55-4694-8cea-71a08f35d070",
        "meta": {
          "profile": [
            "http://hl7.eu/fhir/laboratory/StructureDefinition/Observation-resultslab-eu-lab"
          ]
        },
        "performer": [
          {
            "display": "The Central European Lab"
          }
        ],
        "category": [
          {
            "coding": [
              {
                "system": "http://terminology.hl7.org/CodeSystem/observation-category",
                "code": "laboratory"
              }
            ]
          }
        ],
        "code": {
          "coding": [
            {
              "code": "10834-0",
              "system": "http://loinc.org",
              "display": "Globulin [Mass/volume] in Serum by calculation"
            }
          ],
          "text": "Globulin [Mass/volume] in Serum by calculation"
        },
        "valueQuantity": {
          "system": "http://unitsofmeasure.org",
          "value": 3.4,
          "unit": "g/L",
          "code": "g/L"
        },
        "referenceRange": [
          {
            "low": {
              "value": 2,
              "code": "g/L",
              "system": "http://unitsofmeasure.org"
            }
          },
          {
            "high": {
              "value": 3.5,
              "code": "g/L",
              "system": "http://unitsofmeasure.org"
            }
          }
        ],
        "text": {
          "status": "generated",
          "div": "<div xmlns=\"http://www.w3.org/1999/xhtml\"><table class=\"hl7__eu__lab__report\"><tr><th>Test</th><th>10-Jun-2025</th><th>Reference&#xA0;Range</th><th>Unit</th></tr><tr><td>Globulin [Mass/volume] in Serum by calculation</td><td>3.4</td><td>2 - 3.5</td><td></td><td>g/L</td></tr></table></div>"
        },
        "status": "final",
        "subject": {
          "reference": "urn:uuid:e1d487fb-2375-4eb8-89dc-3cf8f3f942e4",
          "display": "Gioele Fabbri"
        },
        "effectiveDateTime": "2025-06-10T15:46:20Z",
        "specimen": {
          "reference": "urn:uuid:6f23b918-c927-48b5-9fa7-16729552c04e"
        }
      }
    },
    {
      "fullUrl": "urn:uuid:ce1156e5-beca-41ab-a263-58d92cceb461",
      "resource": {
        "resourceType": "Observation",
        "id": "ce1156e5-beca-41ab-a263-58d92cceb461",
        "meta": {
          "profile": [
            "http://hl7.eu/fhir/laboratory/StructureDefinition/Observation-resultslab-eu-lab"
          ]
        },
        "performer": [
          {
            "display": "The Central European Lab"
          }
        ],
        "category": [
          {
            "coding": [
              {
                "system": "http://terminology.hl7.org/CodeSystem/observation-category",
                "code": "laboratory"
              }
            ]
          }
        ],
        "code": {
          "coding": [
            {
              "code": "1975-2",
              "system": "http://loinc.org",
              "display": "Bilirubin.total [Mass/volume] in Serum or Plasma"
            }
          ],
          "text": "Bilirubin.total [Mass/volume] in Serum or Plasma"
        },
        "valueQuantity": {
          "system": "http://unitsofmeasure.org",
          "value": 0.6,
          "unit": "mg/dL",
          "code": "mg/dL"
        },
        "referenceRange": [
          {
            "low": {
              "value": 0.3,
              "code": "mg/dL",
              "system": "http://unitsofmeasure.org"
            }
          },
          {
            "high": {
              "value": 1.2,
              "code": "mg/dL",
              "system": "http://unitsofmeasure.org"
            }
          }
        ],
        "text": {
          "status": "generated",
          "div": "<div xmlns=\"http://www.w3.org/1999/xhtml\"><table class=\"hl7__eu__lab__report\"><tr><th>Test</th><th>10-Jun-2025</th><th>Reference&#xA0;Range</th><th>Unit</th></tr><tr><td>Bilirubin.total [Mass/volume] in Serum or Plasma</td><td>0.6</td><td>0.3 - 1.2</td><td></td><td>mg/dL</td></tr></table></div>"
        },
        "status": "final",
        "subject": {
          "reference": "urn:uuid:e1d487fb-2375-4eb8-89dc-3cf8f3f942e4",
          "display": "Gioele Fabbri"
        },
        "effectiveDateTime": "2025-06-10T15:46:20Z",
        "specimen": {
          "reference": "urn:uuid:538dc402-fbb0-4af9-82bb-ac66d5157faf"
        }
      }
    },
    {
      "fullUrl": "urn:uuid:2087ebe3-cccf-4450-8bff-74494e1ff25c",
      "resource": {
        "resourceType": "Observation",
        "id": "2087ebe3-cccf-4450-8bff-74494e1ff25c",
        "meta": {
          "profile": [
            "http://hl7.eu/fhir/laboratory/StructureDefinition/Observation-resultslab-eu-lab"
          ]
        },
        "performer": [
          {
            "display": "The Central European Lab"
          }
        ],
        "category": [
          {
            "coding": [
              {
                "system": "http://terminology.hl7.org/CodeSystem/observation-category",
                "code": "laboratory"
              }
            ]
          }
        ],
        "code": {
          "coding": [
            {
              "code": "6768-6",
              "system": "http://loinc.org",
              "display": "Alkaline phosphatase [Enzymatic activity/volume] in Serum or Plasma"
            }
          ],
          "text": "Alkaline phosphatase [Enzymatic activity/volume] in Serum or Plasma"
        },
        "valueQuantity": {
          "system": "http://unitsofmeasure.org",
          "value": 65.3,
          "unit": "U/L",
          "code": "U/L"
        },
        "referenceRange": [
          {
            "low": {
              "value": 39,
              "code": "U/L",
              "system": "http://unitsofmeasure.org"
            }
          },
          {
            "high": {
              "value": 136,
              "code": "U/L",
              "system": "http://unitsofmeasure.org"
            }
          }
        ],
        "text": {
          "status": "generated",
          "div": "<div xmlns=\"http://www.w3.org/1999/xhtml\"><table class=\"hl7__eu__lab__report\"><tr><th>Test</th><th>10-Jun-2025</th><th>Reference&#xA0;Range</th><th>Unit</th></tr><tr><td>Alkaline phosphatase [Enzymatic activity/volume] in Serum or Plasma</td><td>65.3</td><td>39 - 136</td><td></td><td>U/L</td></tr></table></div>"
        },
        "status": "final",
        "subject": {
          "reference": "urn:uuid:e1d487fb-2375-4eb8-89dc-3cf8f3f942e4",
          "display": "Gioele Fabbri"
        },
        "effectiveDateTime": "2025-06-10T15:46:20Z",
        "specimen": {
          "reference": "urn:uuid:538dc402-fbb0-4af9-82bb-ac66d5157faf"
        }
      }
    },
    {
      "fullUrl": "urn:uuid:9f965273-9f7c-4e87-8218-c4637ff07b65",
      "resource": {
        "resourceType": "Observation",
        "id": "9f965273-9f7c-4e87-8218-c4637ff07b65",
        "meta": {
          "profile": [
            "http://hl7.eu/fhir/laboratory/StructureDefinition/Observation-resultslab-eu-lab"
          ]
        },
        "performer": [
          {
            "display": "The Central European Lab"
          }
        ],
        "category": [
          {
            "coding": [
              {
                "system": "http://terminology.hl7.org/CodeSystem/observation-category",
                "code": "laboratory"
              }
            ]
          }
        ],
        "code": {
          "coding": [
            {
              "code": "1742-6",
              "system": "http://loinc.org",
              "display": "Alanine aminotransferase [Enzymatic activity/volume] in Serum or Plasma"
            }
          ],
          "text": "Alanine aminotransferase [Enzymatic activity/volume] in Serum or Plasma"
        },
        "valueQuantity": {
          "system": "http://unitsofmeasure.org",
          "value": 40.7,
          "unit": "U/L",
          "code": "U/L"
        },
        "referenceRange": [
          {
            "low": {
              "value": 7,
              "code": "U/L",
              "system": "http://unitsofmeasure.org"
            }
          },
          {
            "high": {
              "value": 52,
              "code": "U/L",
              "system": "http://unitsofmeasure.org"
            }
          }
        ],
        "text": {
          "status": "generated",
          "div": "<div xmlns=\"http://www.w3.org/1999/xhtml\"><table class=\"hl7__eu__lab__report\"><tr><th>Test</th><th>10-Jun-2025</th><th>Reference&#xA0;Range</th><th>Unit</th></tr><tr><td>Alanine aminotransferase [Enzymatic activity/volume] in Serum or Plasma</td><td>40.7</td><td>7 - 52</td><td></td><td>U/L</td></tr></table></div>"
        },
        "status": "final",
        "subject": {
          "reference": "urn:uuid:e1d487fb-2375-4eb8-89dc-3cf8f3f942e4",
          "display": "Gioele Fabbri"
        },
        "effectiveDateTime": "2025-06-10T15:46:20Z",
        "specimen": {
          "reference": "urn:uuid:538dc402-fbb0-4af9-82bb-ac66d5157faf"
        }
      }
    },
    {
      "fullUrl": "urn:uuid:363723a6-3396-4fbf-89aa-1b07af908630",
      "resource": {
        "resourceType": "Observation",
        "id": "363723a6-3396-4fbf-89aa-1b07af908630",
        "meta": {
          "profile": [
            "http://hl7.eu/fhir/laboratory/StructureDefinition/Observation-resultslab-eu-lab"
          ]
        },
        "performer": [
          {
            "display": "The Central European Lab"
          }
        ],
        "category": [
          {
            "coding": [
              {
                "system": "http://terminology.hl7.org/CodeSystem/observation-category",
                "code": "laboratory"
              }
            ]
          }
        ],
        "code": {
          "coding": [
            {
              "code": "1920-8",
              "system": "http://loinc.org",
              "display": "Aspartate aminotransferase [Enzymatic activity/volume] in Serum or Plasma"
            }
          ],
          "text": "Aspartate aminotransferase [Enzymatic activity/volume] in Serum or Plasma"
        },
        "valueQuantity": {
          "system": "http://unitsofmeasure.org",
          "value": 12.3,
          "unit": "U/L",
          "code": "U/L"
        },
        "referenceRange": [
          {
            "low": {
              "value": 10,
              "code": "U/L",
              "system": "http://unitsofmeasure.org"
            }
          },
          {
            "high": {
              "value": 40,
              "code": "U/L",
              "system": "http://unitsofmeasure.org"
            }
          }
        ],
        "text": {
          "status": "generated",
          "div": "<div xmlns=\"http://www.w3.org/1999/xhtml\"><table class=\"hl7__eu__lab__report\"><tr><th>Test</th><th>10-Jun-2025</th><th>Reference&#xA0;Range</th><th>Unit</th></tr><tr><td>Aspartate aminotransferase [Enzymatic activity/volume] in Serum or Plasma</td><td>12.3</td><td>10 - 40</td><td></td><td>U/L</td></tr></table></div>"
        },
        "status": "final",
        "subject": {
          "reference": "urn:uuid:e1d487fb-2375-4eb8-89dc-3cf8f3f942e4",
          "display": "Gioele Fabbri"
        },
        "effectiveDateTime": "2025-06-10T15:46:20Z",
        "specimen": {
          "reference": "urn:uuid:538dc402-fbb0-4af9-82bb-ac66d5157faf"
        }
      }
    },
    {
      "fullUrl": "urn:uuid:1eddcf33-7773-4cd0-907f-6bd95ec3e369",
      "resource": {
        "resourceType": "Observation",
        "id": "1eddcf33-7773-4cd0-907f-6bd95ec3e369",
        "meta": {
          "profile": [
            "http://hl7.eu/fhir/laboratory/StructureDefinition/Observation-resultslab-eu-lab"
          ]
        },
        "performer": [
          {
            "display": "The Central European Lab"
          }
        ],
        "category": [
          {
            "coding": [
              {
                "system": "http://terminology.hl7.org/CodeSystem/observation-category",
                "code": "laboratory"
              }
            ]
          }
        ],
        "code": {
          "coding": [
            {
              "code": "2093-3",
              "system": "http://loinc.org",
              "display": "Cholesterol [Mass/volume] in Serum or Plasma"
            }
          ],
          "text": "Cholesterol [Mass/volume] in Serum or Plasma"
        },
        "valueQuantity": {
          "system": "http://unitsofmeasure.org",
          "value": 200.4,
          "unit": "mg/dL",
          "code": "mg/dL"
        },
        "referenceRange": [
          {
            "low": {
              "value": 125,
              "code": "mg/dL",
              "system": "http://unitsofmeasure.org"
            }
          },
          {
            "high": {
              "value": 200,
              "code": "mg/dL",
              "system": "http://unitsofmeasure.org"
            }
          }
        ],
        "interpretation": [
          {
            "coding": [
              {
                "code": "H",
                "system": "http://terminology.hl7.org/CodeSystem/v3-ObservationInterpretation",
                "display": "High"
              }
            ]
          }
        ],
        "text": {
          "status": "generated",
          "div": "<div xmlns=\"http://www.w3.org/1999/xhtml\"><table class=\"hl7__eu__lab__report\"><tr><th>Test</th><th>10-Jun-2025</th><th>Reference&#xA0;Range</th><th>Unit</th></tr><tr><td>Cholesterol [Mass/volume] in Serum or Plasma</td><td>200.4</td><td>125 - 200</td><td>H</td><td>mg/dL</td></tr></table></div>"
        },
        "status": "final",
        "subject": {
          "reference": "urn:uuid:e1d487fb-2375-4eb8-89dc-3cf8f3f942e4",
          "display": "Gioele Fabbri"
        },
        "effectiveDateTime": "2025-06-10T15:46:20Z",
        "specimen": {
          "reference": "urn:uuid:538dc402-fbb0-4af9-82bb-ac66d5157faf"
        }
      }
    },
    {
      "fullUrl": "urn:uuid:8625c667-a1c0-493e-b814-455e35c54220",
      "resource": {
        "resourceType": "Observation",
        "id": "8625c667-a1c0-493e-b814-455e35c54220",
        "meta": {
          "profile": [
            "http://hl7.eu/fhir/laboratory/StructureDefinition/Observation-resultslab-eu-lab"
          ]
        },
        "performer": [
          {
            "display": "The Central European Lab"
          }
        ],
        "category": [
          {
            "coding": [
              {
                "system": "http://terminology.hl7.org/CodeSystem/observation-category",
                "code": "laboratory"
              }
            ]
          }
        ],
        "code": {
          "coding": [
            {
              "code": "2571-8",
              "system": "http://loinc.org",
              "display": "Triglyceride [Mass/volume] in Serum or Plasma"
            }
          ],
          "text": "Triglyceride [Mass/volume] in Serum or Plasma"
        },
        "valueQuantity": {
          "system": "http://unitsofmeasure.org",
          "value": 100.5,
          "unit": "mg/dL",
          "code": "mg/dL"
        },
        "referenceRange": [
          {
            "low": {
              "value": 0,
              "code": "mg/dL",
              "system": "http://unitsofmeasure.org"
            }
          },
          {
            "high": {
              "value": 150,
              "code": "mg/dL",
              "system": "http://unitsofmeasure.org"
            }
          }
        ],
        "text": {
          "status": "generated",
          "div": "<div xmlns=\"http://www.w3.org/1999/xhtml\"><table class=\"hl7__eu__lab__report\"><tr><th>Test</th><th>10-Jun-2025</th><th>Reference&#xA0;Range</th><th>Unit</th></tr><tr><td>Triglyceride [Mass/volume] in Serum or Plasma</td><td>100.5</td><td>0 - 150</td><td></td><td>mg/dL</td></tr></table></div>"
        },
        "status": "final",
        "subject": {
          "reference": "urn:uuid:e1d487fb-2375-4eb8-89dc-3cf8f3f942e4",
          "display": "Gioele Fabbri"
        },
        "effectiveDateTime": "2025-06-10T15:46:20Z",
        "specimen": {
          "reference": "urn:uuid:538dc402-fbb0-4af9-82bb-ac66d5157faf"
        }
      }
    },
    {
      "fullUrl": "urn:uuid:1dd6e034-a113-4cf6-a329-bd0ef930b0e8",
      "resource": {
        "resourceType": "Observation",
        "id": "1dd6e034-a113-4cf6-a329-bd0ef930b0e8",
        "meta": {
          "profile": [
            "http://hl7.eu/fhir/laboratory/StructureDefinition/Observation-resultslab-eu-lab"
          ]
        },
        "performer": [
          {
            "display": "The Central European Lab"
          }
        ],
        "category": [
          {
            "coding": [
              {
                "system": "http://terminology.hl7.org/CodeSystem/observation-category",
                "code": "laboratory"
              }
            ]
          }
        ],
        "code": {
          "coding": [
            {
              "code": "18262-6",
              "system": "http://loinc.org",
              "display": "Cholesterol in LDL [Mass/volume] in Serum or Plasma by Direct assay"
            }
          ],
          "text": "Cholesterol in LDL [Mass/volume] in Serum or Plasma by Direct assay"
        },
        "valueQuantity": {
          "system": "http://unitsofmeasure.org",
          "value": 106.5,
          "unit": "mg/dL",
          "code": "mg/dL"
        },
        "referenceRange": [
          {
            "low": {
              "value": 0,
              "code": "mg/dL",
              "system": "http://unitsofmeasure.org"
            }
          },
          {
            "high": {
              "value": 130,
              "code": "mg/dL",
              "system": "http://unitsofmeasure.org"
            }
          }
        ],
        "text": {
          "status": "generated",
          "div": "<div xmlns=\"http://www.w3.org/1999/xhtml\"><table class=\"hl7__eu__lab__report\"><tr><th>Test</th><th>10-Jun-2025</th><th>Reference&#xA0;Range</th><th>Unit</th></tr><tr><td>Cholesterol in LDL [Mass/volume] in Serum or Plasma by Direct assay</td><td>106.5</td><td>0 - 130</td><td></td><td>mg/dL</td></tr></table></div>"
        },
        "status": "final",
        "subject": {
          "reference": "urn:uuid:e1d487fb-2375-4eb8-89dc-3cf8f3f942e4",
          "display": "Gioele Fabbri"
        },
        "effectiveDateTime": "2025-06-10T15:46:20Z",
        "specimen": {
          "reference": "urn:uuid:538dc402-fbb0-4af9-82bb-ac66d5157faf"
        }
      }
    },
    {
      "fullUrl": "urn:uuid:f496cbd1-d566-4295-ae9e-ee6ff5488116",
      "resource": {
        "resourceType": "Observation",
        "id": "f496cbd1-d566-4295-ae9e-ee6ff5488116",
        "meta": {
          "profile": [
            "http://hl7.eu/fhir/laboratory/StructureDefinition/Observation-resultslab-eu-lab"
          ]
        },
        "performer": [
          {
            "display": "The Central European Lab"
          }
        ],
        "category": [
          {
            "coding": [
              {
                "system": "http://terminology.hl7.org/CodeSystem/observation-category",
                "code": "laboratory"
              }
            ]
          }
        ],
        "code": {
          "coding": [
            {
              "code": "2085-9",
              "system": "http://loinc.org",
              "display": "Cholesterol in HDL [Mass/volume] in Serum or Plasma"
            }
          ],
          "text": "Cholesterol in HDL [Mass/volume] in Serum or Plasma"
        },
        "valueQuantity": {
          "system": "http://unitsofmeasure.org",
          "value": 31.4,
          "unit": "mg/dL",
          "code": "mg/dL"
        },
        "referenceRange": [
          {
            "low": {
              "value": 40,
              "code": "mg/dL",
              "system": "http://unitsofmeasure.org"
            }
          },
          {
            "high": {
              "value": 100,
              "code": "mg/dL",
              "system": "http://unitsofmeasure.org"
            }
          }
        ],
        "interpretation": [
          {
            "coding": [
              {
                "code": "L",
                "system": "http://terminology.hl7.org/CodeSystem/v3-ObservationInterpretation",
                "display": "Low"
              }
            ]
          }
        ],
        "text": {
          "status": "generated",
          "div": "<div xmlns=\"http://www.w3.org/1999/xhtml\"><table class=\"hl7__eu__lab__report\"><tr><th>Test</th><th>10-Jun-2025</th><th>Reference&#xA0;Range</th><th>Unit</th></tr><tr><td>Cholesterol in HDL [Mass/volume] in Serum or Plasma</td><td>31.4</td><td>40 - 100</td><td>L</td><td>mg/dL</td></tr></table></div>"
        },
        "status": "final",
        "subject": {
          "reference": "urn:uuid:e1d487fb-2375-4eb8-89dc-3cf8f3f942e4",
          "display": "Gioele Fabbri"
        },
        "effectiveDateTime": "2025-06-10T15:46:20Z",
        "specimen": {
          "reference": "urn:uuid:538dc402-fbb0-4af9-82bb-ac66d5157faf"
        }
      }
    },
    {
      "fullUrl": "urn:uuid:900361af-4a6c-4bc4-9c50-2bbe5e2e8085",
      "resource": {
        "resourceType": "Device",
        "id": "900361af-4a6c-4bc4-9c50-2bbe5e2e8085",
        "deviceName": [
          {
            "name": "SYNDERAI Synthetic Generator",
            "type": "manufacturer-name"
          }
        ],
        "version": [
          {
            "value": "5.0"
          }
        ],
        "text": {
          "status": "generated",
          "div": "<div xmlns=\"http://www.w3.org/1999/xhtml\">SYNDERAI Synthetic Generator v5.0</div>"
        },
        "status": "active\"",
        "distinctIdentifier": "synderai-generator-50",
        "manufacturer": "SYNDERAI Project"
      }
    },
    {
      "fullUrl": "urn:uuid:ca2053db-3f2d-41f0-9a7e-6afdd039d1d1",
      "resource": {
        "resourceType": "Provenance",
        "id": "ca2053db-3f2d-41f0-9a7e-6afdd039d1d1",
        "target": [
          {
            "reference": "Patient/e1d487fb-2375-4eb8-89dc-3cf8f3f942e4"
          },
          {
            "reference": "Bundle/e21b2690-e974-43b1-b919-2c8450b70235"
          },
          {
            "reference": "Composition/95ddf54a-cee1-4898-a5a5-eef53547fe37"
          },
          {
            "reference": "PractitionerRole/a6315424-ea7e-4138-bf2f-7685186b946f"
          },
          {
            "reference": "Practitioner/6b184f9a-ea77-4135-add7-ebb3d722e860"
          },
          {
            "reference": "PractitionerRole/5b07926f-c180-40fd-819f-084324ae3dbe"
          },
          {
            "reference": "Organization/3fd8e8ac-e5ca-4758-9116-a9cf80455880"
          }
        ],
        "activity": {
          "text": "Synthetic Example Data Generation"
        },
        "policy": [
          "https://synderai.net/synderai-synthetic-data-policy"
        ],
        "agent": [
          {
            "type": {
              "text": "author"
            },
            "who": {
              "reference": "Device/900361af-4a6c-4bc4-9c50-2bbe5e2e8085"
            }
          }
        ],
        "reason": [
          {
            "text": "Interoperability Testing and Training (non-clinical use)"
          }
        ],
        "text": {
          "status": "generated",
          "div": "<div xmlns=\"http://www.w3.org/1999/xhtml\">Provenance for SYNDERAI Synthetic Example Data Resource</div>"
        },
        "recorded": "2025-06-10T17:46:20Z"
      }
    },
    {
      "fullUrl": "urn:uuid:a6315424-ea7e-4138-bf2f-7685186b946f",
      "resource": {
        "resourceType": "PractitionerRole",
        "id": "a6315424-ea7e-4138-bf2f-7685186b946f",
        "meta": {
          "profile": [
            "http://hl7.eu/fhir/base/StructureDefinition/practitionerRole-eu"
          ]
        },
        "text": {
          "status": "generated",
          "div": "<div xmlns=\"http://www.w3.org/1999/xhtml\">Laboratory Role Id: a6315424-ea7e-4138-bf2f-7685186b946f</div>"
        },
        "practitioner": {
          "reference": "urn:uuid:6b184f9a-ea77-4135-add7-ebb3d722e860"
        }
      }
    },
    {
      "fullUrl": "urn:uuid:6b184f9a-ea77-4135-add7-ebb3d722e860",
      "resource": {
        "resourceType": "Practitioner",
        "id": "6b184f9a-ea77-4135-add7-ebb3d722e860",
        "meta": {
          "profile": [
            "http://hl7.eu/fhir/base/StructureDefinition/practitioner-eu"
          ]
        },
        "identifier": [
          {
            "assigner": {
              "display": "HL7 Europe"
            },
            "system": "urn:oid:2.16.840.1.113883.2.51.999",
            "value": "7fc2464f-e688-4922-b175-1f5e4fabf11c"
          }
        ],
        "name": [
          {
            "prefix": [
              "dr"
            ],
            "given": [
              "Ex"
            ],
            "family": "Ample"
          }
        ],
        "address": [
          {
            "line": [
              "Laboratoire Central Europenne",
              "Boulevard du Jardin Botanique 32"
            ],
            "postalCode": "1000",
            "city": "Brussels",
            "country": "Belgium"
          }
        ],
        "text": {
          "status": "generated",
          "div": "<div xmlns=\"http://www.w3.org/1999/xhtml\">Laboratory: Laboratoire Central Europenne, 1000 Brussels, Belgium</div>"
        }
      }
    }
  ],
  "type": "document",
  "timestamp": "2025-06-10T17:46:20Z"
}
