{
  "resourceType": "Bundle",
  "id": "d1beb8ec-83d2-4f85-9b05-f7c9de3e1de8",
  "meta": {
    "profile": [
      "http://hl7.eu/fhir/laboratory/StructureDefinition/Bundle-eu-lab"
    ]
  },
  "identifier": {
    "assigner": {
      "display": "HL7 Europe"
    },
    "system": "urn:oid:2.16.840.1.113883.2.51.999",
    "value": "48241184-fd4c-4581-b487-0af3c5183538"
  },
  "entry": [
    {
      "fullUrl": "urn:uuid:e0afcdca-8dd3-4342-ba66-988bde435936",
      "resource": {
        "resourceType": "Composition",
        "id": "e0afcdca-8dd3-4342-ba66-988bde435936",
        "meta": {
          "profile": [
            "http://hl7.eu/fhir/laboratory/StructureDefinition/Composition-eu-lab"
          ]
        },
        "identifier": {
          "assigner": {
            "display": "HL7 Europe"
          },
          "system": "urn:oid:2.16.840.1.113883.2.51.999",
          "value": "971cc3b1-b302-403a-b667-6b5a3978b1af"
        },
        "author": [
          {
            "reference": "urn:uuid:b2fa9470-21b1-42d1-8bc1-a398c746be49"
          }
        ],
        "category": [
          {
            "coding": [
              {
                "code": "26436-6",
                "system": "http://loinc.org",
                "display": "Laboratory studies (set)"
              }
            ]
          }
        ],
        "type": {
          "coding": [
            {
              "code": "11502-2",
              "system": "http://loinc.org",
              "display": "Laboratory report"
            }
          ],
          "text": "Laboratory Report"
        },
        "section": [
          {
            "code": {
              "coding": [
                {
                  "code": "26436-6",
                  "system": "http://loinc.org",
                  "display": "Laboratory studies (set)"
                }
              ],
              "text": "Laboratory studies"
            },
            "section": [
              {
                "code": {
                  "coding": [
                    {
                      "code": "$18723-7",
                      "system": "http://loinc.org",
                      "display": "Hematology studies (set)"
                    }
                  ],
                  "text": "Hematology"
                },
                "entry": [
                  {
                    "reference": "urn:uuid:9f8dd32b-9501-4b8b-9144-a0a6da6036ed"
                  },
                  {
                    "reference": "urn:uuid:a6a324d7-3d51-45a9-81f0-66f74101b7eb"
                  },
                  {
                    "reference": "urn:uuid:6d97c155-a102-4635-8bb0-f6a19a397333"
                  },
                  {
                    "reference": "urn:uuid:c08b6efc-947d-4a8e-8840-657088e1a7a9"
                  },
                  {
                    "reference": "urn:uuid:9db4b4f1-b3a5-4990-824f-e3e35441e14b"
                  },
                  {
                    "reference": "urn:uuid:424be917-c5ca-4ec7-925d-0136e487a70c"
                  },
                  {
                    "reference": "urn:uuid:8d6b0837-e12e-4559-89ce-44913d06323b"
                  },
                  {
                    "reference": "urn:uuid:39124cfb-14da-438d-a518-c35873c6093b"
                  },
                  {
                    "reference": "urn:uuid:da2ade13-21c6-4c19-8be7-65e18098c4a4"
                  },
                  {
                    "reference": "urn:uuid:f0113862-57a3-47d4-9b82-7d35f3626195"
                  },
                  {
                    "reference": "urn:uuid:ab03792b-76cd-4e42-b833-4a3919a5f875"
                  }
                ],
                "text": {
                  "status": "generated",
                  "div": "<div xmlns=\"http://www.w3.org/1999/xhtml\"><h3>Hematology</h3><table class=\"hl7__eu__lab__report\"><thead><tr><th>Test</th><th>05-MAR-2017</th><th>Reference Range</th><th>Unit</th></tr></thead><tbody><tr><td>Leukocytes [#/volume] in Blood by Automated count</td><td>8.7</td><td>3.5 - 10.5</td><td>10*3/uL</td></tr><tr><td>Erythrocytes [#/volume] in Blood by Automated count</td><td><strong>5.4 H</strong></td><td>4 - 5</td><td>10*6/uL</td></tr><tr><td>Hemoglobin [Mass/volume] in Blood</td><td>14.1</td><td>12 - 16</td><td>g/dL</td></tr><tr><td>Hematocrit [Volume Fraction] of Blood by Automated count</td><td>38.7</td><td>36 - 47</td><td>%</td></tr><tr><td>MCV [Entitic volume] by Automated count</td><td>86.3</td><td>82 - 98</td><td>fL</td></tr><tr><td>MCH [Entitic mass] by Automated count</td><td>29.1</td><td>27 - 33</td><td>pg</td></tr><tr><td>MCHC [Mass/volume] by Automated count</td><td><strong>35.5 H</strong></td><td>31 - 35</td><td>g/dL</td></tr><tr><td>Erythrocyte distribution width [Entitic volume] by Automated count</td><td>44.1</td><td>36 - 55</td><td>fL</td></tr><tr><td>Platelets [#/volume] in Blood by Automated count</td><td>313.2</td><td>150 - 450</td><td>10*3/uL</td></tr><tr><td>Platelet distribution width [Entitic volume] in Blood by Automated count</td><td><strong>425.3 H</strong></td><td>11.6 - 17.4</td><td>fL</td></tr><tr><td>Platelet mean volume [Entitic volume] in Blood by Automated count</td><td>11.2</td><td>9.6 - 13.8</td><td>fL</td></tr></tbody></table></div>"
                },
                "title": "Hematology"
              }
            ],
            "title": "Laboratory Report"
          },
          {
            "text": {
              "status": "generated",
              "div": "<div xmlns=\"http://www.w3.org/1999/xhtml\"><h3>Annotation</h3><table class=\"hl7__eu__lab__report\"><tr><th>Conclusion and Recommendations based on this report and previous findings known to us</th></tr><tr><td>The blood count shows mildly elevated erythrocytes and MCHC, and a markedly increased platelet distribution width, while all other parameters are within normal limits. These findings may reflect individual variation or mild hemoconcentration; no evidence of anemia, infection, or thrombocytopenia. Clinical correlation is recommended if symptoms are present.</td></tr></table></div>"
            },
            "code": {
              "coding": [
                {
                  "system": "http://loinc.org",
                  "code": "48767-8",
                  "display": "Annotation comment"
                }
              ]
            },
            "title": "Annotation comment"
          }
        ],
        "status": "final",
        "subject": {
          "reference": "urn:uuid:0bfdd600-2a3f-4eb5-8a23-19eaf9409426",
          "display": "Olga Bąbel"
        },
        "date": "2017-03-05T04:55:50Z",
        "title": "Laboratory Report",
        "confidentiality": "N"
      }
    },
    {
      "fullUrl": "urn:uuid:a8df8c1e-25ff-437b-9e91-eb803a0c1e8b",
      "resource": {
        "resourceType": "DiagnosticReport",
        "id": "a8df8c1e-25ff-437b-9e91-eb803a0c1e8b",
        "meta": {
          "profile": [
            "http://hl7.eu/fhir/laboratory/StructureDefinition/DiagnosticReport-eu-lab"
          ]
        },
        "identifier": [
          {
            "assigner": {
              "display": "HL7 Europe"
            },
            "system": "urn:oid:2.16.840.1.113883.2.51.999",
            "value": "0a713f4c-949e-4d74-8dce-ca26f667b2fd"
          }
        ],
        "extension": [
          {
            "url": "http://hl7.org/fhir/5.0/StructureDefinition/extension-DiagnosticReport.composition",
            "valueReference": {
              "reference": "urn:uuid:971cc3b1-b302-403a-b667-6b5a3978b1af"
            }
          }
        ],
        "category": [
          {
            "coding": [
              {
                "code": "26436-6",
                "system": "http://loinc.org",
                "display": "Laboratory studies (set)"
              }
            ]
          }
        ],
        "specimen": [
          {
            "reference": "urn:uuid:384f33a2-03a6-4202-93af-ac8a1b37a4b8"
          },
          {
            "reference": "urn:uuid:384f33a2-03a6-4202-93af-ac8a1b37a4b8"
          }
        ],
        "result": [
          {
            "reference": "urn:uuid:9f8dd32b-9501-4b8b-9144-a0a6da6036ed"
          },
          {
            "reference": "urn:uuid:a6a324d7-3d51-45a9-81f0-66f74101b7eb"
          },
          {
            "reference": "urn:uuid:6d97c155-a102-4635-8bb0-f6a19a397333"
          },
          {
            "reference": "urn:uuid:c08b6efc-947d-4a8e-8840-657088e1a7a9"
          },
          {
            "reference": "urn:uuid:9db4b4f1-b3a5-4990-824f-e3e35441e14b"
          },
          {
            "reference": "urn:uuid:424be917-c5ca-4ec7-925d-0136e487a70c"
          },
          {
            "reference": "urn:uuid:8d6b0837-e12e-4559-89ce-44913d06323b"
          },
          {
            "reference": "urn:uuid:39124cfb-14da-438d-a518-c35873c6093b"
          },
          {
            "reference": "urn:uuid:da2ade13-21c6-4c19-8be7-65e18098c4a4"
          },
          {
            "reference": "urn:uuid:f0113862-57a3-47d4-9b82-7d35f3626195"
          },
          {
            "reference": "urn:uuid:ab03792b-76cd-4e42-b833-4a3919a5f875"
          }
        ],
        "status": "registered",
        "code": {
          "coding": [
            {
              "code": "11502-2",
              "system": "http://loinc.org",
              "display": "Laboratory report"
            }
          ]
        },
        "subject": {
          "reference": "urn:uuid:0bfdd600-2a3f-4eb5-8a23-19eaf9409426",
          "display": "Olga Bąbel"
        }
      }
    },
    {
      "fullUrl": "urn:uuid:0bfdd600-2a3f-4eb5-8a23-19eaf9409426",
      "resource": {
        "resourceType": "Patient",
        "id": "0bfdd600-2a3f-4eb5-8a23-19eaf9409426",
        "meta": {
          "security": [
            {
              "system": "http://terminology.hl7.org/CodeSystem/v3-ActReason",
              "code": "HTEST"
            },
            {
              "system": "http://terminology.hl7.org/CodeSystem/v3-ActReason",
              "code": "TRAIN"
            }
          ],
          "tag": [
            {
              "system": "https://synderai.net/fhir/CodeSystem/tags",
              "code": "synthetic",
              "display": "SYNDERAI Synthetic data"
            }
          ],
          "profile": [
            "http://hl7.eu/fhir/base/StructureDefinition/patient-eu-core"
          ]
        },
        "identifier": [
          {
            "type": {
              "coding": [
                {
                  "code": "PT",
                  "system": "http://terminology.hl7.org/CodeSystem/v2-0203"
                }
              ]
            },
            "system": "http://ec.europa.eu/identifier/eci",
            "value": "5030-866518-6"
          },
          {
            "type": {
              "coding": [
                {
                  "code": "MR",
                  "system": "http://terminology.hl7.org/CodeSystem/v2-0203"
                }
              ]
            },
            "system": "http://local.setting.eu/identifier",
            "value": "90f4ce41-5cb2-20e8-d5ac-80001edd2b41"
          }
        ],
        "name": [
          {
            "family": "Bąbel"
          },
          {
            "given": [
              "Olga"
            ]
          },
          {
            "text": "Olga Bąbel"
          }
        ],
        "address": [
          {
            "line": [
              "ul. Podleśna 13/38"
            ],
            "use": "home",
            "type": "physical",
            "postalCode": "05-200",
            "city": "Wołomin",
            "country": "Poland"
          }
        ],
        "telecom": [
          {
            "system": "phone",
            "value": "+48 506 354 073"
          }
        ],
        "extension": [
          {
            "url": "http://hl7.org/fhir/StructureDefinition/patient-nationality",
            "valueCodeableConcept": {
              "coding": [
                {
                  "code": "PL",
                  "system": "http://hl7.org/fhir/ValueSet/country"
                }
              ]
            }
          }
        ],
        "text": {
          "status": "generated",
          "div": "<div xmlns=\"http://www.w3.org/1999/xhtml\"><table class=\"hl7__ips\"><tr><td>Olga Bąbel</td><td>female</td><td>05-Jun-1993</td></tr></table></div>"
        },
        "gender": "female",
        "birthDate": "1993-06-05"
      }
    },
    {
      "fullUrl": "urn:uuid:f76e48e9-552d-4b2f-80d0-46f59620ab89",
      "resource": {
        "resourceType": "ServiceRequest",
        "id": "f76e48e9-552d-4b2f-80d0-46f59620ab89",
        "meta": {
          "profile": [
            "http://hl7.eu/fhir/laboratory/StructureDefinition/ServiceRequest-eu-lab"
          ]
        },
        "identifier": [
          {
            "system": "http://example.org",
            "value": "21a9c692-47c7-4872-8d9e-168f886a4d19"
          }
        ],
        "specimen": [
          {
            "reference": "urn:uuid:384f33a2-03a6-4202-93af-ac8a1b37a4b8"
          }
        ],
        "reasonCode": [
          {
            "coding": [
              {
                "code": "15777000",
                "system": "http://snomed.info/sct",
                "display": "Prediabetes"
              }
            ]
          },
          {
            "coding": [
              {
                "code": "271737000",
                "system": "http://snomed.info/sct",
                "display": "Anemia"
              }
            ]
          }
        ],
        "status": "active",
        "intent": "order",
        "code": {
          "coding": [
            {
              "code": "108252007",
              "system": "http://snomed.info/sct",
              "display": "Laboratory procedure"
            }
          ]
        },
        "subject": {
          "reference": "urn:uuid:0bfdd600-2a3f-4eb5-8a23-19eaf9409426",
          "display": "Olga Bąbel"
        },
        "requester": {
          "reference": "urn:uuid:03892582-91d3-404e-a5a7-ea14abd45c62"
        }
      }
    },
    {
      "fullUrl": "urn:uuid:03892582-91d3-404e-a5a7-ea14abd45c62",
      "resource": {
        "resourceType": "PractitionerRole",
        "id": "03892582-91d3-404e-a5a7-ea14abd45c62",
        "meta": {
          "profile": [
            "http://hl7.eu/fhir/base/StructureDefinition/practitionerRole-eu"
          ]
        },
        "text": {
          "status": "generated",
          "div": "<div xmlns=\"http://www.w3.org/1999/xhtml\">Provider Role Id: 03892582-91d3-404e-a5a7-ea14abd45c62</div>"
        },
        "organization": {
          "reference": "urn:uuid:d65c4e34-7f90-40fa-bcb2-f65451f24abc"
        }
      }
    },
    {
      "fullUrl": "urn:uuid:d65c4e34-7f90-40fa-bcb2-f65451f24abc",
      "resource": {
        "resourceType": "Organization",
        "id": "d65c4e34-7f90-40fa-bcb2-f65451f24abc",
        "meta": {
          "profile": [
            "http://hl7.eu/fhir/base/StructureDefinition/organization-eu"
          ]
        },
        "identifier": [
          {
            "assigner": {
              "display": "HL7 Europe"
            },
            "system": "urn:oid:2.16.840.1.113883.2.51.999",
            "value": "ea29e504-7d02-4c4b-ab68-6a9b5bf08ca6"
          }
        ],
        "address": [
          {
            "line": [
              "Ignacego Prądzyńskiego 11"
            ],
            "city": "Wołomin",
            "postalCode": "05-200",
            "country": "Poland"
          }
        ],
        "text": {
          "status": "generated",
          "div": "<div xmlns=\"http://www.w3.org/1999/xhtml\">Provider Organization: Miejski Samodzielny Publiczny Zakład Opieki Zdrowotnej Nr 1</div>"
        },
        "name": "Miejski Samodzielny Publiczny Zakład Opieki Zdrowotnej Nr 1"
      }
    },
    {
      "fullUrl": "urn:uuid:384f33a2-03a6-4202-93af-ac8a1b37a4b8",
      "resource": {
        "resourceType": "Specimen",
        "id": "384f33a2-03a6-4202-93af-ac8a1b37a4b8",
        "meta": {
          "profile": [
            "http://hl7.eu/fhir/laboratory/StructureDefinition/Specimen-eu-lab"
          ]
        },
        "collection": {
          "collectedDateTime": "2017-03-05"
        },
        "text": {
          "status": "generated",
          "div": "<div xmlns=\"http://www.w3.org/1999/xhtml\"><table class=\"hl7__eu__lab__report\"><tr><th>Specimen</th><th>Collection Date</th></tr><tr><td>Whole blood specimen (specimen)</td><td><span class=\"nb\">05-Mar-2017</span></td></tr></table></div>"
        },
        "type": {
          "coding": [
            {
              "code": "258580003",
              "system": "http://snomed.info/sct",
              "display": "Whole blood specimen (specimen)"
            }
          ]
        }
      }
    },
    {
      "fullUrl": "urn:uuid:384f33a2-03a6-4202-93af-ac8a1b37a4b8",
      "resource": {
        "resourceType": "Specimen",
        "id": "384f33a2-03a6-4202-93af-ac8a1b37a4b8",
        "meta": {
          "profile": [
            "http://hl7.eu/fhir/laboratory/StructureDefinition/Specimen-eu-lab"
          ]
        },
        "collection": {
          "collectedDateTime": "2017-03-05"
        },
        "text": {
          "status": "generated",
          "div": "<div xmlns=\"http://www.w3.org/1999/xhtml\"><table class=\"hl7__eu__lab__report\"><tr><th>Specimen</th><th>Collection Date</th></tr><tr><td>Whole blood specimen (specimen)</td><td><span class=\"nb\">05-Mar-2017</span></td></tr></table></div>"
        },
        "type": {
          "coding": [
            {
              "code": "258580003",
              "system": "http://snomed.info/sct",
              "display": "Whole blood specimen (specimen)"
            }
          ]
        }
      }
    },
    {
      "fullUrl": "urn:uuid:9f8dd32b-9501-4b8b-9144-a0a6da6036ed",
      "resource": {
        "resourceType": "Observation",
        "id": "9f8dd32b-9501-4b8b-9144-a0a6da6036ed",
        "meta": {
          "profile": [
            "http://hl7.eu/fhir/laboratory/StructureDefinition/Observation-resultslab-eu-lab"
          ]
        },
        "performer": [
          {
            "display": "The Central European Lab"
          }
        ],
        "category": [
          {
            "coding": [
              {
                "system": "http://terminology.hl7.org/CodeSystem/observation-category",
                "code": "laboratory"
              }
            ]
          }
        ],
        "code": {
          "coding": [
            {
              "code": "6690-2",
              "system": "http://loinc.org",
              "display": "Leukocytes [#/volume] in Blood by Automated count"
            }
          ],
          "text": "Leukocytes [#/volume] in Blood by Automated count"
        },
        "valueQuantity": {
          "system": "http://unitsofmeasure.org",
          "value": 8.7,
          "unit": "10*3/uL",
          "code": "10*3/uL"
        },
        "referenceRange": [
          {
            "low": {
              "value": 3.5,
              "code": "10*3/uL",
              "system": "http://unitsofmeasure.org"
            }
          },
          {
            "high": {
              "value": 10.5,
              "code": "10*3/uL",
              "system": "http://unitsofmeasure.org"
            }
          }
        ],
        "text": {
          "status": "generated",
          "div": "<div xmlns=\"http://www.w3.org/1999/xhtml\"><table class=\"hl7__eu__lab__report\"><tr><th>Test</th><th>05-Mar-2017</th><th>Reference Range</th><th>Unit</th></tr><tr><td>Leukocytes [#/volume] in Blood by Automated count</td><td>8.7</td><td>3.5 - 10.5</td><td></td><td>10*3/uL</td></tr></table></div>"
        },
        "status": "final",
        "subject": {
          "reference": "urn:uuid:0bfdd600-2a3f-4eb5-8a23-19eaf9409426",
          "display": "Olga Bąbel"
        },
        "effectiveDateTime": "2017-03-05T03:55:50Z",
        "specimen": {
          "reference": "urn:uuid:384f33a2-03a6-4202-93af-ac8a1b37a4b8"
        }
      }
    },
    {
      "fullUrl": "urn:uuid:a6a324d7-3d51-45a9-81f0-66f74101b7eb",
      "resource": {
        "resourceType": "Observation",
        "id": "a6a324d7-3d51-45a9-81f0-66f74101b7eb",
        "meta": {
          "profile": [
            "http://hl7.eu/fhir/laboratory/StructureDefinition/Observation-resultslab-eu-lab"
          ]
        },
        "performer": [
          {
            "display": "The Central European Lab"
          }
        ],
        "category": [
          {
            "coding": [
              {
                "system": "http://terminology.hl7.org/CodeSystem/observation-category",
                "code": "laboratory"
              }
            ]
          }
        ],
        "code": {
          "coding": [
            {
              "code": "789-8",
              "system": "http://loinc.org",
              "display": "Erythrocytes [#/volume] in Blood by Automated count"
            }
          ],
          "text": "Erythrocytes [#/volume] in Blood by Automated count"
        },
        "valueQuantity": {
          "system": "http://unitsofmeasure.org",
          "value": 5.4,
          "unit": "10*6/uL",
          "code": "10*6/uL"
        },
        "referenceRange": [
          {
            "low": {
              "value": 4,
              "code": "10*6/uL",
              "system": "http://unitsofmeasure.org"
            }
          },
          {
            "high": {
              "value": 5,
              "code": "10*6/uL",
              "system": "http://unitsofmeasure.org"
            }
          }
        ],
        "interpretation": [
          {
            "coding": [
              {
                "code": "H",
                "system": "http://terminology.hl7.org/CodeSystem/v3-ObservationInterpretation",
                "display": "High"
              }
            ]
          }
        ],
        "text": {
          "status": "generated",
          "div": "<div xmlns=\"http://www.w3.org/1999/xhtml\"><table class=\"hl7__eu__lab__report\"><tr><th>Test</th><th>05-Mar-2017</th><th>Reference Range</th><th>Unit</th></tr><tr><td>Erythrocytes [#/volume] in Blood by Automated count</td><td>5.4</td><td>4 - 5</td><td>H</td><td>10*6/uL</td></tr></table></div>"
        },
        "status": "final",
        "subject": {
          "reference": "urn:uuid:0bfdd600-2a3f-4eb5-8a23-19eaf9409426",
          "display": "Olga Bąbel"
        },
        "effectiveDateTime": "2017-03-05T03:55:50Z",
        "specimen": {
          "reference": "urn:uuid:384f33a2-03a6-4202-93af-ac8a1b37a4b8"
        }
      }
    },
    {
      "fullUrl": "urn:uuid:6d97c155-a102-4635-8bb0-f6a19a397333",
      "resource": {
        "resourceType": "Observation",
        "id": "6d97c155-a102-4635-8bb0-f6a19a397333",
        "meta": {
          "profile": [
            "http://hl7.eu/fhir/laboratory/StructureDefinition/Observation-resultslab-eu-lab"
          ]
        },
        "performer": [
          {
            "display": "The Central European Lab"
          }
        ],
        "category": [
          {
            "coding": [
              {
                "system": "http://terminology.hl7.org/CodeSystem/observation-category",
                "code": "laboratory"
              }
            ]
          }
        ],
        "code": {
          "coding": [
            {
              "code": "718-7",
              "system": "http://loinc.org",
              "display": "Hemoglobin [Mass/volume] in Blood"
            }
          ],
          "text": "Hemoglobin [Mass/volume] in Blood"
        },
        "valueQuantity": {
          "system": "http://unitsofmeasure.org",
          "value": 14.1,
          "unit": "g/dL",
          "code": "g/dL"
        },
        "referenceRange": [
          {
            "low": {
              "value": 12,
              "code": "g/dL",
              "system": "http://unitsofmeasure.org"
            }
          },
          {
            "high": {
              "value": 16,
              "code": "g/dL",
              "system": "http://unitsofmeasure.org"
            }
          }
        ],
        "text": {
          "status": "generated",
          "div": "<div xmlns=\"http://www.w3.org/1999/xhtml\"><table class=\"hl7__eu__lab__report\"><tr><th>Test</th><th>05-Mar-2017</th><th>Reference Range</th><th>Unit</th></tr><tr><td>Hemoglobin [Mass/volume] in Blood</td><td>14.1</td><td>12 - 16</td><td></td><td>g/dL</td></tr></table></div>"
        },
        "status": "final",
        "subject": {
          "reference": "urn:uuid:0bfdd600-2a3f-4eb5-8a23-19eaf9409426",
          "display": "Olga Bąbel"
        },
        "effectiveDateTime": "2017-03-05T03:55:50Z",
        "specimen": {
          "reference": "urn:uuid:384f33a2-03a6-4202-93af-ac8a1b37a4b8"
        }
      }
    },
    {
      "fullUrl": "urn:uuid:c08b6efc-947d-4a8e-8840-657088e1a7a9",
      "resource": {
        "resourceType": "Observation",
        "id": "c08b6efc-947d-4a8e-8840-657088e1a7a9",
        "meta": {
          "profile": [
            "http://hl7.eu/fhir/laboratory/StructureDefinition/Observation-resultslab-eu-lab"
          ]
        },
        "performer": [
          {
            "display": "The Central European Lab"
          }
        ],
        "category": [
          {
            "coding": [
              {
                "system": "http://terminology.hl7.org/CodeSystem/observation-category",
                "code": "laboratory"
              }
            ]
          }
        ],
        "code": {
          "coding": [
            {
              "code": "4544-3",
              "system": "http://loinc.org",
              "display": "Hematocrit [Volume Fraction] of Blood by Automated count"
            }
          ],
          "text": "Hematocrit [Volume Fraction] of Blood by Automated count"
        },
        "valueQuantity": {
          "system": "http://unitsofmeasure.org",
          "value": 38.7,
          "unit": "%",
          "code": "%"
        },
        "referenceRange": [
          {
            "low": {
              "value": 36,
              "code": "%",
              "system": "http://unitsofmeasure.org"
            }
          },
          {
            "high": {
              "value": 47,
              "code": "%",
              "system": "http://unitsofmeasure.org"
            }
          }
        ],
        "text": {
          "status": "generated",
          "div": "<div xmlns=\"http://www.w3.org/1999/xhtml\"><table class=\"hl7__eu__lab__report\"><tr><th>Test</th><th>05-Mar-2017</th><th>Reference Range</th><th>Unit</th></tr><tr><td>Hematocrit [Volume Fraction] of Blood by Automated count</td><td>38.7</td><td>36 - 47</td><td></td><td>%</td></tr></table></div>"
        },
        "status": "final",
        "subject": {
          "reference": "urn:uuid:0bfdd600-2a3f-4eb5-8a23-19eaf9409426",
          "display": "Olga Bąbel"
        },
        "effectiveDateTime": "2017-03-05T03:55:50Z",
        "specimen": {
          "reference": "urn:uuid:384f33a2-03a6-4202-93af-ac8a1b37a4b8"
        }
      }
    },
    {
      "fullUrl": "urn:uuid:9db4b4f1-b3a5-4990-824f-e3e35441e14b",
      "resource": {
        "resourceType": "Observation",
        "id": "9db4b4f1-b3a5-4990-824f-e3e35441e14b",
        "meta": {
          "profile": [
            "http://hl7.eu/fhir/laboratory/StructureDefinition/Observation-resultslab-eu-lab"
          ]
        },
        "performer": [
          {
            "display": "The Central European Lab"
          }
        ],
        "category": [
          {
            "coding": [
              {
                "system": "http://terminology.hl7.org/CodeSystem/observation-category",
                "code": "laboratory"
              }
            ]
          }
        ],
        "code": {
          "coding": [
            {
              "code": "787-2",
              "system": "http://loinc.org",
              "display": "MCV [Entitic volume] by Automated count"
            }
          ],
          "text": "MCV [Entitic volume] by Automated count"
        },
        "valueQuantity": {
          "system": "http://unitsofmeasure.org",
          "value": 86.3,
          "unit": "fL",
          "code": "fL"
        },
        "referenceRange": [
          {
            "low": {
              "value": 82,
              "code": "fL",
              "system": "http://unitsofmeasure.org"
            }
          },
          {
            "high": {
              "value": 98,
              "code": "fL",
              "system": "http://unitsofmeasure.org"
            }
          }
        ],
        "text": {
          "status": "generated",
          "div": "<div xmlns=\"http://www.w3.org/1999/xhtml\"><table class=\"hl7__eu__lab__report\"><tr><th>Test</th><th>05-Mar-2017</th><th>Reference Range</th><th>Unit</th></tr><tr><td>MCV [Entitic volume] by Automated count</td><td>86.3</td><td>82 - 98</td><td></td><td>fL</td></tr></table></div>"
        },
        "status": "final",
        "subject": {
          "reference": "urn:uuid:0bfdd600-2a3f-4eb5-8a23-19eaf9409426",
          "display": "Olga Bąbel"
        },
        "effectiveDateTime": "2017-03-05T03:55:50Z",
        "specimen": {
          "reference": "urn:uuid:384f33a2-03a6-4202-93af-ac8a1b37a4b8"
        }
      }
    },
    {
      "fullUrl": "urn:uuid:424be917-c5ca-4ec7-925d-0136e487a70c",
      "resource": {
        "resourceType": "Observation",
        "id": "424be917-c5ca-4ec7-925d-0136e487a70c",
        "meta": {
          "profile": [
            "http://hl7.eu/fhir/laboratory/StructureDefinition/Observation-resultslab-eu-lab"
          ]
        },
        "performer": [
          {
            "display": "The Central European Lab"
          }
        ],
        "category": [
          {
            "coding": [
              {
                "system": "http://terminology.hl7.org/CodeSystem/observation-category",
                "code": "laboratory"
              }
            ]
          }
        ],
        "code": {
          "coding": [
            {
              "code": "785-6",
              "system": "http://loinc.org",
              "display": "MCH [Entitic mass] by Automated count"
            }
          ],
          "text": "MCH [Entitic mass] by Automated count"
        },
        "valueQuantity": {
          "system": "http://unitsofmeasure.org",
          "value": 29.1,
          "unit": "pg",
          "code": "pg"
        },
        "referenceRange": [
          {
            "low": {
              "value": 27,
              "code": "pg",
              "system": "http://unitsofmeasure.org"
            }
          },
          {
            "high": {
              "value": 33,
              "code": "pg",
              "system": "http://unitsofmeasure.org"
            }
          }
        ],
        "text": {
          "status": "generated",
          "div": "<div xmlns=\"http://www.w3.org/1999/xhtml\"><table class=\"hl7__eu__lab__report\"><tr><th>Test</th><th>05-Mar-2017</th><th>Reference Range</th><th>Unit</th></tr><tr><td>MCH [Entitic mass] by Automated count</td><td>29.1</td><td>27 - 33</td><td></td><td>pg</td></tr></table></div>"
        },
        "status": "final",
        "subject": {
          "reference": "urn:uuid:0bfdd600-2a3f-4eb5-8a23-19eaf9409426",
          "display": "Olga Bąbel"
        },
        "effectiveDateTime": "2017-03-05T03:55:50Z",
        "specimen": {
          "reference": "urn:uuid:384f33a2-03a6-4202-93af-ac8a1b37a4b8"
        }
      }
    },
    {
      "fullUrl": "urn:uuid:8d6b0837-e12e-4559-89ce-44913d06323b",
      "resource": {
        "resourceType": "Observation",
        "id": "8d6b0837-e12e-4559-89ce-44913d06323b",
        "meta": {
          "profile": [
            "http://hl7.eu/fhir/laboratory/StructureDefinition/Observation-resultslab-eu-lab"
          ]
        },
        "performer": [
          {
            "display": "The Central European Lab"
          }
        ],
        "category": [
          {
            "coding": [
              {
                "system": "http://terminology.hl7.org/CodeSystem/observation-category",
                "code": "laboratory"
              }
            ]
          }
        ],
        "code": {
          "coding": [
            {
              "code": "786-4",
              "system": "http://loinc.org",
              "display": "MCHC [Mass/volume] by Automated count"
            }
          ],
          "text": "MCHC [Mass/volume] by Automated count"
        },
        "valueQuantity": {
          "system": "http://unitsofmeasure.org",
          "value": 35.5,
          "unit": "g/dL",
          "code": "g/dL"
        },
        "referenceRange": [
          {
            "low": {
              "value": 31,
              "code": "g/dL",
              "system": "http://unitsofmeasure.org"
            }
          },
          {
            "high": {
              "value": 35,
              "code": "g/dL",
              "system": "http://unitsofmeasure.org"
            }
          }
        ],
        "interpretation": [
          {
            "coding": [
              {
                "code": "H",
                "system": "http://terminology.hl7.org/CodeSystem/v3-ObservationInterpretation",
                "display": "High"
              }
            ]
          }
        ],
        "text": {
          "status": "generated",
          "div": "<div xmlns=\"http://www.w3.org/1999/xhtml\"><table class=\"hl7__eu__lab__report\"><tr><th>Test</th><th>05-Mar-2017</th><th>Reference Range</th><th>Unit</th></tr><tr><td>MCHC [Mass/volume] by Automated count</td><td>35.5</td><td>31 - 35</td><td>H</td><td>g/dL</td></tr></table></div>"
        },
        "status": "final",
        "subject": {
          "reference": "urn:uuid:0bfdd600-2a3f-4eb5-8a23-19eaf9409426",
          "display": "Olga Bąbel"
        },
        "effectiveDateTime": "2017-03-05T03:55:50Z",
        "specimen": {
          "reference": "urn:uuid:384f33a2-03a6-4202-93af-ac8a1b37a4b8"
        }
      }
    },
    {
      "fullUrl": "urn:uuid:39124cfb-14da-438d-a518-c35873c6093b",
      "resource": {
        "resourceType": "Observation",
        "id": "39124cfb-14da-438d-a518-c35873c6093b",
        "meta": {
          "profile": [
            "http://hl7.eu/fhir/laboratory/StructureDefinition/Observation-resultslab-eu-lab"
          ]
        },
        "performer": [
          {
            "display": "The Central European Lab"
          }
        ],
        "category": [
          {
            "coding": [
              {
                "system": "http://terminology.hl7.org/CodeSystem/observation-category",
                "code": "laboratory"
              }
            ]
          }
        ],
        "code": {
          "coding": [
            {
              "code": "21000-5",
              "system": "http://loinc.org",
              "display": "Erythrocyte distribution width [Entitic volume] by Automated count"
            }
          ],
          "text": "Erythrocyte distribution width [Entitic volume] by Automated count"
        },
        "valueQuantity": {
          "system": "http://unitsofmeasure.org",
          "value": 44.1,
          "unit": "fL",
          "code": "fL"
        },
        "referenceRange": [
          {
            "low": {
              "value": 36,
              "code": "fL",
              "system": "http://unitsofmeasure.org"
            }
          },
          {
            "high": {
              "value": 55,
              "code": "fL",
              "system": "http://unitsofmeasure.org"
            }
          }
        ],
        "text": {
          "status": "generated",
          "div": "<div xmlns=\"http://www.w3.org/1999/xhtml\"><table class=\"hl7__eu__lab__report\"><tr><th>Test</th><th>05-Mar-2017</th><th>Reference Range</th><th>Unit</th></tr><tr><td>Erythrocyte distribution width [Entitic volume] by Automated count</td><td>44.1</td><td>36 - 55</td><td></td><td>fL</td></tr></table></div>"
        },
        "status": "final",
        "subject": {
          "reference": "urn:uuid:0bfdd600-2a3f-4eb5-8a23-19eaf9409426",
          "display": "Olga Bąbel"
        },
        "effectiveDateTime": "2017-03-05T03:55:50Z",
        "specimen": {
          "reference": "urn:uuid:384f33a2-03a6-4202-93af-ac8a1b37a4b8"
        }
      }
    },
    {
      "fullUrl": "urn:uuid:da2ade13-21c6-4c19-8be7-65e18098c4a4",
      "resource": {
        "resourceType": "Observation",
        "id": "da2ade13-21c6-4c19-8be7-65e18098c4a4",
        "meta": {
          "profile": [
            "http://hl7.eu/fhir/laboratory/StructureDefinition/Observation-resultslab-eu-lab"
          ]
        },
        "performer": [
          {
            "display": "The Central European Lab"
          }
        ],
        "category": [
          {
            "coding": [
              {
                "system": "http://terminology.hl7.org/CodeSystem/observation-category",
                "code": "laboratory"
              }
            ]
          }
        ],
        "code": {
          "coding": [
            {
              "code": "777-3",
              "system": "http://loinc.org",
              "display": "Platelets [#/volume] in Blood by Automated count"
            }
          ],
          "text": "Platelets [#/volume] in Blood by Automated count"
        },
        "valueQuantity": {
          "system": "http://unitsofmeasure.org",
          "value": 313.2,
          "unit": "10*3/uL",
          "code": "10*3/uL"
        },
        "referenceRange": [
          {
            "low": {
              "value": 150,
              "code": "10*3/uL",
              "system": "http://unitsofmeasure.org"
            }
          },
          {
            "high": {
              "value": 450,
              "code": "10*3/uL",
              "system": "http://unitsofmeasure.org"
            }
          }
        ],
        "text": {
          "status": "generated",
          "div": "<div xmlns=\"http://www.w3.org/1999/xhtml\"><table class=\"hl7__eu__lab__report\"><tr><th>Test</th><th>05-Mar-2017</th><th>Reference Range</th><th>Unit</th></tr><tr><td>Platelets [#/volume] in Blood by Automated count</td><td>313.2</td><td>150 - 450</td><td></td><td>10*3/uL</td></tr></table></div>"
        },
        "status": "final",
        "subject": {
          "reference": "urn:uuid:0bfdd600-2a3f-4eb5-8a23-19eaf9409426",
          "display": "Olga Bąbel"
        },
        "effectiveDateTime": "2017-03-05T03:55:50Z",
        "specimen": {
          "reference": "urn:uuid:384f33a2-03a6-4202-93af-ac8a1b37a4b8"
        }
      }
    },
    {
      "fullUrl": "urn:uuid:f0113862-57a3-47d4-9b82-7d35f3626195",
      "resource": {
        "resourceType": "Observation",
        "id": "f0113862-57a3-47d4-9b82-7d35f3626195",
        "meta": {
          "profile": [
            "http://hl7.eu/fhir/laboratory/StructureDefinition/Observation-resultslab-eu-lab"
          ]
        },
        "performer": [
          {
            "display": "The Central European Lab"
          }
        ],
        "category": [
          {
            "coding": [
              {
                "system": "http://terminology.hl7.org/CodeSystem/observation-category",
                "code": "laboratory"
              }
            ]
          }
        ],
        "code": {
          "coding": [
            {
              "code": "32207-3",
              "system": "http://loinc.org",
              "display": "Platelet distribution width [Entitic volume] in Blood by Automated count"
            }
          ],
          "text": "Platelet distribution width [Entitic volume] in Blood by Automated count"
        },
        "valueQuantity": {
          "system": "http://unitsofmeasure.org",
          "value": 425.3,
          "unit": "fL",
          "code": "fL"
        },
        "referenceRange": [
          {
            "low": {
              "value": 11.6,
              "code": "fL",
              "system": "http://unitsofmeasure.org"
            }
          },
          {
            "high": {
              "value": 17.4,
              "code": "fL",
              "system": "http://unitsofmeasure.org"
            }
          }
        ],
        "interpretation": [
          {
            "coding": [
              {
                "code": "H",
                "system": "http://terminology.hl7.org/CodeSystem/v3-ObservationInterpretation",
                "display": "High"
              }
            ]
          }
        ],
        "text": {
          "status": "generated",
          "div": "<div xmlns=\"http://www.w3.org/1999/xhtml\"><table class=\"hl7__eu__lab__report\"><tr><th>Test</th><th>05-Mar-2017</th><th>Reference Range</th><th>Unit</th></tr><tr><td>Platelet distribution width [Entitic volume] in Blood by Automated count</td><td>425.3</td><td>11.6 - 17.4</td><td>H</td><td>fL</td></tr></table></div>"
        },
        "status": "final",
        "subject": {
          "reference": "urn:uuid:0bfdd600-2a3f-4eb5-8a23-19eaf9409426",
          "display": "Olga Bąbel"
        },
        "effectiveDateTime": "2017-03-05T03:55:50Z",
        "specimen": {
          "reference": "urn:uuid:384f33a2-03a6-4202-93af-ac8a1b37a4b8"
        }
      }
    },
    {
      "fullUrl": "urn:uuid:ab03792b-76cd-4e42-b833-4a3919a5f875",
      "resource": {
        "resourceType": "Observation",
        "id": "ab03792b-76cd-4e42-b833-4a3919a5f875",
        "meta": {
          "profile": [
            "http://hl7.eu/fhir/laboratory/StructureDefinition/Observation-resultslab-eu-lab"
          ]
        },
        "performer": [
          {
            "display": "The Central European Lab"
          }
        ],
        "category": [
          {
            "coding": [
              {
                "system": "http://terminology.hl7.org/CodeSystem/observation-category",
                "code": "laboratory"
              }
            ]
          }
        ],
        "code": {
          "coding": [
            {
              "code": "32623-1",
              "system": "http://loinc.org",
              "display": "Platelet mean volume [Entitic volume] in Blood by Automated count"
            }
          ],
          "text": "Platelet mean volume [Entitic volume] in Blood by Automated count"
        },
        "valueQuantity": {
          "system": "http://unitsofmeasure.org",
          "value": 11.2,
          "unit": "fL",
          "code": "fL"
        },
        "referenceRange": [
          {
            "low": {
              "value": 9.6,
              "code": "fL",
              "system": "http://unitsofmeasure.org"
            }
          },
          {
            "high": {
              "value": 13.8,
              "code": "fL",
              "system": "http://unitsofmeasure.org"
            }
          }
        ],
        "text": {
          "status": "generated",
          "div": "<div xmlns=\"http://www.w3.org/1999/xhtml\"><table class=\"hl7__eu__lab__report\"><tr><th>Test</th><th>05-Mar-2017</th><th>Reference Range</th><th>Unit</th></tr><tr><td>Platelet mean volume [Entitic volume] in Blood by Automated count</td><td>11.2</td><td>9.6 - 13.8</td><td></td><td>fL</td></tr></table></div>"
        },
        "status": "final",
        "subject": {
          "reference": "urn:uuid:0bfdd600-2a3f-4eb5-8a23-19eaf9409426",
          "display": "Olga Bąbel"
        },
        "effectiveDateTime": "2017-03-05T03:55:50Z",
        "specimen": {
          "reference": "urn:uuid:384f33a2-03a6-4202-93af-ac8a1b37a4b8"
        }
      }
    },
    {
      "fullUrl": "urn:uuid:28c36090-c0b5-45c4-b6bd-afd334ef2c6b",
      "resource": {
        "resourceType": "Device",
        "id": "28c36090-c0b5-45c4-b6bd-afd334ef2c6b",
        "deviceName": [
          {
            "name": "SYNDERAI Synthetic Generator",
            "type": "manufacturer-name"
          }
        ],
        "version": [
          {
            "value": "5.0"
          }
        ],
        "text": {
          "status": "generated",
          "div": "<div xmlns=\"http://www.w3.org/1999/xhtml\">SYNDERAI Synthetic Generator v5.0</div>"
        },
        "status": "active\"",
        "distinctIdentifier": "synderai-generator-50",
        "manufacturer": "SYNDERAI Project"
      }
    },
    {
      "fullUrl": "urn:uuid:e62ff011-710d-4178-a84e-18acea4756a4",
      "resource": {
        "resourceType": "Provenance",
        "id": "e62ff011-710d-4178-a84e-18acea4756a4",
        "target": [
          {
            "reference": "Patient/0bfdd600-2a3f-4eb5-8a23-19eaf9409426"
          },
          {
            "reference": "Bundle/d1beb8ec-83d2-4f85-9b05-f7c9de3e1de8"
          },
          {
            "reference": "Composition/e0afcdca-8dd3-4342-ba66-988bde435936"
          },
          {
            "reference": "PractitionerRole/b2fa9470-21b1-42d1-8bc1-a398c746be49"
          },
          {
            "reference": "Practitioner/c870b289-a1eb-48d3-bda4-231fa921fa8a"
          },
          {
            "reference": "PractitionerRole/03892582-91d3-404e-a5a7-ea14abd45c62"
          },
          {
            "reference": "Organization/d65c4e34-7f90-40fa-bcb2-f65451f24abc"
          }
        ],
        "activity": {
          "text": "Synthetic Example Data Generation"
        },
        "policy": [
          "https://synderai.net/synderai-synthetic-data-policy"
        ],
        "agent": [
          {
            "type": {
              "text": "author"
            },
            "who": {
              "reference": "Device/28c36090-c0b5-45c4-b6bd-afd334ef2c6b"
            }
          }
        ],
        "reason": [
          {
            "text": "Interoperability Testing and Training (non-clinical use)"
          }
        ],
        "text": {
          "status": "generated",
          "div": "<div xmlns=\"http://www.w3.org/1999/xhtml\">Provenance for SYNDERAI Synthetic Example Data Resource</div>"
        },
        "recorded": "2017-03-05T04:55:50Z"
      }
    },
    {
      "fullUrl": "urn:uuid:b2fa9470-21b1-42d1-8bc1-a398c746be49",
      "resource": {
        "resourceType": "PractitionerRole",
        "id": "b2fa9470-21b1-42d1-8bc1-a398c746be49",
        "meta": {
          "profile": [
            "http://hl7.eu/fhir/base/StructureDefinition/practitionerRole-eu"
          ]
        },
        "text": {
          "status": "generated",
          "div": "<div xmlns=\"http://www.w3.org/1999/xhtml\">Laboratory Role Id: b2fa9470-21b1-42d1-8bc1-a398c746be49</div>"
        },
        "practitioner": {
          "reference": "urn:uuid:c870b289-a1eb-48d3-bda4-231fa921fa8a"
        }
      }
    },
    {
      "fullUrl": "urn:uuid:c870b289-a1eb-48d3-bda4-231fa921fa8a",
      "resource": {
        "resourceType": "Practitioner",
        "id": "c870b289-a1eb-48d3-bda4-231fa921fa8a",
        "meta": {
          "profile": [
            "http://hl7.eu/fhir/base/StructureDefinition/practitioner-eu"
          ]
        },
        "identifier": [
          {
            "assigner": {
              "display": "HL7 Europe"
            },
            "system": "urn:oid:2.16.840.1.113883.2.51.999",
            "value": "ec10eb7b-ee78-4077-930e-9124fe6de93e"
          }
        ],
        "name": [
          {
            "prefix": [
              "dr"
            ],
            "given": [
              "Ex"
            ],
            "family": "Ample"
          }
        ],
        "address": [
          {
            "line": [
              "Laboratoire Central Européenne",
              "Boulevard du Jardin Botanique 32"
            ],
            "postalCode": "1000",
            "city": "Brussels",
            "country": "Belgium"
          }
        ],
        "text": {
          "status": "generated",
          "div": "<div xmlns=\"http://www.w3.org/1999/xhtml\">Laboratory: Laboratoire Central Européenne, 1000 Brussels, Belgium</div>"
        }
      }
    }
  ],
  "type": "document",
  "timestamp": "2017-03-05T04:55:50Z"
}
