{
  "resourceType": "Bundle",
  "id": "59bd8777-be08-49c0-9ab1-a28effc39c76",
  "meta": {
    "profile": [
      "http://hl7.eu/fhir/laboratory/StructureDefinition/Bundle-eu-lab"
    ]
  },
  "identifier": {
    "assigner": {
      "display": "HL7 Europe"
    },
    "system": "urn:oid:2.16.840.1.113883.2.51.999",
    "value": "d265fb18-7912-4e49-b307-d798db35fe21"
  },
  "entry": [
    {
      "fullUrl": "urn:uuid:9966225b-41a9-4d2e-83f5-6741ecd05b33",
      "resource": {
        "resourceType": "Composition",
        "id": "9966225b-41a9-4d2e-83f5-6741ecd05b33",
        "meta": {
          "profile": [
            "http://hl7.eu/fhir/laboratory/StructureDefinition/Composition-eu-lab"
          ]
        },
        "identifier": {
          "assigner": {
            "display": "HL7 Europe"
          },
          "system": "urn:oid:2.16.840.1.113883.2.51.999",
          "value": "1d480253-7124-4b4a-8f37-4d418c13c14c"
        },
        "author": [
          {
            "reference": "urn:uuid:87dfc90a-e15d-4c11-bd4a-d22376211cd6"
          }
        ],
        "category": [
          {
            "coding": [
              {
                "code": "26436-6",
                "system": "http://loinc.org",
                "display": "Laboratory studies (set)"
              }
            ]
          }
        ],
        "type": {
          "coding": [
            {
              "code": "11502-2",
              "system": "http://loinc.org",
              "display": "Laboratory report"
            }
          ],
          "text": "Laboratory Report"
        },
        "section": [
          {
            "code": {
              "coding": [
                {
                  "code": "26436-6",
                  "system": "http://loinc.org",
                  "display": "Laboratory studies (set)"
                }
              ],
              "text": "Laboratory studies"
            },
            "section": [
              {
                "code": {
                  "coding": [
                    {
                      "code": "$18719-5",
                      "system": "http://loinc.org",
                      "display": "Chemistry studies (set)"
                    }
                  ],
                  "text": "Chemistry"
                },
                "entry": [
                  {
                    "reference": "urn:uuid:36cec41a-4d24-49ca-a762-d14e9e932822"
                  },
                  {
                    "reference": "urn:uuid:ce216ac7-85aa-4fec-9735-a55ba9ff5abd"
                  },
                  {
                    "reference": "urn:uuid:cd852832-50e5-4b7f-95a3-285745e017b4"
                  },
                  {
                    "reference": "urn:uuid:833b75b0-bde2-457e-9ee7-fd59f9ca394b"
                  },
                  {
                    "reference": "urn:uuid:6aba1d04-b5d5-47ba-8fcc-3f46e433ed10"
                  },
                  {
                    "reference": "urn:uuid:3e05e866-7336-4635-9d7c-68bf318909ef"
                  },
                  {
                    "reference": "urn:uuid:0ff085e3-d55a-4a3a-ac38-c16bcf12eb9d"
                  },
                  {
                    "reference": "urn:uuid:382f3c2c-3e9d-4380-aeed-f593a0b3fda9"
                  },
                  {
                    "reference": "urn:uuid:96f246e0-febf-41d1-b661-f05c67ec7d89"
                  },
                  {
                    "reference": "urn:uuid:a365a095-8883-4640-92cc-297fe6efb3ad"
                  },
                  {
                    "reference": "urn:uuid:48c0f9ce-1f27-485e-9ca3-30320c9ac68c"
                  },
                  {
                    "reference": "urn:uuid:ed5d0eb2-83a1-49ea-b19b-490637893e06"
                  },
                  {
                    "reference": "urn:uuid:1c8d354a-22ef-4770-ae63-63e6ac810a39"
                  },
                  {
                    "reference": "urn:uuid:5a1c7066-55dc-448d-a531-73b8e9fa9198"
                  },
                  {
                    "reference": "urn:uuid:45b06fc5-b0b3-4877-aab9-46fbf666e706"
                  },
                  {
                    "reference": "urn:uuid:6deeffdf-0081-4f6d-b79b-4d7b92757b67"
                  },
                  {
                    "reference": "urn:uuid:7386fb29-3672-4108-896d-80e0a7192104"
                  },
                  {
                    "reference": "urn:uuid:699cb49d-c2ea-4e3b-b86c-abaa56161429"
                  }
                ],
                "text": {
                  "status": "generated",
                  "div": "<div xmlns=\"http://www.w3.org/1999/xhtml\"><h3>Chemistry</h3><table class=\"hl7__eu__lab__report\"><thead><tr><th>Test</th><th>23-SEP-2022</th><th>Reference&#xA0;Range</th><th>Unit</th></tr></thead><tbody><tr><td>Glucose [Mass/volume] in Serum or Plasma</td><td>72.1</td><td>70 - 140</td><td>mg/dL</td></tr><tr><td>Urea nitrogen [Mass/volume] in Serum or Plasma</td><td>14.1</td><td>7 - 20</td><td>mg/dL</td></tr><tr><td>Creatinine [Mass/volume] in Serum or Plasma</td><td><strong>2.1 H</strong></td><td>0.9 - 1.3</td><td>mg/dL</td></tr><tr><td>Calcium [Mass/volume] in Serum or Plasma</td><td>9.2</td><td>8.5 - 10.5</td><td>mg/dL</td></tr><tr><td>Sodium [Moles/volume] in Serum or Plasma</td><td>141.6</td><td>135 - 145</td><td>mmol/L</td></tr><tr><td>Potassium [Moles/volume] in Serum or Plasma</td><td>4.4</td><td>3.5 - 5.3</td><td>mmol/L</td></tr><tr><td>Chloride [Moles/volume] in Serum or Plasma</td><td>106.9</td><td>98 - 107</td><td>mmol/L</td></tr><tr><td>Carbon dioxide, total [Moles/volume] in Serum or Plasma</td><td>26.8</td><td>22 - 33</td><td>mmol/L</td></tr><tr><td>Ketones [Presence] in Urine by Test strip</td><td>Urine ketone test = ++</td><td></td><td></td></tr><tr><td>Hemoglobin A1c/Hemoglobin.total in Blood</td><td><strong>3.4 L</strong></td><td>4.3 - 6</td><td>%</td></tr><tr><td>Glucose [Mass/volume] in Blood</td><td>72.1</td><td>70 - 140</td><td>mg/dL</td></tr><tr><td>Urea nitrogen [Mass/volume] in Blood</td><td>14.1</td><td>7 - 20</td><td>mg/dL</td></tr><tr><td>Creatinine [Mass/volume] in Blood</td><td><strong>2.7 H</strong></td><td>0.9 - 1.3</td><td>mg/dL</td></tr><tr><td>Calcium [Mass/volume] in Blood</td><td>9.2</td><td>8.5 - 10.5</td><td>mg/dL</td></tr><tr><td>Sodium [Moles/volume] in Blood</td><td>141.6</td><td>135 - 145</td><td>mmol/L</td></tr><tr><td>Potassium [Moles/volume] in Blood</td><td>4.4</td><td>3.5 - 5.1</td><td>mmol/L</td></tr><tr><td>Chloride [Moles/volume] in Blood</td><td>106.9</td><td>98 - 108</td><td>mmol/L</td></tr><tr><td>Carbon dioxide, total [Moles/volume] in Blood</td><td>26.8</td><td>22 - 29</td><td>mmol/L</td></tr></tbody></table></div>"
                },
                "title": "Chemistry"
              },
              {
                "code": {
                  "coding": [
                    {
                      "code": "$18729-4",
                      "system": "http://loinc.org",
                      "display": "Urinalysis studies (set)"
                    }
                  ],
                  "text": "Urinalysis"
                },
                "entry": [
                  {
                    "reference": "urn:uuid:21a309f4-e296-4115-b7bc-3e717c9ff4c9"
                  },
                  {
                    "reference": "urn:uuid:15d8d3ad-9c21-449e-b063-774caff9d1ef"
                  },
                  {
                    "reference": "urn:uuid:c59f255f-9d7f-4e57-b6a6-7f93e7902b64"
                  },
                  {
                    "reference": "urn:uuid:6aa08f4b-46f6-4951-bf65-f3705f0ff7f8"
                  },
                  {
                    "reference": "urn:uuid:54721c60-6cee-4493-8384-a163b40f7178"
                  },
                  {
                    "reference": "urn:uuid:819d1265-9e62-4096-ab10-cce90de67f2e"
                  },
                  {
                    "reference": "urn:uuid:5499d415-aa3d-4d5c-91fd-a2049e78bc06"
                  },
                  {
                    "reference": "urn:uuid:62500932-ce5b-4dd9-b107-ae851f0aa6b6"
                  },
                  {
                    "reference": "urn:uuid:608f0f1d-11f5-4fa9-bfd1-034f021be3df"
                  },
                  {
                    "reference": "urn:uuid:1d5a1ad9-1b5d-4ecb-9ec6-2bd21aa48456"
                  },
                  {
                    "reference": "urn:uuid:4d96f439-82e5-44e9-b26c-503e990761c8"
                  },
                  {
                    "reference": "urn:uuid:f1fb3174-3111-4637-a700-da3da877d501"
                  }
                ],
                "text": {
                  "status": "generated",
                  "div": "<div xmlns=\"http://www.w3.org/1999/xhtml\"><h3>Urinalysis</h3><table class=\"hl7__eu__lab__report\"><thead><tr><th>Test</th><th>23-SEP-2022</th><th>Reference&#xA0;Range</th><th>Unit</th></tr></thead><tbody><tr><td>Glucose [Mass/volume] in Urine by Test strip</td><td><strong>1.8 H</strong></td><td>0 - 0.8</td><td>mg/dL</td></tr><tr><td>Glucose [Presence] in Urine by Test strip</td><td>++</td><td></td><td></td></tr><tr><td>Bilirubin.total [Mass/volume] in Urine by Test strip</td><td>1.5</td><td>0 - 1.9</td><td>mg/dL</td></tr><tr><td>Bilirubin.total [Presence] in Urine by Test strip</td><td>Finding of bilirubin in urine</td><td></td><td></td></tr><tr><td>Ketones [Mass/volume] in Urine by Test strip</td><td>1.3</td><td>0 - 3</td><td>mg/dL</td></tr><tr><td>Specific gravity of Urine by Test strip</td><td><strong>1.0 L</strong></td><td>1.01 - 1.03</td><td>{nominal}</td></tr><tr><td>pH of Urine by Test strip</td><td>6.3</td><td>4.5 - 7.5</td><td>pH</td></tr><tr><td>Protein [Mass/volume] in Urine by Test strip</td><td><strong>268.6 H</strong></td><td>0 - 149</td><td>mg/dL</td></tr><tr><td>Protein [Presence] in Urine by Test strip</td><td>Urine protein test = ++</td><td></td><td></td></tr><tr><td>Nitrite [Presence] in Urine by Test strip</td><td>Urine nitrite negative</td><td></td><td></td></tr><tr><td>Hemoglobin [Presence] in Urine by Test strip</td><td>Urine blood test = negative</td><td></td><td></td></tr><tr><td>Leukocyte esterase [Presence] in Urine by Test strip</td><td>Urine leukocyte test negative</td><td></td><td></td></tr></tbody></table></div>"
                },
                "title": "Urinalysis"
              },
              {
                "code": {
                  "coding": [
                    {
                      "code": "$LP7846-1",
                      "system": "http://loinc.org",
                      "display": "Specimen information"
                    }
                  ],
                  "text": "Specimen information"
                },
                "entry": [
                  {
                    "reference": "urn:uuid:86e5d87d-8a03-40db-924a-7b1a3b00cf0c"
                  },
                  {
                    "reference": "urn:uuid:71bedf06-1d8b-4a76-bff1-6602eeb60afc"
                  },
                  {
                    "reference": "urn:uuid:8d420034-066e-42bb-853a-9324bf3297c8"
                  },
                  {
                    "reference": "urn:uuid:415f1088-3889-40c7-a8dd-1e12ab5949bb"
                  }
                ],
                "text": {
                  "status": "generated",
                  "div": "<div xmlns=\"http://www.w3.org/1999/xhtml\"><h3>Specimen information</h3><table class=\"hl7__eu__lab__report\"><thead><tr><th>Test</th><th>23-SEP-2022</th><th>Specimen</th><th></th></tr></thead><tbody><tr><td>Appearance of Urine</td><td>Cloudy urine</td><td>Urine</td><td></td></tr><tr><td>Odor of Urine</td><td>Urine smell ammoniacal</td><td>Urine</td><td></td></tr><tr><td>Clarity of Urine</td><td>Translucent</td><td>Urine</td><td></td></tr><tr><td>Color of Urine</td><td>Brown color</td><td>Urine</td><td></td></tr></tbody></table></div>"
                },
                "title": "Specimen information"
              }
            ],
            "title": "Laboratory Report"
          },
          {
            "text": {
              "status": "generated",
              "div": "<div xmlns=\"http://www.w3.org/1999/xhtml\"><h3>Annotation</h3><table class=\"hl7__eu__lab__report\"><tr><th>Conclusion and Recommendations based on this report and previous findings known to us</th></tr><tr><td>The patient shows elevated creatinine, proteinuria, and glucosuria with low urine specific gravity, suggesting impaired renal function, possibly chronic kidney disease. Urine findings (cloudy, brown, ammoniacal odor) may indicate urinary tract pathology. Low HbA1c with glucosuria could reflect renal glycosuria or recent hypoglycemia. No evidence of infection (negative nitrite/leukocytes). Recommend nephrology evaluation and further assessment of renal and metabolic status.</td></tr></table></div>"
            },
            "code": {
              "coding": [
                {
                  "system": "http://loinc.org",
                  "code": "48767-8",
                  "display": "Annotation comment"
                }
              ]
            },
            "title": "Annotation comment"
          }
        ],
        "status": "final",
        "subject": {
          "reference": "urn:uuid:0c3e31b6-fcf3-4ac5-b582-4f076879069a",
          "display": "Victor Lagarde"
        },
        "date": "2022-09-23T06:48:18Z",
        "title": "Laboratory Report",
        "confidentiality": "N"
      }
    },
    {
      "fullUrl": "urn:uuid:c2be7a79-4223-4870-bd03-fe5011e7a5ad",
      "resource": {
        "resourceType": "DiagnosticReport",
        "id": "c2be7a79-4223-4870-bd03-fe5011e7a5ad",
        "meta": {
          "profile": [
            "http://hl7.eu/fhir/laboratory/StructureDefinition/DiagnosticReport-eu-lab"
          ]
        },
        "identifier": [
          {
            "assigner": {
              "display": "HL7 Europe"
            },
            "system": "urn:oid:2.16.840.1.113883.2.51.999",
            "value": "65dfae7d-ff0a-4903-90c6-31c35c8e94fc"
          }
        ],
        "extension": [
          {
            "url": "http://hl7.org/fhir/5.0/StructureDefinition/extension-DiagnosticReport.composition",
            "valueReference": {
              "reference": "urn:uuid:1d480253-7124-4b4a-8f37-4d418c13c14c"
            }
          }
        ],
        "category": [
          {
            "coding": [
              {
                "code": "26436-6",
                "system": "http://loinc.org",
                "display": "Laboratory studies (set)"
              }
            ]
          }
        ],
        "specimen": [
          {
            "reference": "urn:uuid:e4489b65-60f0-428a-af06-28db29320b43"
          },
          {
            "reference": "urn:uuid:52a9a433-84ca-4dc6-97a5-ca456aba32cc"
          },
          {
            "reference": "urn:uuid:c4c48568-81c9-4db1-8b9b-8d2fc407f49b"
          }
        ],
        "result": [
          {
            "reference": "urn:uuid:36cec41a-4d24-49ca-a762-d14e9e932822"
          },
          {
            "reference": "urn:uuid:ce216ac7-85aa-4fec-9735-a55ba9ff5abd"
          },
          {
            "reference": "urn:uuid:cd852832-50e5-4b7f-95a3-285745e017b4"
          },
          {
            "reference": "urn:uuid:833b75b0-bde2-457e-9ee7-fd59f9ca394b"
          },
          {
            "reference": "urn:uuid:6aba1d04-b5d5-47ba-8fcc-3f46e433ed10"
          },
          {
            "reference": "urn:uuid:3e05e866-7336-4635-9d7c-68bf318909ef"
          },
          {
            "reference": "urn:uuid:0ff085e3-d55a-4a3a-ac38-c16bcf12eb9d"
          },
          {
            "reference": "urn:uuid:382f3c2c-3e9d-4380-aeed-f593a0b3fda9"
          },
          {
            "reference": "urn:uuid:86e5d87d-8a03-40db-924a-7b1a3b00cf0c"
          },
          {
            "reference": "urn:uuid:71bedf06-1d8b-4a76-bff1-6602eeb60afc"
          },
          {
            "reference": "urn:uuid:8d420034-066e-42bb-853a-9324bf3297c8"
          },
          {
            "reference": "urn:uuid:415f1088-3889-40c7-a8dd-1e12ab5949bb"
          },
          {
            "reference": "urn:uuid:21a309f4-e296-4115-b7bc-3e717c9ff4c9"
          },
          {
            "reference": "urn:uuid:15d8d3ad-9c21-449e-b063-774caff9d1ef"
          },
          {
            "reference": "urn:uuid:c59f255f-9d7f-4e57-b6a6-7f93e7902b64"
          },
          {
            "reference": "urn:uuid:6aa08f4b-46f6-4951-bf65-f3705f0ff7f8"
          },
          {
            "reference": "urn:uuid:54721c60-6cee-4493-8384-a163b40f7178"
          },
          {
            "reference": "urn:uuid:96f246e0-febf-41d1-b661-f05c67ec7d89"
          },
          {
            "reference": "urn:uuid:819d1265-9e62-4096-ab10-cce90de67f2e"
          },
          {
            "reference": "urn:uuid:5499d415-aa3d-4d5c-91fd-a2049e78bc06"
          },
          {
            "reference": "urn:uuid:62500932-ce5b-4dd9-b107-ae851f0aa6b6"
          },
          {
            "reference": "urn:uuid:608f0f1d-11f5-4fa9-bfd1-034f021be3df"
          },
          {
            "reference": "urn:uuid:1d5a1ad9-1b5d-4ecb-9ec6-2bd21aa48456"
          },
          {
            "reference": "urn:uuid:4d96f439-82e5-44e9-b26c-503e990761c8"
          },
          {
            "reference": "urn:uuid:f1fb3174-3111-4637-a700-da3da877d501"
          },
          {
            "reference": "urn:uuid:a365a095-8883-4640-92cc-297fe6efb3ad"
          },
          {
            "reference": "urn:uuid:48c0f9ce-1f27-485e-9ca3-30320c9ac68c"
          },
          {
            "reference": "urn:uuid:ed5d0eb2-83a1-49ea-b19b-490637893e06"
          },
          {
            "reference": "urn:uuid:1c8d354a-22ef-4770-ae63-63e6ac810a39"
          },
          {
            "reference": "urn:uuid:5a1c7066-55dc-448d-a531-73b8e9fa9198"
          },
          {
            "reference": "urn:uuid:45b06fc5-b0b3-4877-aab9-46fbf666e706"
          },
          {
            "reference": "urn:uuid:6deeffdf-0081-4f6d-b79b-4d7b92757b67"
          },
          {
            "reference": "urn:uuid:7386fb29-3672-4108-896d-80e0a7192104"
          },
          {
            "reference": "urn:uuid:699cb49d-c2ea-4e3b-b86c-abaa56161429"
          }
        ],
        "status": "registered",
        "code": {
          "coding": [
            {
              "code": "11502-2",
              "system": "http://loinc.org",
              "display": "Laboratory report"
            }
          ]
        },
        "subject": {
          "reference": "urn:uuid:0c3e31b6-fcf3-4ac5-b582-4f076879069a",
          "display": "Victor Lagarde"
        }
      }
    },
    {
      "fullUrl": "urn:uuid:0c3e31b6-fcf3-4ac5-b582-4f076879069a",
      "resource": {
        "resourceType": "Patient",
        "id": "0c3e31b6-fcf3-4ac5-b582-4f076879069a",
        "meta": {
          "security": [
            {
              "system": "http://terminology.hl7.org/CodeSystem/v3-ActReason",
              "code": "HTEST"
            },
            {
              "system": "http://terminology.hl7.org/CodeSystem/v3-ActReason",
              "code": "TRAIN"
            }
          ],
          "tag": [
            {
              "system": "https://synderai.net/fhir/CodeSystem/tags",
              "code": "synthetic",
              "display": "SYNDERAI Synthetic data"
            }
          ],
          "profile": [
            "http://hl7.eu/fhir/base/StructureDefinition/patient-eu-core"
          ]
        },
        "identifier": [
          {
            "type": {
              "coding": [
                {
                  "code": "PT",
                  "system": "http://terminology.hl7.org/CodeSystem/v2-0203"
                }
              ]
            },
            "system": "http://ec.europa.eu/identifier/eci",
            "value": "9925-001801-9"
          },
          {
            "type": {
              "coding": [
                {
                  "code": "MR",
                  "system": "http://terminology.hl7.org/CodeSystem/v2-0203"
                }
              ]
            },
            "system": "http://local.setting.eu/identifier",
            "value": "22c2dfd0-ac57-8833-2532-848f180896a4"
          }
        ],
        "name": [
          {
            "family": "Lagarde"
          },
          {
            "given": [
              "Victor"
            ]
          },
          {
            "text": "Victor Lagarde"
          }
        ],
        "address": [
          {
            "line": [
              "avenue Robert"
            ],
            "use": "home",
            "type": "physical",
            "postalCode": "80300",
            "city": "Albert",
            "country": "France"
          }
        ],
        "telecom": [
          {
            "system": "phone",
            "value": "0177941801"
          }
        ],
        "extension": [
          {
            "url": "http://hl7.org/fhir/StructureDefinition/patient-nationality",
            "valueCodeableConcept": {
              "coding": [
                {
                  "code": "FR",
                  "system": "http://hl7.org/fhir/ValueSet/country"
                }
              ]
            }
          }
        ],
        "text": {
          "status": "generated",
          "div": "<div xmlns=\"http://www.w3.org/1999/xhtml\"><table class=\"hl7__ips\"><tr><td>Victor Lagarde</td><td>male</td><td>31-Aug-1939</td></tr></table></div>"
        },
        "gender": "male",
        "birthDate": "1939-08-31"
      }
    },
    {
      "fullUrl": "urn:uuid:0538cc3d-ee0b-416f-9b09-1a50fc0b4a7c",
      "resource": {
        "resourceType": "ServiceRequest",
        "id": "0538cc3d-ee0b-416f-9b09-1a50fc0b4a7c",
        "meta": {
          "profile": [
            "http://hl7.eu/fhir/laboratory/StructureDefinition/ServiceRequest-eu-lab"
          ]
        },
        "identifier": [
          {
            "system": "http://example.org",
            "value": "cfbf4575-ab0f-4562-887d-14b4677b58ee"
          }
        ],
        "specimen": [
          {
            "reference": "urn:uuid:e4489b65-60f0-428a-af06-28db29320b43"
          },
          {
            "reference": "urn:uuid:52a9a433-84ca-4dc6-97a5-ca456aba32cc"
          },
          {
            "reference": "urn:uuid:c4c48568-81c9-4db1-8b9b-8d2fc407f49b"
          }
        ],
        "reasonCode": [
          {
            "coding": [
              {
                "code": "433144002",
                "system": "http://snomed.info/sct",
                "display": "Chronic kidney disease stage 3"
              }
            ]
          },
          {
            "coding": [
              {
                "code": "157141000119108",
                "system": "http://snomed.info/sct",
                "display": "Proteinuria due to type 2 diabetes mellitus"
              }
            ]
          },
          {
            "coding": [
              {
                "code": "431856006",
                "system": "http://snomed.info/sct",
                "display": "Chronic kidney disease stage 2"
              }
            ]
          },
          {
            "coding": [
              {
                "code": "90781000119102",
                "system": "http://snomed.info/sct",
                "display": "Microalbuminuria due to type 2 diabetes mellitus"
              }
            ]
          },
          {
            "coding": [
              {
                "code": "127013003",
                "system": "http://snomed.info/sct",
                "display": "Disorder of kidney due to diabetes mellitus"
              }
            ]
          },
          {
            "coding": [
              {
                "code": "431855005",
                "system": "http://snomed.info/sct",
                "display": "Chronic kidney disease stage 1"
              }
            ]
          },
          {
            "coding": [
              {
                "code": "55822004",
                "system": "http://snomed.info/sct",
                "display": "Hyperlipidemia"
              }
            ]
          },
          {
            "coding": [
              {
                "code": "59621000",
                "system": "http://snomed.info/sct",
                "display": "Essential hypertension"
              }
            ]
          },
          {
            "coding": [
              {
                "code": "237602007",
                "system": "http://snomed.info/sct",
                "display": "Metabolic syndrome X"
              }
            ]
          },
          {
            "coding": [
              {
                "code": "414545008",
                "system": "http://snomed.info/sct",
                "display": "Ischemic heart disease"
              }
            ]
          },
          {
            "coding": [
              {
                "code": "40055000",
                "system": "http://snomed.info/sct",
                "display": "Chronic sinusitis"
              }
            ]
          },
          {
            "coding": [
              {
                "code": "15777000",
                "system": "http://snomed.info/sct",
                "display": "Prediabetes"
              }
            ]
          },
          {
            "coding": [
              {
                "code": "271737000",
                "system": "http://snomed.info/sct",
                "display": "Anemia"
              }
            ]
          }
        ],
        "status": "active",
        "intent": "order",
        "code": {
          "coding": [
            {
              "code": "108252007",
              "system": "http://snomed.info/sct",
              "display": "Laboratory procedure"
            }
          ]
        },
        "subject": {
          "reference": "urn:uuid:0c3e31b6-fcf3-4ac5-b582-4f076879069a",
          "display": "Victor Lagarde"
        },
        "requester": {
          "reference": "urn:uuid:16347cae-feb9-4f7e-b4f1-cd47f69a50be"
        }
      }
    },
    {
      "fullUrl": "urn:uuid:16347cae-feb9-4f7e-b4f1-cd47f69a50be",
      "resource": {
        "resourceType": "PractitionerRole",
        "id": "16347cae-feb9-4f7e-b4f1-cd47f69a50be",
        "meta": {
          "profile": [
            "http://hl7.eu/fhir/base/StructureDefinition/practitionerRole-eu"
          ]
        },
        "text": {
          "status": "generated",
          "div": "<div xmlns=\"http://www.w3.org/1999/xhtml\">Provider Role Id: 16347cae-feb9-4f7e-b4f1-cd47f69a50be</div>"
        },
        "organization": {
          "reference": "urn:uuid:21017081-7437-4acf-8774-3675ac1800df"
        }
      }
    },
    {
      "fullUrl": "urn:uuid:21017081-7437-4acf-8774-3675ac1800df",
      "resource": {
        "resourceType": "Organization",
        "id": "21017081-7437-4acf-8774-3675ac1800df",
        "meta": {
          "profile": [
            "http://hl7.eu/fhir/base/StructureDefinition/organization-eu"
          ]
        },
        "identifier": [
          {
            "assigner": {
              "display": "HL7 Europe"
            },
            "system": "urn:oid:2.16.840.1.113883.2.51.999",
            "value": "48deb7db-af28-455e-9e11-dcc2a6d2eaba"
          }
        ],
        "address": [
          {
            "city": "Auxerre",
            "postalCode": "89000",
            "country": "France"
          }
        ],
        "text": {
          "status": "generated",
          "div": "<div xmlns=\"http://www.w3.org/1999/xhtml\">Provider Organization: Thiriot Didier (Cardiologie)</div>"
        },
        "name": "Thiriot Didier (Cardiologie)"
      }
    },
    {
      "fullUrl": "urn:uuid:e4489b65-60f0-428a-af06-28db29320b43",
      "resource": {
        "resourceType": "Specimen",
        "id": "e4489b65-60f0-428a-af06-28db29320b43",
        "meta": {
          "profile": [
            "http://hl7.eu/fhir/laboratory/StructureDefinition/Specimen-eu-lab"
          ]
        },
        "collection": {
          "collectedDateTime": "2022-09-23"
        },
        "text": {
          "status": "generated",
          "div": "<div xmlns=\"http://www.w3.org/1999/xhtml\"><table class=\"hl7__eu__lab__report\"><tr><th>Specimen</th><th>Collection Date</th></tr><tr><td>Acellular blood (serum or plasma) specimen</td><td><span class=\"nb\">23-Sep-2022</span></td></tr></table></div>"
        },
        "type": {
          "coding": [
            {
              "code": "122592007",
              "system": "http://snomed.info/sct",
              "display": "Acellular blood (serum or plasma) specimen"
            }
          ]
        }
      }
    },
    {
      "fullUrl": "urn:uuid:52a9a433-84ca-4dc6-97a5-ca456aba32cc",
      "resource": {
        "resourceType": "Specimen",
        "id": "52a9a433-84ca-4dc6-97a5-ca456aba32cc",
        "meta": {
          "profile": [
            "http://hl7.eu/fhir/laboratory/StructureDefinition/Specimen-eu-lab"
          ]
        },
        "collection": {
          "collectedDateTime": "2022-09-23"
        },
        "text": {
          "status": "generated",
          "div": "<div xmlns=\"http://www.w3.org/1999/xhtml\"><table class=\"hl7__eu__lab__report\"><tr><th>Specimen</th><th>Collection Date</th></tr><tr><td>Urine specimen</td><td><span class=\"nb\">23-Sep-2022</span></td></tr></table></div>"
        },
        "type": {
          "coding": [
            {
              "code": "122575003",
              "system": "http://snomed.info/sct",
              "display": "Urine specimen"
            }
          ]
        }
      }
    },
    {
      "fullUrl": "urn:uuid:c4c48568-81c9-4db1-8b9b-8d2fc407f49b",
      "resource": {
        "resourceType": "Specimen",
        "id": "c4c48568-81c9-4db1-8b9b-8d2fc407f49b",
        "meta": {
          "profile": [
            "http://hl7.eu/fhir/laboratory/StructureDefinition/Specimen-eu-lab"
          ]
        },
        "collection": {
          "collectedDateTime": "2022-09-23"
        },
        "text": {
          "status": "generated",
          "div": "<div xmlns=\"http://www.w3.org/1999/xhtml\"><table class=\"hl7__eu__lab__report\"><tr><th>Specimen</th><th>Collection Date</th></tr><tr><td>Whole blood specimen (specimen)</td><td><span class=\"nb\">23-Sep-2022</span></td></tr></table></div>"
        },
        "type": {
          "coding": [
            {
              "code": "258580003",
              "system": "http://snomed.info/sct",
              "display": "Whole blood specimen (specimen)"
            }
          ]
        }
      }
    },
    {
      "fullUrl": "urn:uuid:36cec41a-4d24-49ca-a762-d14e9e932822",
      "resource": {
        "resourceType": "Observation",
        "id": "36cec41a-4d24-49ca-a762-d14e9e932822",
        "meta": {
          "profile": [
            "http://hl7.eu/fhir/laboratory/StructureDefinition/Observation-resultslab-eu-lab"
          ]
        },
        "performer": [
          {
            "display": "The Central European Lab"
          }
        ],
        "category": [
          {
            "coding": [
              {
                "system": "http://terminology.hl7.org/CodeSystem/observation-category",
                "code": "laboratory"
              }
            ]
          }
        ],
        "code": {
          "coding": [
            {
              "code": "2345-7",
              "system": "http://loinc.org",
              "display": "Glucose [Mass/volume] in Serum or Plasma"
            }
          ],
          "text": "Glucose [Mass/volume] in Serum or Plasma"
        },
        "valueQuantity": {
          "system": "http://unitsofmeasure.org",
          "value": 72.1,
          "unit": "mg/dL",
          "code": "mg/dL"
        },
        "referenceRange": [
          {
            "low": {
              "value": 70,
              "code": "mg/dL",
              "system": "http://unitsofmeasure.org"
            }
          },
          {
            "high": {
              "value": 140,
              "code": "mg/dL",
              "system": "http://unitsofmeasure.org"
            }
          }
        ],
        "text": {
          "status": "generated",
          "div": "<div xmlns=\"http://www.w3.org/1999/xhtml\"><table class=\"hl7__eu__lab__report\"><tr><th>Test</th><th>23-Sep-2022</th><th>Reference&#xA0;Range</th><th>Unit</th></tr><tr><td>Glucose [Mass/volume] in Serum or Plasma</td><td>72.1</td><td>70 - 140</td><td></td><td>mg/dL</td></tr></table></div>"
        },
        "status": "final",
        "subject": {
          "reference": "urn:uuid:0c3e31b6-fcf3-4ac5-b582-4f076879069a",
          "display": "Victor Lagarde"
        },
        "effectiveDateTime": "2022-09-23T04:48:18Z",
        "specimen": {
          "reference": "urn:uuid:e4489b65-60f0-428a-af06-28db29320b43"
        }
      }
    },
    {
      "fullUrl": "urn:uuid:ce216ac7-85aa-4fec-9735-a55ba9ff5abd",
      "resource": {
        "resourceType": "Observation",
        "id": "ce216ac7-85aa-4fec-9735-a55ba9ff5abd",
        "meta": {
          "profile": [
            "http://hl7.eu/fhir/laboratory/StructureDefinition/Observation-resultslab-eu-lab"
          ]
        },
        "performer": [
          {
            "display": "The Central European Lab"
          }
        ],
        "category": [
          {
            "coding": [
              {
                "system": "http://terminology.hl7.org/CodeSystem/observation-category",
                "code": "laboratory"
              }
            ]
          }
        ],
        "code": {
          "coding": [
            {
              "code": "3094-0",
              "system": "http://loinc.org",
              "display": "Urea nitrogen [Mass/volume] in Serum or Plasma"
            }
          ],
          "text": "Urea nitrogen [Mass/volume] in Serum or Plasma"
        },
        "valueQuantity": {
          "system": "http://unitsofmeasure.org",
          "value": 14.1,
          "unit": "mg/dL",
          "code": "mg/dL"
        },
        "referenceRange": [
          {
            "low": {
              "value": 7,
              "code": "mg/dL",
              "system": "http://unitsofmeasure.org"
            }
          },
          {
            "high": {
              "value": 20,
              "code": "mg/dL",
              "system": "http://unitsofmeasure.org"
            }
          }
        ],
        "text": {
          "status": "generated",
          "div": "<div xmlns=\"http://www.w3.org/1999/xhtml\"><table class=\"hl7__eu__lab__report\"><tr><th>Test</th><th>23-Sep-2022</th><th>Reference&#xA0;Range</th><th>Unit</th></tr><tr><td>Urea nitrogen [Mass/volume] in Serum or Plasma</td><td>14.1</td><td>7 - 20</td><td></td><td>mg/dL</td></tr></table></div>"
        },
        "status": "final",
        "subject": {
          "reference": "urn:uuid:0c3e31b6-fcf3-4ac5-b582-4f076879069a",
          "display": "Victor Lagarde"
        },
        "effectiveDateTime": "2022-09-23T04:48:18Z",
        "specimen": {
          "reference": "urn:uuid:e4489b65-60f0-428a-af06-28db29320b43"
        }
      }
    },
    {
      "fullUrl": "urn:uuid:cd852832-50e5-4b7f-95a3-285745e017b4",
      "resource": {
        "resourceType": "Observation",
        "id": "cd852832-50e5-4b7f-95a3-285745e017b4",
        "meta": {
          "profile": [
            "http://hl7.eu/fhir/laboratory/StructureDefinition/Observation-resultslab-eu-lab"
          ]
        },
        "performer": [
          {
            "display": "The Central European Lab"
          }
        ],
        "category": [
          {
            "coding": [
              {
                "system": "http://terminology.hl7.org/CodeSystem/observation-category",
                "code": "laboratory"
              }
            ]
          }
        ],
        "code": {
          "coding": [
            {
              "code": "2160-0",
              "system": "http://loinc.org",
              "display": "Creatinine [Mass/volume] in Serum or Plasma"
            }
          ],
          "text": "Creatinine [Mass/volume] in Serum or Plasma"
        },
        "valueQuantity": {
          "system": "http://unitsofmeasure.org",
          "value": 2.1,
          "unit": "mg/dL",
          "code": "mg/dL"
        },
        "referenceRange": [
          {
            "low": {
              "value": 0.9,
              "code": "mg/dL",
              "system": "http://unitsofmeasure.org"
            }
          },
          {
            "high": {
              "value": 1.3,
              "code": "mg/dL",
              "system": "http://unitsofmeasure.org"
            }
          }
        ],
        "interpretation": [
          {
            "coding": [
              {
                "code": "H",
                "system": "http://terminology.hl7.org/CodeSystem/v3-ObservationInterpretation",
                "display": "High"
              }
            ]
          }
        ],
        "text": {
          "status": "generated",
          "div": "<div xmlns=\"http://www.w3.org/1999/xhtml\"><table class=\"hl7__eu__lab__report\"><tr><th>Test</th><th>23-Sep-2022</th><th>Reference&#xA0;Range</th><th>Unit</th></tr><tr><td>Creatinine [Mass/volume] in Serum or Plasma</td><td>2.1</td><td>0.9 - 1.3</td><td>H</td><td>mg/dL</td></tr></table></div>"
        },
        "status": "final",
        "subject": {
          "reference": "urn:uuid:0c3e31b6-fcf3-4ac5-b582-4f076879069a",
          "display": "Victor Lagarde"
        },
        "effectiveDateTime": "2022-09-23T04:48:18Z",
        "specimen": {
          "reference": "urn:uuid:e4489b65-60f0-428a-af06-28db29320b43"
        }
      }
    },
    {
      "fullUrl": "urn:uuid:833b75b0-bde2-457e-9ee7-fd59f9ca394b",
      "resource": {
        "resourceType": "Observation",
        "id": "833b75b0-bde2-457e-9ee7-fd59f9ca394b",
        "meta": {
          "profile": [
            "http://hl7.eu/fhir/laboratory/StructureDefinition/Observation-resultslab-eu-lab"
          ]
        },
        "performer": [
          {
            "display": "The Central European Lab"
          }
        ],
        "category": [
          {
            "coding": [
              {
                "system": "http://terminology.hl7.org/CodeSystem/observation-category",
                "code": "laboratory"
              }
            ]
          }
        ],
        "code": {
          "coding": [
            {
              "code": "17861-6",
              "system": "http://loinc.org",
              "display": "Calcium [Mass/volume] in Serum or Plasma"
            }
          ],
          "text": "Calcium [Mass/volume] in Serum or Plasma"
        },
        "valueQuantity": {
          "system": "http://unitsofmeasure.org",
          "value": 9.2,
          "unit": "mg/dL",
          "code": "mg/dL"
        },
        "referenceRange": [
          {
            "low": {
              "value": 8.5,
              "code": "mg/dL",
              "system": "http://unitsofmeasure.org"
            }
          },
          {
            "high": {
              "value": 10.5,
              "code": "mg/dL",
              "system": "http://unitsofmeasure.org"
            }
          }
        ],
        "text": {
          "status": "generated",
          "div": "<div xmlns=\"http://www.w3.org/1999/xhtml\"><table class=\"hl7__eu__lab__report\"><tr><th>Test</th><th>23-Sep-2022</th><th>Reference&#xA0;Range</th><th>Unit</th></tr><tr><td>Calcium [Mass/volume] in Serum or Plasma</td><td>9.2</td><td>8.5 - 10.5</td><td></td><td>mg/dL</td></tr></table></div>"
        },
        "status": "final",
        "subject": {
          "reference": "urn:uuid:0c3e31b6-fcf3-4ac5-b582-4f076879069a",
          "display": "Victor Lagarde"
        },
        "effectiveDateTime": "2022-09-23T04:48:18Z",
        "specimen": {
          "reference": "urn:uuid:e4489b65-60f0-428a-af06-28db29320b43"
        }
      }
    },
    {
      "fullUrl": "urn:uuid:6aba1d04-b5d5-47ba-8fcc-3f46e433ed10",
      "resource": {
        "resourceType": "Observation",
        "id": "6aba1d04-b5d5-47ba-8fcc-3f46e433ed10",
        "meta": {
          "profile": [
            "http://hl7.eu/fhir/laboratory/StructureDefinition/Observation-resultslab-eu-lab"
          ]
        },
        "performer": [
          {
            "display": "The Central European Lab"
          }
        ],
        "category": [
          {
            "coding": [
              {
                "system": "http://terminology.hl7.org/CodeSystem/observation-category",
                "code": "laboratory"
              }
            ]
          }
        ],
        "code": {
          "coding": [
            {
              "code": "2951-2",
              "system": "http://loinc.org",
              "display": "Sodium [Moles/volume] in Serum or Plasma"
            }
          ],
          "text": "Sodium [Moles/volume] in Serum or Plasma"
        },
        "valueQuantity": {
          "system": "http://unitsofmeasure.org",
          "value": 141.6,
          "unit": "mmol/L",
          "code": "mmol/L"
        },
        "referenceRange": [
          {
            "low": {
              "value": 135,
              "code": "mmol/L",
              "system": "http://unitsofmeasure.org"
            }
          },
          {
            "high": {
              "value": 145,
              "code": "mmol/L",
              "system": "http://unitsofmeasure.org"
            }
          }
        ],
        "text": {
          "status": "generated",
          "div": "<div xmlns=\"http://www.w3.org/1999/xhtml\"><table class=\"hl7__eu__lab__report\"><tr><th>Test</th><th>23-Sep-2022</th><th>Reference&#xA0;Range</th><th>Unit</th></tr><tr><td>Sodium [Moles/volume] in Serum or Plasma</td><td>141.6</td><td>135 - 145</td><td></td><td>mmol/L</td></tr></table></div>"
        },
        "status": "final",
        "subject": {
          "reference": "urn:uuid:0c3e31b6-fcf3-4ac5-b582-4f076879069a",
          "display": "Victor Lagarde"
        },
        "effectiveDateTime": "2022-09-23T04:48:18Z",
        "specimen": {
          "reference": "urn:uuid:e4489b65-60f0-428a-af06-28db29320b43"
        }
      }
    },
    {
      "fullUrl": "urn:uuid:3e05e866-7336-4635-9d7c-68bf318909ef",
      "resource": {
        "resourceType": "Observation",
        "id": "3e05e866-7336-4635-9d7c-68bf318909ef",
        "meta": {
          "profile": [
            "http://hl7.eu/fhir/laboratory/StructureDefinition/Observation-resultslab-eu-lab"
          ]
        },
        "performer": [
          {
            "display": "The Central European Lab"
          }
        ],
        "category": [
          {
            "coding": [
              {
                "system": "http://terminology.hl7.org/CodeSystem/observation-category",
                "code": "laboratory"
              }
            ]
          }
        ],
        "code": {
          "coding": [
            {
              "code": "2823-3",
              "system": "http://loinc.org",
              "display": "Potassium [Moles/volume] in Serum or Plasma"
            }
          ],
          "text": "Potassium [Moles/volume] in Serum or Plasma"
        },
        "valueQuantity": {
          "system": "http://unitsofmeasure.org",
          "value": 4.4,
          "unit": "mmol/L",
          "code": "mmol/L"
        },
        "referenceRange": [
          {
            "low": {
              "value": 3.5,
              "code": "mmol/L",
              "system": "http://unitsofmeasure.org"
            }
          },
          {
            "high": {
              "value": 5.3,
              "code": "mmol/L",
              "system": "http://unitsofmeasure.org"
            }
          }
        ],
        "text": {
          "status": "generated",
          "div": "<div xmlns=\"http://www.w3.org/1999/xhtml\"><table class=\"hl7__eu__lab__report\"><tr><th>Test</th><th>23-Sep-2022</th><th>Reference&#xA0;Range</th><th>Unit</th></tr><tr><td>Potassium [Moles/volume] in Serum or Plasma</td><td>4.4</td><td>3.5 - 5.3</td><td></td><td>mmol/L</td></tr></table></div>"
        },
        "status": "final",
        "subject": {
          "reference": "urn:uuid:0c3e31b6-fcf3-4ac5-b582-4f076879069a",
          "display": "Victor Lagarde"
        },
        "effectiveDateTime": "2022-09-23T04:48:18Z",
        "specimen": {
          "reference": "urn:uuid:e4489b65-60f0-428a-af06-28db29320b43"
        }
      }
    },
    {
      "fullUrl": "urn:uuid:0ff085e3-d55a-4a3a-ac38-c16bcf12eb9d",
      "resource": {
        "resourceType": "Observation",
        "id": "0ff085e3-d55a-4a3a-ac38-c16bcf12eb9d",
        "meta": {
          "profile": [
            "http://hl7.eu/fhir/laboratory/StructureDefinition/Observation-resultslab-eu-lab"
          ]
        },
        "performer": [
          {
            "display": "The Central European Lab"
          }
        ],
        "category": [
          {
            "coding": [
              {
                "system": "http://terminology.hl7.org/CodeSystem/observation-category",
                "code": "laboratory"
              }
            ]
          }
        ],
        "code": {
          "coding": [
            {
              "code": "2075-0",
              "system": "http://loinc.org",
              "display": "Chloride [Moles/volume] in Serum or Plasma"
            }
          ],
          "text": "Chloride [Moles/volume] in Serum or Plasma"
        },
        "valueQuantity": {
          "system": "http://unitsofmeasure.org",
          "value": 106.9,
          "unit": "mmol/L",
          "code": "mmol/L"
        },
        "referenceRange": [
          {
            "low": {
              "value": 98,
              "code": "mmol/L",
              "system": "http://unitsofmeasure.org"
            }
          },
          {
            "high": {
              "value": 107,
              "code": "mmol/L",
              "system": "http://unitsofmeasure.org"
            }
          }
        ],
        "text": {
          "status": "generated",
          "div": "<div xmlns=\"http://www.w3.org/1999/xhtml\"><table class=\"hl7__eu__lab__report\"><tr><th>Test</th><th>23-Sep-2022</th><th>Reference&#xA0;Range</th><th>Unit</th></tr><tr><td>Chloride [Moles/volume] in Serum or Plasma</td><td>106.9</td><td>98 - 107</td><td></td><td>mmol/L</td></tr></table></div>"
        },
        "status": "final",
        "subject": {
          "reference": "urn:uuid:0c3e31b6-fcf3-4ac5-b582-4f076879069a",
          "display": "Victor Lagarde"
        },
        "effectiveDateTime": "2022-09-23T04:48:18Z",
        "specimen": {
          "reference": "urn:uuid:e4489b65-60f0-428a-af06-28db29320b43"
        }
      }
    },
    {
      "fullUrl": "urn:uuid:382f3c2c-3e9d-4380-aeed-f593a0b3fda9",
      "resource": {
        "resourceType": "Observation",
        "id": "382f3c2c-3e9d-4380-aeed-f593a0b3fda9",
        "meta": {
          "profile": [
            "http://hl7.eu/fhir/laboratory/StructureDefinition/Observation-resultslab-eu-lab"
          ]
        },
        "performer": [
          {
            "display": "The Central European Lab"
          }
        ],
        "category": [
          {
            "coding": [
              {
                "system": "http://terminology.hl7.org/CodeSystem/observation-category",
                "code": "laboratory"
              }
            ]
          }
        ],
        "code": {
          "coding": [
            {
              "code": "2028-9",
              "system": "http://loinc.org",
              "display": "Carbon dioxide, total [Moles/volume] in Serum or Plasma"
            }
          ],
          "text": "Carbon dioxide, total [Moles/volume] in Serum or Plasma"
        },
        "valueQuantity": {
          "system": "http://unitsofmeasure.org",
          "value": 26.8,
          "unit": "mmol/L",
          "code": "mmol/L"
        },
        "referenceRange": [
          {
            "low": {
              "value": 22,
              "code": "mmol/L",
              "system": "http://unitsofmeasure.org"
            }
          },
          {
            "high": {
              "value": 33,
              "code": "mmol/L",
              "system": "http://unitsofmeasure.org"
            }
          }
        ],
        "text": {
          "status": "generated",
          "div": "<div xmlns=\"http://www.w3.org/1999/xhtml\"><table class=\"hl7__eu__lab__report\"><tr><th>Test</th><th>23-Sep-2022</th><th>Reference&#xA0;Range</th><th>Unit</th></tr><tr><td>Carbon dioxide, total [Moles/volume] in Serum or Plasma</td><td>26.8</td><td>22 - 33</td><td></td><td>mmol/L</td></tr></table></div>"
        },
        "status": "final",
        "subject": {
          "reference": "urn:uuid:0c3e31b6-fcf3-4ac5-b582-4f076879069a",
          "display": "Victor Lagarde"
        },
        "effectiveDateTime": "2022-09-23T04:48:18Z",
        "specimen": {
          "reference": "urn:uuid:e4489b65-60f0-428a-af06-28db29320b43"
        }
      }
    },
    {
      "fullUrl": "urn:uuid:86e5d87d-8a03-40db-924a-7b1a3b00cf0c",
      "resource": {
        "resourceType": "Observation",
        "id": "86e5d87d-8a03-40db-924a-7b1a3b00cf0c",
        "meta": {
          "profile": [
            "http://hl7.eu/fhir/laboratory/StructureDefinition/Observation-resultslab-eu-lab"
          ]
        },
        "performer": [
          {
            "display": "The Central European Lab"
          }
        ],
        "category": [
          {
            "coding": [
              {
                "system": "http://terminology.hl7.org/CodeSystem/observation-category",
                "code": "laboratory"
              }
            ]
          }
        ],
        "code": {
          "coding": [
            {
              "code": "5767-9",
              "system": "http://loinc.org",
              "display": "Appearance of Urine"
            }
          ],
          "text": "Appearance of Urine"
        },
        "text": {
          "status": "generated",
          "div": "<div xmlns=\"http://www.w3.org/1999/xhtml\"><table class=\"hl7__eu__lab__report\"><tr><th>Test</th><th>23-Sep-2022</th><th>Reference&#xA0;Range</th><th>Unit</th></tr><tr><td>Appearance of Urine</td></tr></table></div>"
        },
        "status": "final",
        "subject": {
          "reference": "urn:uuid:0c3e31b6-fcf3-4ac5-b582-4f076879069a",
          "display": "Victor Lagarde"
        },
        "effectiveDateTime": "2022-09-23T04:48:18Z",
        "specimen": {
          "reference": "urn:uuid:52a9a433-84ca-4dc6-97a5-ca456aba32cc"
        }
      }
    },
    {
      "fullUrl": "urn:uuid:71bedf06-1d8b-4a76-bff1-6602eeb60afc",
      "resource": {
        "resourceType": "Observation",
        "id": "71bedf06-1d8b-4a76-bff1-6602eeb60afc",
        "meta": {
          "profile": [
            "http://hl7.eu/fhir/laboratory/StructureDefinition/Observation-resultslab-eu-lab"
          ]
        },
        "performer": [
          {
            "display": "The Central European Lab"
          }
        ],
        "category": [
          {
            "coding": [
              {
                "system": "http://terminology.hl7.org/CodeSystem/observation-category",
                "code": "laboratory"
              }
            ]
          }
        ],
        "code": {
          "coding": [
            {
              "code": "34533-0",
              "system": "http://loinc.org",
              "display": "Odor of Urine"
            }
          ],
          "text": "Odor of Urine"
        },
        "text": {
          "status": "generated",
          "div": "<div xmlns=\"http://www.w3.org/1999/xhtml\"><table class=\"hl7__eu__lab__report\"><tr><th>Test</th><th>23-Sep-2022</th><th>Reference&#xA0;Range</th><th>Unit</th></tr><tr><td>Odor of Urine</td></tr></table></div>"
        },
        "status": "final",
        "subject": {
          "reference": "urn:uuid:0c3e31b6-fcf3-4ac5-b582-4f076879069a",
          "display": "Victor Lagarde"
        },
        "effectiveDateTime": "2022-09-23T04:48:18Z",
        "specimen": {
          "reference": "urn:uuid:52a9a433-84ca-4dc6-97a5-ca456aba32cc"
        }
      }
    },
    {
      "fullUrl": "urn:uuid:8d420034-066e-42bb-853a-9324bf3297c8",
      "resource": {
        "resourceType": "Observation",
        "id": "8d420034-066e-42bb-853a-9324bf3297c8",
        "meta": {
          "profile": [
            "http://hl7.eu/fhir/laboratory/StructureDefinition/Observation-resultslab-eu-lab"
          ]
        },
        "performer": [
          {
            "display": "The Central European Lab"
          }
        ],
        "category": [
          {
            "coding": [
              {
                "system": "http://terminology.hl7.org/CodeSystem/observation-category",
                "code": "laboratory"
              }
            ]
          }
        ],
        "code": {
          "coding": [
            {
              "code": "32167-9",
              "system": "http://loinc.org",
              "display": "Clarity of Urine"
            }
          ],
          "text": "Clarity of Urine"
        },
        "text": {
          "status": "generated",
          "div": "<div xmlns=\"http://www.w3.org/1999/xhtml\"><table class=\"hl7__eu__lab__report\"><tr><th>Test</th><th>23-Sep-2022</th><th>Reference&#xA0;Range</th><th>Unit</th></tr><tr><td>Clarity of Urine</td></tr></table></div>"
        },
        "status": "final",
        "subject": {
          "reference": "urn:uuid:0c3e31b6-fcf3-4ac5-b582-4f076879069a",
          "display": "Victor Lagarde"
        },
        "effectiveDateTime": "2022-09-23T04:48:18Z",
        "specimen": {
          "reference": "urn:uuid:52a9a433-84ca-4dc6-97a5-ca456aba32cc"
        }
      }
    },
    {
      "fullUrl": "urn:uuid:415f1088-3889-40c7-a8dd-1e12ab5949bb",
      "resource": {
        "resourceType": "Observation",
        "id": "415f1088-3889-40c7-a8dd-1e12ab5949bb",
        "meta": {
          "profile": [
            "http://hl7.eu/fhir/laboratory/StructureDefinition/Observation-resultslab-eu-lab"
          ]
        },
        "performer": [
          {
            "display": "The Central European Lab"
          }
        ],
        "category": [
          {
            "coding": [
              {
                "system": "http://terminology.hl7.org/CodeSystem/observation-category",
                "code": "laboratory"
              }
            ]
          }
        ],
        "code": {
          "coding": [
            {
              "code": "5778-6",
              "system": "http://loinc.org",
              "display": "Color of Urine"
            }
          ],
          "text": "Color of Urine"
        },
        "text": {
          "status": "generated",
          "div": "<div xmlns=\"http://www.w3.org/1999/xhtml\"><table class=\"hl7__eu__lab__report\"><tr><th>Test</th><th>23-Sep-2022</th><th>Reference&#xA0;Range</th><th>Unit</th></tr><tr><td>Color of Urine</td></tr></table></div>"
        },
        "status": "final",
        "subject": {
          "reference": "urn:uuid:0c3e31b6-fcf3-4ac5-b582-4f076879069a",
          "display": "Victor Lagarde"
        },
        "effectiveDateTime": "2022-09-23T04:48:18Z",
        "specimen": {
          "reference": "urn:uuid:52a9a433-84ca-4dc6-97a5-ca456aba32cc"
        }
      }
    },
    {
      "fullUrl": "urn:uuid:21a309f4-e296-4115-b7bc-3e717c9ff4c9",
      "resource": {
        "resourceType": "Observation",
        "id": "21a309f4-e296-4115-b7bc-3e717c9ff4c9",
        "meta": {
          "profile": [
            "http://hl7.eu/fhir/laboratory/StructureDefinition/Observation-resultslab-eu-lab"
          ]
        },
        "performer": [
          {
            "display": "The Central European Lab"
          }
        ],
        "category": [
          {
            "coding": [
              {
                "system": "http://terminology.hl7.org/CodeSystem/observation-category",
                "code": "laboratory"
              }
            ]
          }
        ],
        "code": {
          "coding": [
            {
              "code": "5792-7",
              "system": "http://loinc.org",
              "display": "Glucose [Mass/volume] in Urine by Test strip"
            }
          ],
          "text": "Glucose [Mass/volume] in Urine by Test strip"
        },
        "valueQuantity": {
          "system": "http://unitsofmeasure.org",
          "value": 1.8,
          "unit": "mg/dL",
          "code": "mg/dL"
        },
        "referenceRange": [
          {
            "low": {
              "value": 0,
              "code": "mg/dL",
              "system": "http://unitsofmeasure.org"
            }
          },
          {
            "high": {
              "value": 0.8,
              "code": "mg/dL",
              "system": "http://unitsofmeasure.org"
            }
          }
        ],
        "interpretation": [
          {
            "coding": [
              {
                "code": "H",
                "system": "http://terminology.hl7.org/CodeSystem/v3-ObservationInterpretation",
                "display": "High"
              }
            ]
          }
        ],
        "text": {
          "status": "generated",
          "div": "<div xmlns=\"http://www.w3.org/1999/xhtml\"><table class=\"hl7__eu__lab__report\"><tr><th>Test</th><th>23-Sep-2022</th><th>Reference&#xA0;Range</th><th>Unit</th></tr><tr><td>Glucose [Mass/volume] in Urine by Test strip</td><td>1.8</td><td>0 - 0.8</td><td>H</td><td>mg/dL</td></tr></table></div>"
        },
        "status": "final",
        "subject": {
          "reference": "urn:uuid:0c3e31b6-fcf3-4ac5-b582-4f076879069a",
          "display": "Victor Lagarde"
        },
        "effectiveDateTime": "2022-09-23T04:48:18Z",
        "specimen": {
          "reference": "urn:uuid:52a9a433-84ca-4dc6-97a5-ca456aba32cc"
        }
      }
    },
    {
      "fullUrl": "urn:uuid:15d8d3ad-9c21-449e-b063-774caff9d1ef",
      "resource": {
        "resourceType": "Observation",
        "id": "15d8d3ad-9c21-449e-b063-774caff9d1ef",
        "meta": {
          "profile": [
            "http://hl7.eu/fhir/laboratory/StructureDefinition/Observation-resultslab-eu-lab"
          ]
        },
        "performer": [
          {
            "display": "The Central European Lab"
          }
        ],
        "category": [
          {
            "coding": [
              {
                "system": "http://terminology.hl7.org/CodeSystem/observation-category",
                "code": "laboratory"
              }
            ]
          }
        ],
        "code": {
          "coding": [
            {
              "code": "25428-4",
              "system": "http://loinc.org",
              "display": "Glucose [Presence] in Urine by Test strip"
            }
          ],
          "text": "Glucose [Presence] in Urine by Test strip"
        },
        "text": {
          "status": "generated",
          "div": "<div xmlns=\"http://www.w3.org/1999/xhtml\"><table class=\"hl7__eu__lab__report\"><tr><th>Test</th><th>23-Sep-2022</th><th>Reference&#xA0;Range</th><th>Unit</th></tr><tr><td>Glucose [Presence] in Urine by Test strip</td></tr></table></div>"
        },
        "status": "final",
        "subject": {
          "reference": "urn:uuid:0c3e31b6-fcf3-4ac5-b582-4f076879069a",
          "display": "Victor Lagarde"
        },
        "effectiveDateTime": "2022-09-23T04:48:18Z",
        "specimen": {
          "reference": "urn:uuid:52a9a433-84ca-4dc6-97a5-ca456aba32cc"
        }
      }
    },
    {
      "fullUrl": "urn:uuid:c59f255f-9d7f-4e57-b6a6-7f93e7902b64",
      "resource": {
        "resourceType": "Observation",
        "id": "c59f255f-9d7f-4e57-b6a6-7f93e7902b64",
        "meta": {
          "profile": [
            "http://hl7.eu/fhir/laboratory/StructureDefinition/Observation-resultslab-eu-lab"
          ]
        },
        "performer": [
          {
            "display": "The Central European Lab"
          }
        ],
        "category": [
          {
            "coding": [
              {
                "system": "http://terminology.hl7.org/CodeSystem/observation-category",
                "code": "laboratory"
              }
            ]
          }
        ],
        "code": {
          "coding": [
            {
              "code": "20505-4",
              "system": "http://loinc.org",
              "display": "Bilirubin.total [Mass/volume] in Urine by Test strip"
            }
          ],
          "text": "Bilirubin.total [Mass/volume] in Urine by Test strip"
        },
        "valueQuantity": {
          "system": "http://unitsofmeasure.org",
          "value": 1.5,
          "unit": "mg/dL",
          "code": "mg/dL"
        },
        "referenceRange": [
          {
            "low": {
              "value": 0,
              "code": "mg/dL",
              "system": "http://unitsofmeasure.org"
            }
          },
          {
            "high": {
              "value": 1.9,
              "code": "mg/dL",
              "system": "http://unitsofmeasure.org"
            }
          }
        ],
        "text": {
          "status": "generated",
          "div": "<div xmlns=\"http://www.w3.org/1999/xhtml\"><table class=\"hl7__eu__lab__report\"><tr><th>Test</th><th>23-Sep-2022</th><th>Reference&#xA0;Range</th><th>Unit</th></tr><tr><td>Bilirubin.total [Mass/volume] in Urine by Test strip</td><td>1.5</td><td>0 - 1.9</td><td></td><td>mg/dL</td></tr></table></div>"
        },
        "status": "final",
        "subject": {
          "reference": "urn:uuid:0c3e31b6-fcf3-4ac5-b582-4f076879069a",
          "display": "Victor Lagarde"
        },
        "effectiveDateTime": "2022-09-23T04:48:18Z",
        "specimen": {
          "reference": "urn:uuid:52a9a433-84ca-4dc6-97a5-ca456aba32cc"
        }
      }
    },
    {
      "fullUrl": "urn:uuid:6aa08f4b-46f6-4951-bf65-f3705f0ff7f8",
      "resource": {
        "resourceType": "Observation",
        "id": "6aa08f4b-46f6-4951-bf65-f3705f0ff7f8",
        "meta": {
          "profile": [
            "http://hl7.eu/fhir/laboratory/StructureDefinition/Observation-resultslab-eu-lab"
          ]
        },
        "performer": [
          {
            "display": "The Central European Lab"
          }
        ],
        "category": [
          {
            "coding": [
              {
                "system": "http://terminology.hl7.org/CodeSystem/observation-category",
                "code": "laboratory"
              }
            ]
          }
        ],
        "code": {
          "coding": [
            {
              "code": "5770-3",
              "system": "http://loinc.org",
              "display": "Bilirubin.total [Presence] in Urine by Test strip"
            }
          ],
          "text": "Bilirubin.total [Presence] in Urine by Test strip"
        },
        "text": {
          "status": "generated",
          "div": "<div xmlns=\"http://www.w3.org/1999/xhtml\"><table class=\"hl7__eu__lab__report\"><tr><th>Test</th><th>23-Sep-2022</th><th>Reference&#xA0;Range</th><th>Unit</th></tr><tr><td>Bilirubin.total [Presence] in Urine by Test strip</td></tr></table></div>"
        },
        "status": "final",
        "subject": {
          "reference": "urn:uuid:0c3e31b6-fcf3-4ac5-b582-4f076879069a",
          "display": "Victor Lagarde"
        },
        "effectiveDateTime": "2022-09-23T04:48:18Z",
        "specimen": {
          "reference": "urn:uuid:52a9a433-84ca-4dc6-97a5-ca456aba32cc"
        }
      }
    },
    {
      "fullUrl": "urn:uuid:54721c60-6cee-4493-8384-a163b40f7178",
      "resource": {
        "resourceType": "Observation",
        "id": "54721c60-6cee-4493-8384-a163b40f7178",
        "meta": {
          "profile": [
            "http://hl7.eu/fhir/laboratory/StructureDefinition/Observation-resultslab-eu-lab"
          ]
        },
        "performer": [
          {
            "display": "The Central European Lab"
          }
        ],
        "category": [
          {
            "coding": [
              {
                "system": "http://terminology.hl7.org/CodeSystem/observation-category",
                "code": "laboratory"
              }
            ]
          }
        ],
        "code": {
          "coding": [
            {
              "code": "5797-6",
              "system": "http://loinc.org",
              "display": "Ketones [Mass/volume] in Urine by Test strip"
            }
          ],
          "text": "Ketones [Mass/volume] in Urine by Test strip"
        },
        "valueQuantity": {
          "system": "http://unitsofmeasure.org",
          "value": 1.3,
          "unit": "mg/dL",
          "code": "mg/dL"
        },
        "referenceRange": [
          {
            "low": {
              "value": 0,
              "code": "mg/dL",
              "system": "http://unitsofmeasure.org"
            }
          },
          {
            "high": {
              "value": 3,
              "code": "mg/dL",
              "system": "http://unitsofmeasure.org"
            }
          }
        ],
        "text": {
          "status": "generated",
          "div": "<div xmlns=\"http://www.w3.org/1999/xhtml\"><table class=\"hl7__eu__lab__report\"><tr><th>Test</th><th>23-Sep-2022</th><th>Reference&#xA0;Range</th><th>Unit</th></tr><tr><td>Ketones [Mass/volume] in Urine by Test strip</td><td>1.3</td><td>0 - 3</td><td></td><td>mg/dL</td></tr></table></div>"
        },
        "status": "final",
        "subject": {
          "reference": "urn:uuid:0c3e31b6-fcf3-4ac5-b582-4f076879069a",
          "display": "Victor Lagarde"
        },
        "effectiveDateTime": "2022-09-23T04:48:18Z",
        "specimen": {
          "reference": "urn:uuid:52a9a433-84ca-4dc6-97a5-ca456aba32cc"
        }
      }
    },
    {
      "fullUrl": "urn:uuid:96f246e0-febf-41d1-b661-f05c67ec7d89",
      "resource": {
        "resourceType": "Observation",
        "id": "96f246e0-febf-41d1-b661-f05c67ec7d89",
        "meta": {
          "profile": [
            "http://hl7.eu/fhir/laboratory/StructureDefinition/Observation-resultslab-eu-lab"
          ]
        },
        "performer": [
          {
            "display": "The Central European Lab"
          }
        ],
        "category": [
          {
            "coding": [
              {
                "system": "http://terminology.hl7.org/CodeSystem/observation-category",
                "code": "laboratory"
              }
            ]
          }
        ],
        "code": {
          "coding": [
            {
              "code": "2514-8",
              "system": "http://loinc.org",
              "display": "Ketones [Presence] in Urine by Test strip"
            }
          ],
          "text": "Ketones [Presence] in Urine by Test strip"
        },
        "text": {
          "status": "generated",
          "div": "<div xmlns=\"http://www.w3.org/1999/xhtml\"><table class=\"hl7__eu__lab__report\"><tr><th>Test</th><th>23-Sep-2022</th><th>Reference&#xA0;Range</th><th>Unit</th></tr><tr><td>Ketones [Presence] in Urine by Test strip</td></tr></table></div>"
        },
        "status": "final",
        "subject": {
          "reference": "urn:uuid:0c3e31b6-fcf3-4ac5-b582-4f076879069a",
          "display": "Victor Lagarde"
        },
        "effectiveDateTime": "2022-09-23T04:48:18Z",
        "specimen": {
          "reference": "urn:uuid:52a9a433-84ca-4dc6-97a5-ca456aba32cc"
        }
      }
    },
    {
      "fullUrl": "urn:uuid:819d1265-9e62-4096-ab10-cce90de67f2e",
      "resource": {
        "resourceType": "Observation",
        "id": "819d1265-9e62-4096-ab10-cce90de67f2e",
        "meta": {
          "profile": [
            "http://hl7.eu/fhir/laboratory/StructureDefinition/Observation-resultslab-eu-lab"
          ]
        },
        "performer": [
          {
            "display": "The Central European Lab"
          }
        ],
        "category": [
          {
            "coding": [
              {
                "system": "http://terminology.hl7.org/CodeSystem/observation-category",
                "code": "laboratory"
              }
            ]
          }
        ],
        "code": {
          "coding": [
            {
              "code": "5811-5",
              "system": "http://loinc.org",
              "display": "Specific gravity of Urine by Test strip"
            }
          ],
          "text": "Specific gravity of Urine by Test strip"
        },
        "valueQuantity": {
          "system": "http://unitsofmeasure.org",
          "value": 1,
          "unit": "{nominal}",
          "code": "{nominal}"
        },
        "referenceRange": [
          {
            "low": {
              "value": 1.01,
              "code": "g/mL",
              "system": "http://unitsofmeasure.org"
            }
          },
          {
            "high": {
              "value": 1.03,
              "code": "g/mL",
              "system": "http://unitsofmeasure.org"
            }
          }
        ],
        "interpretation": [
          {
            "coding": [
              {
                "code": "L",
                "system": "http://terminology.hl7.org/CodeSystem/v3-ObservationInterpretation",
                "display": "Low"
              }
            ]
          }
        ],
        "text": {
          "status": "generated",
          "div": "<div xmlns=\"http://www.w3.org/1999/xhtml\"><table class=\"hl7__eu__lab__report\"><tr><th>Test</th><th>23-Sep-2022</th><th>Reference&#xA0;Range</th><th>Unit</th></tr><tr><td>Specific gravity of Urine by Test strip</td><td>1.0</td><td>1.01 - 1.03</td><td>L</td><td>{nominal}</td></tr></table></div>"
        },
        "status": "final",
        "subject": {
          "reference": "urn:uuid:0c3e31b6-fcf3-4ac5-b582-4f076879069a",
          "display": "Victor Lagarde"
        },
        "effectiveDateTime": "2022-09-23T04:48:18Z",
        "specimen": {
          "reference": "urn:uuid:52a9a433-84ca-4dc6-97a5-ca456aba32cc"
        }
      }
    },
    {
      "fullUrl": "urn:uuid:5499d415-aa3d-4d5c-91fd-a2049e78bc06",
      "resource": {
        "resourceType": "Observation",
        "id": "5499d415-aa3d-4d5c-91fd-a2049e78bc06",
        "meta": {
          "profile": [
            "http://hl7.eu/fhir/laboratory/StructureDefinition/Observation-resultslab-eu-lab"
          ]
        },
        "performer": [
          {
            "display": "The Central European Lab"
          }
        ],
        "category": [
          {
            "coding": [
              {
                "system": "http://terminology.hl7.org/CodeSystem/observation-category",
                "code": "laboratory"
              }
            ]
          }
        ],
        "code": {
          "coding": [
            {
              "code": "5803-2",
              "system": "http://loinc.org",
              "display": "pH of Urine by Test strip"
            }
          ],
          "text": "pH of Urine by Test strip"
        },
        "valueQuantity": {
          "system": "http://unitsofmeasure.org",
          "value": 6.3,
          "unit": "pH",
          "code": "pH"
        },
        "referenceRange": [
          {
            "low": {
              "value": 4.5,
              "code": "pH",
              "system": "http://unitsofmeasure.org"
            }
          },
          {
            "high": {
              "value": 7.5,
              "code": "pH",
              "system": "http://unitsofmeasure.org"
            }
          }
        ],
        "text": {
          "status": "generated",
          "div": "<div xmlns=\"http://www.w3.org/1999/xhtml\"><table class=\"hl7__eu__lab__report\"><tr><th>Test</th><th>23-Sep-2022</th><th>Reference&#xA0;Range</th><th>Unit</th></tr><tr><td>pH of Urine by Test strip</td><td>6.3</td><td>4.5 - 7.5</td><td></td><td>pH</td></tr></table></div>"
        },
        "status": "final",
        "subject": {
          "reference": "urn:uuid:0c3e31b6-fcf3-4ac5-b582-4f076879069a",
          "display": "Victor Lagarde"
        },
        "effectiveDateTime": "2022-09-23T04:48:18Z",
        "specimen": {
          "reference": "urn:uuid:52a9a433-84ca-4dc6-97a5-ca456aba32cc"
        }
      }
    },
    {
      "fullUrl": "urn:uuid:62500932-ce5b-4dd9-b107-ae851f0aa6b6",
      "resource": {
        "resourceType": "Observation",
        "id": "62500932-ce5b-4dd9-b107-ae851f0aa6b6",
        "meta": {
          "profile": [
            "http://hl7.eu/fhir/laboratory/StructureDefinition/Observation-resultslab-eu-lab"
          ]
        },
        "performer": [
          {
            "display": "The Central European Lab"
          }
        ],
        "category": [
          {
            "coding": [
              {
                "system": "http://terminology.hl7.org/CodeSystem/observation-category",
                "code": "laboratory"
              }
            ]
          }
        ],
        "code": {
          "coding": [
            {
              "code": "5804-0",
              "system": "http://loinc.org",
              "display": "Protein [Mass/volume] in Urine by Test strip"
            }
          ],
          "text": "Protein [Mass/volume] in Urine by Test strip"
        },
        "valueQuantity": {
          "system": "http://unitsofmeasure.org",
          "value": 268.6,
          "unit": "mg/dL",
          "code": "mg/dL"
        },
        "referenceRange": [
          {
            "low": {
              "value": 0,
              "code": "mg/dL",
              "system": "http://unitsofmeasure.org"
            }
          },
          {
            "high": {
              "value": 149,
              "code": "mg/dL",
              "system": "http://unitsofmeasure.org"
            }
          }
        ],
        "interpretation": [
          {
            "coding": [
              {
                "code": "H",
                "system": "http://terminology.hl7.org/CodeSystem/v3-ObservationInterpretation",
                "display": "High"
              }
            ]
          }
        ],
        "text": {
          "status": "generated",
          "div": "<div xmlns=\"http://www.w3.org/1999/xhtml\"><table class=\"hl7__eu__lab__report\"><tr><th>Test</th><th>23-Sep-2022</th><th>Reference&#xA0;Range</th><th>Unit</th></tr><tr><td>Protein [Mass/volume] in Urine by Test strip</td><td>268.6</td><td>0 - 149</td><td>H</td><td>mg/dL</td></tr></table></div>"
        },
        "status": "final",
        "subject": {
          "reference": "urn:uuid:0c3e31b6-fcf3-4ac5-b582-4f076879069a",
          "display": "Victor Lagarde"
        },
        "effectiveDateTime": "2022-09-23T04:48:18Z",
        "specimen": {
          "reference": "urn:uuid:52a9a433-84ca-4dc6-97a5-ca456aba32cc"
        }
      }
    },
    {
      "fullUrl": "urn:uuid:608f0f1d-11f5-4fa9-bfd1-034f021be3df",
      "resource": {
        "resourceType": "Observation",
        "id": "608f0f1d-11f5-4fa9-bfd1-034f021be3df",
        "meta": {
          "profile": [
            "http://hl7.eu/fhir/laboratory/StructureDefinition/Observation-resultslab-eu-lab"
          ]
        },
        "performer": [
          {
            "display": "The Central European Lab"
          }
        ],
        "category": [
          {
            "coding": [
              {
                "system": "http://terminology.hl7.org/CodeSystem/observation-category",
                "code": "laboratory"
              }
            ]
          }
        ],
        "code": {
          "coding": [
            {
              "code": "20454-5",
              "system": "http://loinc.org",
              "display": "Protein [Presence] in Urine by Test strip"
            }
          ],
          "text": "Protein [Presence] in Urine by Test strip"
        },
        "text": {
          "status": "generated",
          "div": "<div xmlns=\"http://www.w3.org/1999/xhtml\"><table class=\"hl7__eu__lab__report\"><tr><th>Test</th><th>23-Sep-2022</th><th>Reference&#xA0;Range</th><th>Unit</th></tr><tr><td>Protein [Presence] in Urine by Test strip</td></tr></table></div>"
        },
        "status": "final",
        "subject": {
          "reference": "urn:uuid:0c3e31b6-fcf3-4ac5-b582-4f076879069a",
          "display": "Victor Lagarde"
        },
        "effectiveDateTime": "2022-09-23T04:48:18Z",
        "specimen": {
          "reference": "urn:uuid:52a9a433-84ca-4dc6-97a5-ca456aba32cc"
        }
      }
    },
    {
      "fullUrl": "urn:uuid:1d5a1ad9-1b5d-4ecb-9ec6-2bd21aa48456",
      "resource": {
        "resourceType": "Observation",
        "id": "1d5a1ad9-1b5d-4ecb-9ec6-2bd21aa48456",
        "meta": {
          "profile": [
            "http://hl7.eu/fhir/laboratory/StructureDefinition/Observation-resultslab-eu-lab"
          ]
        },
        "performer": [
          {
            "display": "The Central European Lab"
          }
        ],
        "category": [
          {
            "coding": [
              {
                "system": "http://terminology.hl7.org/CodeSystem/observation-category",
                "code": "laboratory"
              }
            ]
          }
        ],
        "code": {
          "coding": [
            {
              "code": "5802-4",
              "system": "http://loinc.org",
              "display": "Nitrite [Presence] in Urine by Test strip"
            }
          ],
          "text": "Nitrite [Presence] in Urine by Test strip"
        },
        "text": {
          "status": "generated",
          "div": "<div xmlns=\"http://www.w3.org/1999/xhtml\"><table class=\"hl7__eu__lab__report\"><tr><th>Test</th><th>23-Sep-2022</th><th>Reference&#xA0;Range</th><th>Unit</th></tr><tr><td>Nitrite [Presence] in Urine by Test strip</td></tr></table></div>"
        },
        "status": "final",
        "subject": {
          "reference": "urn:uuid:0c3e31b6-fcf3-4ac5-b582-4f076879069a",
          "display": "Victor Lagarde"
        },
        "effectiveDateTime": "2022-09-23T04:48:18Z",
        "specimen": {
          "reference": "urn:uuid:52a9a433-84ca-4dc6-97a5-ca456aba32cc"
        }
      }
    },
    {
      "fullUrl": "urn:uuid:4d96f439-82e5-44e9-b26c-503e990761c8",
      "resource": {
        "resourceType": "Observation",
        "id": "4d96f439-82e5-44e9-b26c-503e990761c8",
        "meta": {
          "profile": [
            "http://hl7.eu/fhir/laboratory/StructureDefinition/Observation-resultslab-eu-lab"
          ]
        },
        "performer": [
          {
            "display": "The Central European Lab"
          }
        ],
        "category": [
          {
            "coding": [
              {
                "system": "http://terminology.hl7.org/CodeSystem/observation-category",
                "code": "laboratory"
              }
            ]
          }
        ],
        "code": {
          "coding": [
            {
              "code": "5794-3",
              "system": "http://loinc.org",
              "display": "Hemoglobin [Presence] in Urine by Test strip"
            }
          ],
          "text": "Hemoglobin [Presence] in Urine by Test strip"
        },
        "text": {
          "status": "generated",
          "div": "<div xmlns=\"http://www.w3.org/1999/xhtml\"><table class=\"hl7__eu__lab__report\"><tr><th>Test</th><th>23-Sep-2022</th><th>Reference&#xA0;Range</th><th>Unit</th></tr><tr><td>Hemoglobin [Presence] in Urine by Test strip</td></tr></table></div>"
        },
        "status": "final",
        "subject": {
          "reference": "urn:uuid:0c3e31b6-fcf3-4ac5-b582-4f076879069a",
          "display": "Victor Lagarde"
        },
        "effectiveDateTime": "2022-09-23T04:48:18Z",
        "specimen": {
          "reference": "urn:uuid:52a9a433-84ca-4dc6-97a5-ca456aba32cc"
        }
      }
    },
    {
      "fullUrl": "urn:uuid:f1fb3174-3111-4637-a700-da3da877d501",
      "resource": {
        "resourceType": "Observation",
        "id": "f1fb3174-3111-4637-a700-da3da877d501",
        "meta": {
          "profile": [
            "http://hl7.eu/fhir/laboratory/StructureDefinition/Observation-resultslab-eu-lab"
          ]
        },
        "performer": [
          {
            "display": "The Central European Lab"
          }
        ],
        "category": [
          {
            "coding": [
              {
                "system": "http://terminology.hl7.org/CodeSystem/observation-category",
                "code": "laboratory"
              }
            ]
          }
        ],
        "code": {
          "coding": [
            {
              "code": "5799-2",
              "system": "http://loinc.org",
              "display": "Leukocyte esterase [Presence] in Urine by Test strip"
            }
          ],
          "text": "Leukocyte esterase [Presence] in Urine by Test strip"
        },
        "text": {
          "status": "generated",
          "div": "<div xmlns=\"http://www.w3.org/1999/xhtml\"><table class=\"hl7__eu__lab__report\"><tr><th>Test</th><th>23-Sep-2022</th><th>Reference&#xA0;Range</th><th>Unit</th></tr><tr><td>Leukocyte esterase [Presence] in Urine by Test strip</td></tr></table></div>"
        },
        "status": "final",
        "subject": {
          "reference": "urn:uuid:0c3e31b6-fcf3-4ac5-b582-4f076879069a",
          "display": "Victor Lagarde"
        },
        "effectiveDateTime": "2022-09-23T04:48:18Z",
        "specimen": {
          "reference": "urn:uuid:52a9a433-84ca-4dc6-97a5-ca456aba32cc"
        }
      }
    },
    {
      "fullUrl": "urn:uuid:a365a095-8883-4640-92cc-297fe6efb3ad",
      "resource": {
        "resourceType": "Observation",
        "id": "a365a095-8883-4640-92cc-297fe6efb3ad",
        "meta": {
          "profile": [
            "http://hl7.eu/fhir/laboratory/StructureDefinition/Observation-resultslab-eu-lab"
          ]
        },
        "performer": [
          {
            "display": "The Central European Lab"
          }
        ],
        "category": [
          {
            "coding": [
              {
                "system": "http://terminology.hl7.org/CodeSystem/observation-category",
                "code": "laboratory"
              }
            ]
          }
        ],
        "code": {
          "coding": [
            {
              "code": "4548-4",
              "system": "http://loinc.org",
              "display": "Hemoglobin A1c/Hemoglobin.total in Blood"
            }
          ],
          "text": "Hemoglobin A1c/Hemoglobin.total in Blood"
        },
        "valueQuantity": {
          "system": "http://unitsofmeasure.org",
          "value": 3.4,
          "unit": "%",
          "code": "%"
        },
        "referenceRange": [
          {
            "low": {
              "value": 4.3,
              "code": "%",
              "system": "http://unitsofmeasure.org"
            }
          },
          {
            "high": {
              "value": 6,
              "code": "%",
              "system": "http://unitsofmeasure.org"
            }
          }
        ],
        "interpretation": [
          {
            "coding": [
              {
                "code": "L",
                "system": "http://terminology.hl7.org/CodeSystem/v3-ObservationInterpretation",
                "display": "Low"
              }
            ]
          }
        ],
        "text": {
          "status": "generated",
          "div": "<div xmlns=\"http://www.w3.org/1999/xhtml\"><table class=\"hl7__eu__lab__report\"><tr><th>Test</th><th>23-Sep-2022</th><th>Reference&#xA0;Range</th><th>Unit</th></tr><tr><td>Hemoglobin A1c/Hemoglobin.total in Blood</td><td>3.4</td><td>4.3 - 6</td><td>L</td><td>%</td></tr></table></div>"
        },
        "status": "final",
        "subject": {
          "reference": "urn:uuid:0c3e31b6-fcf3-4ac5-b582-4f076879069a",
          "display": "Victor Lagarde"
        },
        "effectiveDateTime": "2022-09-23T04:48:18Z",
        "specimen": {
          "reference": "urn:uuid:c4c48568-81c9-4db1-8b9b-8d2fc407f49b"
        }
      }
    },
    {
      "fullUrl": "urn:uuid:48c0f9ce-1f27-485e-9ca3-30320c9ac68c",
      "resource": {
        "resourceType": "Observation",
        "id": "48c0f9ce-1f27-485e-9ca3-30320c9ac68c",
        "meta": {
          "profile": [
            "http://hl7.eu/fhir/laboratory/StructureDefinition/Observation-resultslab-eu-lab"
          ]
        },
        "performer": [
          {
            "display": "The Central European Lab"
          }
        ],
        "category": [
          {
            "coding": [
              {
                "system": "http://terminology.hl7.org/CodeSystem/observation-category",
                "code": "laboratory"
              }
            ]
          }
        ],
        "code": {
          "coding": [
            {
              "code": "2339-0",
              "system": "http://loinc.org",
              "display": "Glucose [Mass/volume] in Blood"
            }
          ],
          "text": "Glucose [Mass/volume] in Blood"
        },
        "valueQuantity": {
          "system": "http://unitsofmeasure.org",
          "value": 72.1,
          "unit": "mg/dL",
          "code": "mg/dL"
        },
        "referenceRange": [
          {
            "low": {
              "value": 70,
              "code": "mg/dL",
              "system": "http://unitsofmeasure.org"
            }
          },
          {
            "high": {
              "value": 140,
              "code": "mg/dL",
              "system": "http://unitsofmeasure.org"
            }
          }
        ],
        "text": {
          "status": "generated",
          "div": "<div xmlns=\"http://www.w3.org/1999/xhtml\"><table class=\"hl7__eu__lab__report\"><tr><th>Test</th><th>23-Sep-2022</th><th>Reference&#xA0;Range</th><th>Unit</th></tr><tr><td>Glucose [Mass/volume] in Blood</td><td>72.1</td><td>70 - 140</td><td></td><td>mg/dL</td></tr></table></div>"
        },
        "status": "final",
        "subject": {
          "reference": "urn:uuid:0c3e31b6-fcf3-4ac5-b582-4f076879069a",
          "display": "Victor Lagarde"
        },
        "effectiveDateTime": "2022-09-23T04:48:18Z",
        "specimen": {
          "reference": "urn:uuid:c4c48568-81c9-4db1-8b9b-8d2fc407f49b"
        }
      }
    },
    {
      "fullUrl": "urn:uuid:ed5d0eb2-83a1-49ea-b19b-490637893e06",
      "resource": {
        "resourceType": "Observation",
        "id": "ed5d0eb2-83a1-49ea-b19b-490637893e06",
        "meta": {
          "profile": [
            "http://hl7.eu/fhir/laboratory/StructureDefinition/Observation-resultslab-eu-lab"
          ]
        },
        "performer": [
          {
            "display": "The Central European Lab"
          }
        ],
        "category": [
          {
            "coding": [
              {
                "system": "http://terminology.hl7.org/CodeSystem/observation-category",
                "code": "laboratory"
              }
            ]
          }
        ],
        "code": {
          "coding": [
            {
              "code": "6299-2",
              "system": "http://loinc.org",
              "display": "Urea nitrogen [Mass/volume] in Blood"
            }
          ],
          "text": "Urea nitrogen [Mass/volume] in Blood"
        },
        "valueQuantity": {
          "system": "http://unitsofmeasure.org",
          "value": 14.1,
          "unit": "mg/dL",
          "code": "mg/dL"
        },
        "referenceRange": [
          {
            "low": {
              "value": 7,
              "code": "mg/dL",
              "system": "http://unitsofmeasure.org"
            }
          },
          {
            "high": {
              "value": 20,
              "code": "mg/dL",
              "system": "http://unitsofmeasure.org"
            }
          }
        ],
        "text": {
          "status": "generated",
          "div": "<div xmlns=\"http://www.w3.org/1999/xhtml\"><table class=\"hl7__eu__lab__report\"><tr><th>Test</th><th>23-Sep-2022</th><th>Reference&#xA0;Range</th><th>Unit</th></tr><tr><td>Urea nitrogen [Mass/volume] in Blood</td><td>14.1</td><td>7 - 20</td><td></td><td>mg/dL</td></tr></table></div>"
        },
        "status": "final",
        "subject": {
          "reference": "urn:uuid:0c3e31b6-fcf3-4ac5-b582-4f076879069a",
          "display": "Victor Lagarde"
        },
        "effectiveDateTime": "2022-09-23T04:48:18Z",
        "specimen": {
          "reference": "urn:uuid:c4c48568-81c9-4db1-8b9b-8d2fc407f49b"
        }
      }
    },
    {
      "fullUrl": "urn:uuid:1c8d354a-22ef-4770-ae63-63e6ac810a39",
      "resource": {
        "resourceType": "Observation",
        "id": "1c8d354a-22ef-4770-ae63-63e6ac810a39",
        "meta": {
          "profile": [
            "http://hl7.eu/fhir/laboratory/StructureDefinition/Observation-resultslab-eu-lab"
          ]
        },
        "performer": [
          {
            "display": "The Central European Lab"
          }
        ],
        "category": [
          {
            "coding": [
              {
                "system": "http://terminology.hl7.org/CodeSystem/observation-category",
                "code": "laboratory"
              }
            ]
          }
        ],
        "code": {
          "coding": [
            {
              "code": "38483-4",
              "system": "http://loinc.org",
              "display": "Creatinine [Mass/volume] in Blood"
            }
          ],
          "text": "Creatinine [Mass/volume] in Blood"
        },
        "valueQuantity": {
          "system": "http://unitsofmeasure.org",
          "value": 2.7,
          "unit": "mg/dL",
          "code": "mg/dL"
        },
        "referenceRange": [
          {
            "low": {
              "value": 0.9,
              "code": "mg/dL",
              "system": "http://unitsofmeasure.org"
            }
          },
          {
            "high": {
              "value": 1.3,
              "code": "mg/dL",
              "system": "http://unitsofmeasure.org"
            }
          }
        ],
        "interpretation": [
          {
            "coding": [
              {
                "code": "H",
                "system": "http://terminology.hl7.org/CodeSystem/v3-ObservationInterpretation",
                "display": "High"
              }
            ]
          }
        ],
        "text": {
          "status": "generated",
          "div": "<div xmlns=\"http://www.w3.org/1999/xhtml\"><table class=\"hl7__eu__lab__report\"><tr><th>Test</th><th>23-Sep-2022</th><th>Reference&#xA0;Range</th><th>Unit</th></tr><tr><td>Creatinine [Mass/volume] in Blood</td><td>2.7</td><td>0.9 - 1.3</td><td>H</td><td>mg/dL</td></tr></table></div>"
        },
        "status": "final",
        "subject": {
          "reference": "urn:uuid:0c3e31b6-fcf3-4ac5-b582-4f076879069a",
          "display": "Victor Lagarde"
        },
        "effectiveDateTime": "2022-09-23T04:48:18Z",
        "specimen": {
          "reference": "urn:uuid:c4c48568-81c9-4db1-8b9b-8d2fc407f49b"
        }
      }
    },
    {
      "fullUrl": "urn:uuid:5a1c7066-55dc-448d-a531-73b8e9fa9198",
      "resource": {
        "resourceType": "Observation",
        "id": "5a1c7066-55dc-448d-a531-73b8e9fa9198",
        "meta": {
          "profile": [
            "http://hl7.eu/fhir/laboratory/StructureDefinition/Observation-resultslab-eu-lab"
          ]
        },
        "performer": [
          {
            "display": "The Central European Lab"
          }
        ],
        "category": [
          {
            "coding": [
              {
                "system": "http://terminology.hl7.org/CodeSystem/observation-category",
                "code": "laboratory"
              }
            ]
          }
        ],
        "code": {
          "coding": [
            {
              "code": "49765-1",
              "system": "http://loinc.org",
              "display": "Calcium [Mass/volume] in Blood"
            }
          ],
          "text": "Calcium [Mass/volume] in Blood"
        },
        "valueQuantity": {
          "system": "http://unitsofmeasure.org",
          "value": 9.2,
          "unit": "mg/dL",
          "code": "mg/dL"
        },
        "referenceRange": [
          {
            "low": {
              "value": 8.5,
              "code": "mg/dL",
              "system": "http://unitsofmeasure.org"
            }
          },
          {
            "high": {
              "value": 10.5,
              "code": "mg/dL",
              "system": "http://unitsofmeasure.org"
            }
          }
        ],
        "text": {
          "status": "generated",
          "div": "<div xmlns=\"http://www.w3.org/1999/xhtml\"><table class=\"hl7__eu__lab__report\"><tr><th>Test</th><th>23-Sep-2022</th><th>Reference&#xA0;Range</th><th>Unit</th></tr><tr><td>Calcium [Mass/volume] in Blood</td><td>9.2</td><td>8.5 - 10.5</td><td></td><td>mg/dL</td></tr></table></div>"
        },
        "status": "final",
        "subject": {
          "reference": "urn:uuid:0c3e31b6-fcf3-4ac5-b582-4f076879069a",
          "display": "Victor Lagarde"
        },
        "effectiveDateTime": "2022-09-23T04:48:18Z",
        "specimen": {
          "reference": "urn:uuid:c4c48568-81c9-4db1-8b9b-8d2fc407f49b"
        }
      }
    },
    {
      "fullUrl": "urn:uuid:45b06fc5-b0b3-4877-aab9-46fbf666e706",
      "resource": {
        "resourceType": "Observation",
        "id": "45b06fc5-b0b3-4877-aab9-46fbf666e706",
        "meta": {
          "profile": [
            "http://hl7.eu/fhir/laboratory/StructureDefinition/Observation-resultslab-eu-lab"
          ]
        },
        "performer": [
          {
            "display": "The Central European Lab"
          }
        ],
        "category": [
          {
            "coding": [
              {
                "system": "http://terminology.hl7.org/CodeSystem/observation-category",
                "code": "laboratory"
              }
            ]
          }
        ],
        "code": {
          "coding": [
            {
              "code": "2947-0",
              "system": "http://loinc.org",
              "display": "Sodium [Moles/volume] in Blood"
            }
          ],
          "text": "Sodium [Moles/volume] in Blood"
        },
        "valueQuantity": {
          "system": "http://unitsofmeasure.org",
          "value": 141.6,
          "unit": "mmol/L",
          "code": "mmol/L"
        },
        "referenceRange": [
          {
            "low": {
              "value": 135,
              "code": "mmol/L",
              "system": "http://unitsofmeasure.org"
            }
          },
          {
            "high": {
              "value": 145,
              "code": "mmol/L",
              "system": "http://unitsofmeasure.org"
            }
          }
        ],
        "text": {
          "status": "generated",
          "div": "<div xmlns=\"http://www.w3.org/1999/xhtml\"><table class=\"hl7__eu__lab__report\"><tr><th>Test</th><th>23-Sep-2022</th><th>Reference&#xA0;Range</th><th>Unit</th></tr><tr><td>Sodium [Moles/volume] in Blood</td><td>141.6</td><td>135 - 145</td><td></td><td>mmol/L</td></tr></table></div>"
        },
        "status": "final",
        "subject": {
          "reference": "urn:uuid:0c3e31b6-fcf3-4ac5-b582-4f076879069a",
          "display": "Victor Lagarde"
        },
        "effectiveDateTime": "2022-09-23T04:48:18Z",
        "specimen": {
          "reference": "urn:uuid:c4c48568-81c9-4db1-8b9b-8d2fc407f49b"
        }
      }
    },
    {
      "fullUrl": "urn:uuid:6deeffdf-0081-4f6d-b79b-4d7b92757b67",
      "resource": {
        "resourceType": "Observation",
        "id": "6deeffdf-0081-4f6d-b79b-4d7b92757b67",
        "meta": {
          "profile": [
            "http://hl7.eu/fhir/laboratory/StructureDefinition/Observation-resultslab-eu-lab"
          ]
        },
        "performer": [
          {
            "display": "The Central European Lab"
          }
        ],
        "category": [
          {
            "coding": [
              {
                "system": "http://terminology.hl7.org/CodeSystem/observation-category",
                "code": "laboratory"
              }
            ]
          }
        ],
        "code": {
          "coding": [
            {
              "code": "6298-4",
              "system": "http://loinc.org",
              "display": "Potassium [Moles/volume] in Blood"
            }
          ],
          "text": "Potassium [Moles/volume] in Blood"
        },
        "valueQuantity": {
          "system": "http://unitsofmeasure.org",
          "value": 4.4,
          "unit": "mmol/L",
          "code": "mmol/L"
        },
        "referenceRange": [
          {
            "low": {
              "value": 3.5,
              "code": "mmol/L",
              "system": "http://unitsofmeasure.org"
            }
          },
          {
            "high": {
              "value": 5.1,
              "code": "mmol/L",
              "system": "http://unitsofmeasure.org"
            }
          }
        ],
        "text": {
          "status": "generated",
          "div": "<div xmlns=\"http://www.w3.org/1999/xhtml\"><table class=\"hl7__eu__lab__report\"><tr><th>Test</th><th>23-Sep-2022</th><th>Reference&#xA0;Range</th><th>Unit</th></tr><tr><td>Potassium [Moles/volume] in Blood</td><td>4.4</td><td>3.5 - 5.1</td><td></td><td>mmol/L</td></tr></table></div>"
        },
        "status": "final",
        "subject": {
          "reference": "urn:uuid:0c3e31b6-fcf3-4ac5-b582-4f076879069a",
          "display": "Victor Lagarde"
        },
        "effectiveDateTime": "2022-09-23T04:48:18Z",
        "specimen": {
          "reference": "urn:uuid:c4c48568-81c9-4db1-8b9b-8d2fc407f49b"
        }
      }
    },
    {
      "fullUrl": "urn:uuid:7386fb29-3672-4108-896d-80e0a7192104",
      "resource": {
        "resourceType": "Observation",
        "id": "7386fb29-3672-4108-896d-80e0a7192104",
        "meta": {
          "profile": [
            "http://hl7.eu/fhir/laboratory/StructureDefinition/Observation-resultslab-eu-lab"
          ]
        },
        "performer": [
          {
            "display": "The Central European Lab"
          }
        ],
        "category": [
          {
            "coding": [
              {
                "system": "http://terminology.hl7.org/CodeSystem/observation-category",
                "code": "laboratory"
              }
            ]
          }
        ],
        "code": {
          "coding": [
            {
              "code": "2069-3",
              "system": "http://loinc.org",
              "display": "Chloride [Moles/volume] in Blood"
            }
          ],
          "text": "Chloride [Moles/volume] in Blood"
        },
        "valueQuantity": {
          "system": "http://unitsofmeasure.org",
          "value": 106.9,
          "unit": "mmol/L",
          "code": "mmol/L"
        },
        "referenceRange": [
          {
            "low": {
              "value": 98,
              "code": "mmol/L",
              "system": "http://unitsofmeasure.org"
            }
          },
          {
            "high": {
              "value": 108,
              "code": "mmol/L",
              "system": "http://unitsofmeasure.org"
            }
          }
        ],
        "text": {
          "status": "generated",
          "div": "<div xmlns=\"http://www.w3.org/1999/xhtml\"><table class=\"hl7__eu__lab__report\"><tr><th>Test</th><th>23-Sep-2022</th><th>Reference&#xA0;Range</th><th>Unit</th></tr><tr><td>Chloride [Moles/volume] in Blood</td><td>106.9</td><td>98 - 108</td><td></td><td>mmol/L</td></tr></table></div>"
        },
        "status": "final",
        "subject": {
          "reference": "urn:uuid:0c3e31b6-fcf3-4ac5-b582-4f076879069a",
          "display": "Victor Lagarde"
        },
        "effectiveDateTime": "2022-09-23T04:48:18Z",
        "specimen": {
          "reference": "urn:uuid:c4c48568-81c9-4db1-8b9b-8d2fc407f49b"
        }
      }
    },
    {
      "fullUrl": "urn:uuid:699cb49d-c2ea-4e3b-b86c-abaa56161429",
      "resource": {
        "resourceType": "Observation",
        "id": "699cb49d-c2ea-4e3b-b86c-abaa56161429",
        "meta": {
          "profile": [
            "http://hl7.eu/fhir/laboratory/StructureDefinition/Observation-resultslab-eu-lab"
          ]
        },
        "performer": [
          {
            "display": "The Central European Lab"
          }
        ],
        "category": [
          {
            "coding": [
              {
                "system": "http://terminology.hl7.org/CodeSystem/observation-category",
                "code": "laboratory"
              }
            ]
          }
        ],
        "code": {
          "coding": [
            {
              "code": "20565-8",
              "system": "http://loinc.org",
              "display": "Carbon dioxide, total [Moles/volume] in Blood"
            }
          ],
          "text": "Carbon dioxide, total [Moles/volume] in Blood"
        },
        "valueQuantity": {
          "system": "http://unitsofmeasure.org",
          "value": 26.8,
          "unit": "mmol/L",
          "code": "mmol/L"
        },
        "referenceRange": [
          {
            "low": {
              "value": 22,
              "code": "mmol/L",
              "system": "http://unitsofmeasure.org"
            }
          },
          {
            "high": {
              "value": 29,
              "code": "mmol/L",
              "system": "http://unitsofmeasure.org"
            }
          }
        ],
        "text": {
          "status": "generated",
          "div": "<div xmlns=\"http://www.w3.org/1999/xhtml\"><table class=\"hl7__eu__lab__report\"><tr><th>Test</th><th>23-Sep-2022</th><th>Reference&#xA0;Range</th><th>Unit</th></tr><tr><td>Carbon dioxide, total [Moles/volume] in Blood</td><td>26.8</td><td>22 - 29</td><td></td><td>mmol/L</td></tr></table></div>"
        },
        "status": "final",
        "subject": {
          "reference": "urn:uuid:0c3e31b6-fcf3-4ac5-b582-4f076879069a",
          "display": "Victor Lagarde"
        },
        "effectiveDateTime": "2022-09-23T04:48:18Z",
        "specimen": {
          "reference": "urn:uuid:c4c48568-81c9-4db1-8b9b-8d2fc407f49b"
        }
      }
    },
    {
      "fullUrl": "urn:uuid:53eebaf7-5da8-4e09-b7f0-05c3e35e2204",
      "resource": {
        "resourceType": "Device",
        "id": "53eebaf7-5da8-4e09-b7f0-05c3e35e2204",
        "deviceName": [
          {
            "name": "SYNDERAI Synthetic Generator",
            "type": "manufacturer-name"
          }
        ],
        "version": [
          {
            "value": "5.0"
          }
        ],
        "text": {
          "status": "generated",
          "div": "<div xmlns=\"http://www.w3.org/1999/xhtml\">SYNDERAI Synthetic Generator v5.0</div>"
        },
        "status": "active\"",
        "distinctIdentifier": "synderai-generator-50",
        "manufacturer": "SYNDERAI Project"
      }
    },
    {
      "fullUrl": "urn:uuid:c14104a1-a711-476c-9261-bb10a43f79f7",
      "resource": {
        "resourceType": "Provenance",
        "id": "c14104a1-a711-476c-9261-bb10a43f79f7",
        "target": [
          {
            "reference": "Patient/0c3e31b6-fcf3-4ac5-b582-4f076879069a"
          },
          {
            "reference": "Bundle/59bd8777-be08-49c0-9ab1-a28effc39c76"
          },
          {
            "reference": "Composition/9966225b-41a9-4d2e-83f5-6741ecd05b33"
          },
          {
            "reference": "PractitionerRole/87dfc90a-e15d-4c11-bd4a-d22376211cd6"
          },
          {
            "reference": "Practitioner/e31f35c3-7738-4a7f-ad92-7477f68cb9f6"
          },
          {
            "reference": "PractitionerRole/16347cae-feb9-4f7e-b4f1-cd47f69a50be"
          },
          {
            "reference": "Organization/21017081-7437-4acf-8774-3675ac1800df"
          }
        ],
        "activity": {
          "text": "Synthetic Example Data Generation"
        },
        "policy": [
          "https://synderai.net/synderai-synthetic-data-policy"
        ],
        "agent": [
          {
            "type": {
              "text": "author"
            },
            "who": {
              "reference": "Device/53eebaf7-5da8-4e09-b7f0-05c3e35e2204"
            }
          }
        ],
        "reason": [
          {
            "text": "Interoperability Testing and Training (non-clinical use)"
          }
        ],
        "text": {
          "status": "generated",
          "div": "<div xmlns=\"http://www.w3.org/1999/xhtml\">Provenance for SYNDERAI Synthetic Example Data Resource</div>"
        },
        "recorded": "2022-09-23T06:48:18Z"
      }
    },
    {
      "fullUrl": "urn:uuid:87dfc90a-e15d-4c11-bd4a-d22376211cd6",
      "resource": {
        "resourceType": "PractitionerRole",
        "id": "87dfc90a-e15d-4c11-bd4a-d22376211cd6",
        "meta": {
          "profile": [
            "http://hl7.eu/fhir/base/StructureDefinition/practitionerRole-eu"
          ]
        },
        "text": {
          "status": "generated",
          "div": "<div xmlns=\"http://www.w3.org/1999/xhtml\">Laboratory Role Id: 87dfc90a-e15d-4c11-bd4a-d22376211cd6</div>"
        },
        "practitioner": {
          "reference": "urn:uuid:e31f35c3-7738-4a7f-ad92-7477f68cb9f6"
        }
      }
    },
    {
      "fullUrl": "urn:uuid:e31f35c3-7738-4a7f-ad92-7477f68cb9f6",
      "resource": {
        "resourceType": "Practitioner",
        "id": "e31f35c3-7738-4a7f-ad92-7477f68cb9f6",
        "meta": {
          "profile": [
            "http://hl7.eu/fhir/base/StructureDefinition/practitioner-eu"
          ]
        },
        "identifier": [
          {
            "assigner": {
              "display": "HL7 Europe"
            },
            "system": "urn:oid:2.16.840.1.113883.2.51.999",
            "value": "78d65a8e-74d8-42ce-a1e9-f38ff75ee1c3"
          }
        ],
        "name": [
          {
            "prefix": [
              "dr"
            ],
            "given": [
              "Ex"
            ],
            "family": "Ample"
          }
        ],
        "address": [
          {
            "line": [
              "Laboratoire Central Europenne",
              "Boulevard du Jardin Botanique 32"
            ],
            "postalCode": "1000",
            "city": "Brussels",
            "country": "Belgium"
          }
        ],
        "text": {
          "status": "generated",
          "div": "<div xmlns=\"http://www.w3.org/1999/xhtml\">Laboratory: Laboratoire Central Europenne, 1000 Brussels, Belgium</div>"
        }
      }
    }
  ],
  "type": "document",
  "timestamp": "2022-09-23T06:48:18Z"
}
