{
  "resourceType": "Bundle",
  "id": "3e282611-f332-4abb-918c-2a6bf8aecedb",
  "meta": {
    "profile": [
      "http://hl7.eu/fhir/laboratory/StructureDefinition/Bundle-eu-lab"
    ]
  },
  "identifier": {
    "assigner": {
      "display": "HL7 Europe"
    },
    "system": "urn:oid:2.16.840.1.113883.2.51.999",
    "value": "6c0d158d-3b9a-4ad4-a628-b6da7d6ceb2a"
  },
  "entry": [
    {
      "fullUrl": "urn:uuid:6b25cc0f-aaf6-4694-a9a1-2ccc29f1626d",
      "resource": {
        "resourceType": "Composition",
        "id": "6b25cc0f-aaf6-4694-a9a1-2ccc29f1626d",
        "meta": {
          "profile": [
            "http://hl7.eu/fhir/laboratory/StructureDefinition/Composition-eu-lab"
          ]
        },
        "identifier": {
          "assigner": {
            "display": "HL7 Europe"
          },
          "system": "urn:oid:2.16.840.1.113883.2.51.999",
          "value": "7db813f2-8377-4daa-8d08-6cf7331013f8"
        },
        "author": [
          {
            "reference": "urn:uuid:c8d202fe-54a9-4d2a-b81b-96158ceaca88"
          }
        ],
        "category": [
          {
            "coding": [
              {
                "code": "26436-6",
                "system": "http://loinc.org",
                "display": "Laboratory studies (set)"
              }
            ]
          }
        ],
        "type": {
          "coding": [
            {
              "code": "11502-2",
              "system": "http://loinc.org",
              "display": "Laboratory report"
            }
          ],
          "text": "Laboratory Report"
        },
        "section": [
          {
            "code": {
              "coding": [
                {
                  "code": "26436-6",
                  "system": "http://loinc.org",
                  "display": "Laboratory studies (set)"
                }
              ],
              "text": "Laboratory studies"
            },
            "section": [
              {
                "code": {
                  "coding": [
                    {
                      "code": "$18719-5",
                      "system": "http://loinc.org",
                      "display": "Chemistry studies (set)"
                    }
                  ],
                  "text": "Chemistry"
                },
                "entry": [
                  {
                    "reference": "urn:uuid:ada1d358-a2e8-4a61-960a-086d92be148c"
                  },
                  {
                    "reference": "urn:uuid:67c43aaa-4411-4a48-b87c-a921b621b886"
                  },
                  {
                    "reference": "urn:uuid:ded59be7-9c02-4443-82a4-ff3f9221a96f"
                  },
                  {
                    "reference": "urn:uuid:af86be13-06c7-4d50-b259-225edfba044f"
                  },
                  {
                    "reference": "urn:uuid:91669839-6f26-4ef9-b156-a213b15a4f63"
                  },
                  {
                    "reference": "urn:uuid:c94e24cb-df69-489c-872b-78a1c1d40be2"
                  },
                  {
                    "reference": "urn:uuid:0a53d49a-b60d-4fdc-895c-efaf7712d120"
                  },
                  {
                    "reference": "urn:uuid:00f23dce-8ec5-4d1a-9b43-2bedf73c08ac"
                  },
                  {
                    "reference": "urn:uuid:c8bcdf57-a711-488d-9a12-652ec7412fe4"
                  },
                  {
                    "reference": "urn:uuid:c52766c3-5d35-4f88-821c-2ca9a49cbfd8"
                  },
                  {
                    "reference": "urn:uuid:849eeb89-4532-489d-a179-cc82f045f730"
                  },
                  {
                    "reference": "urn:uuid:a1389223-2d72-41e3-a474-3abe3ad5f010"
                  },
                  {
                    "reference": "urn:uuid:d64bc45b-77b9-4817-8485-90106b4ad822"
                  },
                  {
                    "reference": "urn:uuid:f55bd5f8-4a22-4346-a711-ee935ca50e21"
                  },
                  {
                    "reference": "urn:uuid:e4f64859-cad6-4a3c-b703-dd07cc49104b"
                  },
                  {
                    "reference": "urn:uuid:820bdfd5-faf1-4c2b-a9b5-1761e1d372ed"
                  },
                  {
                    "reference": "urn:uuid:85e5dc6c-2473-41f5-9195-9854599a5711"
                  },
                  {
                    "reference": "urn:uuid:61afd5d2-d2f9-4e67-af9c-1ca437bc0304"
                  }
                ],
                "text": {
                  "status": "generated",
                  "div": "<div xmlns=\"http://www.w3.org/1999/xhtml\"><h3>Chemistry</h3><table class=\"hl7__eu__lab__report\"><thead><tr><th>Test</th><th>23-APR-2019</th><th>Reference&#xA0;Range</th><th>Unit</th></tr></thead><tbody><tr><td>Glucose [Mass/volume] in Serum or Plasma</td><td>71.9</td><td>70 - 99</td><td>mg/dL</td></tr><tr><td>Urea nitrogen [Mass/volume] in Serum or Plasma</td><td>8.4</td><td>7 - 50</td><td>mg/dL</td></tr><tr><td>Creatinine [Mass/volume] in Serum or Plasma</td><td><strong>2.0 H</strong></td><td>0.6 - 1.1</td><td>mg/dL</td></tr><tr><td>Calcium [Mass/volume] in Serum or Plasma</td><td>9.8</td><td>8.6 - 10.4</td><td>mg/dL</td></tr><tr><td>Sodium [Moles/volume] in Serum or Plasma</td><td>142.9</td><td>135 - 145</td><td>mmol/L</td></tr><tr><td>Potassium [Moles/volume] in Serum or Plasma</td><td>4.3</td><td>3.5 - 5.1</td><td>mmol/L</td></tr><tr><td>Chloride [Moles/volume] in Serum or Plasma</td><td>104.7</td><td>98 - 108</td><td>mmol/L</td></tr><tr><td>Carbon dioxide, total [Moles/volume] in Serum or Plasma</td><td>23.0</td><td>22 - 32</td><td>mmol/L</td></tr><tr><td>Ketones [Presence] in Urine by Test strip</td><td>Urine ketone test = ++</td><td></td><td></td></tr><tr><td>Hemoglobin A1c/Hemoglobin.total in Blood</td><td><strong>2.8 L</strong></td><td>4 - 6.4</td><td>%</td></tr><tr><td>Glucose [Mass/volume] in Blood</td><td>71.9</td><td>70 - 100</td><td>mg/dL</td></tr><tr><td>Urea nitrogen [Mass/volume] in Blood</td><td>8.4</td><td>7 - 43</td><td>mg/dL</td></tr><tr><td>Creatinine [Mass/volume] in Blood</td><td><strong>3.4 H</strong></td><td>0.6 - 1.1</td><td>mg/dL</td></tr><tr><td>Calcium [Mass/volume] in Blood</td><td>9.8</td><td>8.5 - 10.5</td><td>mg/dL</td></tr><tr><td>Sodium [Moles/volume] in Blood</td><td>142.9</td><td>135 - 145</td><td>mmol/L</td></tr><tr><td>Potassium [Moles/volume] in Blood</td><td>4.3</td><td>3.5 - 5.1</td><td>mmol/L</td></tr><tr><td>Chloride [Moles/volume] in Blood</td><td>104.7</td><td>98 - 108</td><td>mmol/L</td></tr><tr><td>Carbon dioxide, total [Moles/volume] in Blood</td><td>23.0</td><td>22 - 29</td><td>mmol/L</td></tr></tbody></table></div>"
                },
                "title": "Chemistry"
              },
              {
                "code": {
                  "coding": [
                    {
                      "code": "$18729-4",
                      "system": "http://loinc.org",
                      "display": "Urinalysis studies (set)"
                    }
                  ],
                  "text": "Urinalysis"
                },
                "entry": [
                  {
                    "reference": "urn:uuid:9c9b0b2a-3820-45d7-b361-b7e193f4734c"
                  },
                  {
                    "reference": "urn:uuid:c0edb68e-8cfd-43f5-94b5-e187ed7d7490"
                  },
                  {
                    "reference": "urn:uuid:217a559e-9fea-4b6d-b05f-9f1d8091567b"
                  },
                  {
                    "reference": "urn:uuid:ee5be4d2-88be-42c4-b07a-c7cd73467d18"
                  },
                  {
                    "reference": "urn:uuid:377fd22e-1743-4c39-aa01-0f654ac3688e"
                  },
                  {
                    "reference": "urn:uuid:9bdcd4e1-06d2-4c7b-9992-dba2929793c3"
                  },
                  {
                    "reference": "urn:uuid:b3b9d0bf-e94e-4a75-ab3e-15f6291459ca"
                  },
                  {
                    "reference": "urn:uuid:cd42951f-cb96-4253-8986-314bb28d6026"
                  },
                  {
                    "reference": "urn:uuid:00c494cd-25d1-4e87-80df-9422e431d0e2"
                  },
                  {
                    "reference": "urn:uuid:4d03aa67-5220-4ca5-bd96-31dac32f8b3a"
                  },
                  {
                    "reference": "urn:uuid:08328af4-2c3f-46b1-a43f-604c2a4fc6fe"
                  },
                  {
                    "reference": "urn:uuid:da5ff8fb-c0cf-4162-89d1-2b6665bfeb82"
                  }
                ],
                "text": {
                  "status": "generated",
                  "div": "<div xmlns=\"http://www.w3.org/1999/xhtml\"><h3>Urinalysis</h3><table class=\"hl7__eu__lab__report\"><thead><tr><th>Test</th><th>23-APR-2019</th><th>Reference&#xA0;Range</th><th>Unit</th></tr></thead><tbody><tr><td>Glucose [Mass/volume] in Urine by Test strip</td><td><strong>1.8 H</strong></td><td>0.8 - 0</td><td>mg/dL</td></tr><tr><td>Glucose [Presence] in Urine by Test strip</td><td>++</td><td></td><td></td></tr><tr><td>Bilirubin.total [Mass/volume] in Urine by Test strip</td><td>0.5</td><td>0 - 1</td><td>mg/dL</td></tr><tr><td>Bilirubin.total [Presence] in Urine by Test strip</td><td>Finding of bilirubin in urine</td><td></td><td></td></tr><tr><td>Ketones [Mass/volume] in Urine by Test strip</td><td><strong>6.1 H</strong></td><td>0 - 4</td><td>mg/dL</td></tr><tr><td>Specific gravity of Urine by Test strip</td><td><strong>1.0 L</strong></td><td>1.005 - 1.03</td><td>{nominal}</td></tr><tr><td>pH of Urine by Test strip</td><td>5.5</td><td>4.6 - 7</td><td>pH</td></tr><tr><td>Protein [Mass/volume] in Urine by Test strip</td><td><strong>371.1 H</strong></td><td>0 - 14</td><td>mg/dL</td></tr><tr><td>Protein [Presence] in Urine by Test strip</td><td>Urine protein test = ++</td><td></td><td></td></tr><tr><td>Nitrite [Presence] in Urine by Test strip</td><td>Urine nitrite negative</td><td></td><td></td></tr><tr><td>Hemoglobin [Presence] in Urine by Test strip</td><td>Urine blood test = negative</td><td></td><td></td></tr><tr><td>Leukocyte esterase [Presence] in Urine by Test strip</td><td>Urine leukocyte test negative</td><td></td><td></td></tr></tbody></table></div>"
                },
                "title": "Urinalysis"
              },
              {
                "code": {
                  "coding": [
                    {
                      "code": "$LP7846-1",
                      "system": "http://loinc.org",
                      "display": "Specimen information"
                    }
                  ],
                  "text": "Specimen information"
                },
                "entry": [
                  {
                    "reference": "urn:uuid:f8a89b0e-7bde-4fc8-9c4f-f745eebc857d"
                  },
                  {
                    "reference": "urn:uuid:c9481e5a-6d32-4c75-be0a-3b7edaa902f7"
                  },
                  {
                    "reference": "urn:uuid:f931a1f7-70c8-4e84-ba7c-f8f09afa94a4"
                  },
                  {
                    "reference": "urn:uuid:861dfa3f-7a5d-4e95-885a-9b3326624b8f"
                  }
                ],
                "text": {
                  "status": "generated",
                  "div": "<div xmlns=\"http://www.w3.org/1999/xhtml\"><h3>Specimen information</h3><table class=\"hl7__eu__lab__report\"><thead><tr><th>Test</th><th>23-APR-2019</th><th>Specimen</th><th></th></tr></thead><tbody><tr><td>Appearance of Urine</td><td>Cloudy urine</td><td>Urine</td><td></td></tr><tr><td>Odor of Urine</td><td>Urine smell ammoniacal</td><td>Urine</td><td></td></tr><tr><td>Clarity of Urine</td><td>Translucent</td><td>Urine</td><td></td></tr><tr><td>Color of Urine</td><td>Brown color</td><td>Urine</td><td></td></tr></tbody></table></div>"
                },
                "title": "Specimen information"
              }
            ],
            "title": "Laboratory Report"
          },
          {
            "text": {
              "status": "generated",
              "div": "<div xmlns=\"http://www.w3.org/1999/xhtml\"><h3>Annotation</h3><table class=\"hl7__eu__lab__report\"><tr><th>Conclusion and Recommendations based on this report and previous findings known to us</th></tr><tr><td>The patient shows significantly elevated creatinine, marked proteinuria, glucosuria, and ketonuria, with low urine specific gravity and abnormal urine appearance, suggesting impaired renal function, likely chronic kidney disease with possible nephrotic features and glycosuria not explained by low-normal blood glucose and low HbA1c. No evidence of urinary tract infection. Further nephrological evaluation and assessment for possible underlying diabetes or other metabolic disorders are recommended.</td></tr></table></div>"
            },
            "code": {
              "coding": [
                {
                  "system": "http://loinc.org",
                  "code": "48767-8",
                  "display": "Annotation comment"
                }
              ]
            },
            "title": "Annotation comment"
          }
        ],
        "status": "final",
        "subject": {
          "reference": "urn:uuid:ef245c67-ab38-416a-8e57-16cd98255691",
          "display": "Meaghan Neary"
        },
        "date": "2019-04-23T00:11:04Z",
        "title": "Laboratory Report",
        "confidentiality": "N"
      }
    },
    {
      "fullUrl": "urn:uuid:48a52d1c-8602-44c0-b0fc-05f82c3cd8af",
      "resource": {
        "resourceType": "DiagnosticReport",
        "id": "48a52d1c-8602-44c0-b0fc-05f82c3cd8af",
        "meta": {
          "profile": [
            "http://hl7.eu/fhir/laboratory/StructureDefinition/DiagnosticReport-eu-lab"
          ]
        },
        "identifier": [
          {
            "assigner": {
              "display": "HL7 Europe"
            },
            "system": "urn:oid:2.16.840.1.113883.2.51.999",
            "value": "05fb75df-1f1a-49c9-8f38-f429f502c7ef"
          }
        ],
        "extension": [
          {
            "url": "http://hl7.org/fhir/5.0/StructureDefinition/extension-DiagnosticReport.composition",
            "valueReference": {
              "reference": "urn:uuid:7db813f2-8377-4daa-8d08-6cf7331013f8"
            }
          }
        ],
        "category": [
          {
            "coding": [
              {
                "code": "26436-6",
                "system": "http://loinc.org",
                "display": "Laboratory studies (set)"
              }
            ]
          }
        ],
        "specimen": [
          {
            "reference": "urn:uuid:04bfac56-ea32-425f-b543-9bac149369b3"
          },
          {
            "reference": "urn:uuid:a581f6cd-cbeb-41c2-a5ca-dc02ccfa4428"
          },
          {
            "reference": "urn:uuid:bcd42d34-671f-4848-aae1-c725e5e84840"
          }
        ],
        "result": [
          {
            "reference": "urn:uuid:ada1d358-a2e8-4a61-960a-086d92be148c"
          },
          {
            "reference": "urn:uuid:67c43aaa-4411-4a48-b87c-a921b621b886"
          },
          {
            "reference": "urn:uuid:ded59be7-9c02-4443-82a4-ff3f9221a96f"
          },
          {
            "reference": "urn:uuid:af86be13-06c7-4d50-b259-225edfba044f"
          },
          {
            "reference": "urn:uuid:91669839-6f26-4ef9-b156-a213b15a4f63"
          },
          {
            "reference": "urn:uuid:c94e24cb-df69-489c-872b-78a1c1d40be2"
          },
          {
            "reference": "urn:uuid:0a53d49a-b60d-4fdc-895c-efaf7712d120"
          },
          {
            "reference": "urn:uuid:00f23dce-8ec5-4d1a-9b43-2bedf73c08ac"
          },
          {
            "reference": "urn:uuid:f8a89b0e-7bde-4fc8-9c4f-f745eebc857d"
          },
          {
            "reference": "urn:uuid:c9481e5a-6d32-4c75-be0a-3b7edaa902f7"
          },
          {
            "reference": "urn:uuid:f931a1f7-70c8-4e84-ba7c-f8f09afa94a4"
          },
          {
            "reference": "urn:uuid:861dfa3f-7a5d-4e95-885a-9b3326624b8f"
          },
          {
            "reference": "urn:uuid:9c9b0b2a-3820-45d7-b361-b7e193f4734c"
          },
          {
            "reference": "urn:uuid:c0edb68e-8cfd-43f5-94b5-e187ed7d7490"
          },
          {
            "reference": "urn:uuid:217a559e-9fea-4b6d-b05f-9f1d8091567b"
          },
          {
            "reference": "urn:uuid:ee5be4d2-88be-42c4-b07a-c7cd73467d18"
          },
          {
            "reference": "urn:uuid:377fd22e-1743-4c39-aa01-0f654ac3688e"
          },
          {
            "reference": "urn:uuid:c8bcdf57-a711-488d-9a12-652ec7412fe4"
          },
          {
            "reference": "urn:uuid:9bdcd4e1-06d2-4c7b-9992-dba2929793c3"
          },
          {
            "reference": "urn:uuid:b3b9d0bf-e94e-4a75-ab3e-15f6291459ca"
          },
          {
            "reference": "urn:uuid:cd42951f-cb96-4253-8986-314bb28d6026"
          },
          {
            "reference": "urn:uuid:00c494cd-25d1-4e87-80df-9422e431d0e2"
          },
          {
            "reference": "urn:uuid:4d03aa67-5220-4ca5-bd96-31dac32f8b3a"
          },
          {
            "reference": "urn:uuid:08328af4-2c3f-46b1-a43f-604c2a4fc6fe"
          },
          {
            "reference": "urn:uuid:da5ff8fb-c0cf-4162-89d1-2b6665bfeb82"
          },
          {
            "reference": "urn:uuid:c52766c3-5d35-4f88-821c-2ca9a49cbfd8"
          },
          {
            "reference": "urn:uuid:849eeb89-4532-489d-a179-cc82f045f730"
          },
          {
            "reference": "urn:uuid:a1389223-2d72-41e3-a474-3abe3ad5f010"
          },
          {
            "reference": "urn:uuid:d64bc45b-77b9-4817-8485-90106b4ad822"
          },
          {
            "reference": "urn:uuid:f55bd5f8-4a22-4346-a711-ee935ca50e21"
          },
          {
            "reference": "urn:uuid:e4f64859-cad6-4a3c-b703-dd07cc49104b"
          },
          {
            "reference": "urn:uuid:820bdfd5-faf1-4c2b-a9b5-1761e1d372ed"
          },
          {
            "reference": "urn:uuid:85e5dc6c-2473-41f5-9195-9854599a5711"
          },
          {
            "reference": "urn:uuid:61afd5d2-d2f9-4e67-af9c-1ca437bc0304"
          }
        ],
        "status": "registered",
        "code": {
          "coding": [
            {
              "code": "11502-2",
              "system": "http://loinc.org",
              "display": "Laboratory report"
            }
          ]
        },
        "subject": {
          "reference": "urn:uuid:ef245c67-ab38-416a-8e57-16cd98255691",
          "display": "Meaghan Neary"
        }
      }
    },
    {
      "fullUrl": "urn:uuid:ef245c67-ab38-416a-8e57-16cd98255691",
      "resource": {
        "resourceType": "Patient",
        "id": "ef245c67-ab38-416a-8e57-16cd98255691",
        "meta": {
          "security": [
            {
              "system": "http://terminology.hl7.org/CodeSystem/v3-ActReason",
              "code": "HTEST"
            },
            {
              "system": "http://terminology.hl7.org/CodeSystem/v3-ActReason",
              "code": "TRAIN"
            }
          ],
          "tag": [
            {
              "system": "https://synderai.net/fhir/CodeSystem/tags",
              "code": "synthetic",
              "display": "SYNDERAI Synthetic data"
            }
          ],
          "profile": [
            "http://hl7.eu/fhir/base/StructureDefinition/patient-eu-core"
          ]
        },
        "identifier": [
          {
            "type": {
              "coding": [
                {
                  "code": "PT",
                  "system": "http://terminology.hl7.org/CodeSystem/v2-0203"
                }
              ]
            },
            "system": "http://ec.europa.eu/identifier/eci",
            "value": "1586-567257-8"
          },
          {
            "type": {
              "coding": [
                {
                  "code": "MR",
                  "system": "http://terminology.hl7.org/CodeSystem/v2-0203"
                }
              ]
            },
            "system": "http://local.setting.eu/identifier",
            "value": "443e6379-f231-b364-3ccb-644740a1aa2a"
          }
        ],
        "name": [
          {
            "family": "Neary"
          },
          {
            "given": [
              "Meaghan"
            ]
          },
          {
            "text": "Meaghan Neary"
          }
        ],
        "address": [
          {
            "line": [
              "64 Linskey Street"
            ],
            "use": "home",
            "type": "physical",
            "postalCode": "D02",
            "city": "Dublin",
            "country": "Ireland"
          }
        ],
        "telecom": [
          {
            "system": "phone",
            "value": "001-967-573-0911x465"
          }
        ],
        "extension": [
          {
            "url": "http://hl7.org/fhir/StructureDefinition/patient-nationality",
            "valueCodeableConcept": {
              "coding": [
                {
                  "code": "IE",
                  "system": "http://hl7.org/fhir/ValueSet/country"
                }
              ]
            }
          }
        ],
        "text": {
          "status": "generated",
          "div": "<div xmlns=\"http://www.w3.org/1999/xhtml\"><table class=\"hl7__ips\"><tr><td>Meaghan Neary</td><td>female</td><td>19-Dec-1960</td></tr></table></div>"
        },
        "gender": "female",
        "birthDate": "1960-12-19"
      }
    },
    {
      "fullUrl": "urn:uuid:e33587f8-4c94-4825-850f-eeac60afeddb",
      "resource": {
        "resourceType": "ServiceRequest",
        "id": "e33587f8-4c94-4825-850f-eeac60afeddb",
        "meta": {
          "profile": [
            "http://hl7.eu/fhir/laboratory/StructureDefinition/ServiceRequest-eu-lab"
          ]
        },
        "identifier": [
          {
            "system": "http://example.org",
            "value": "d417a23a-206f-420c-b435-714ac9b9056d"
          }
        ],
        "specimen": [
          {
            "reference": "urn:uuid:04bfac56-ea32-425f-b543-9bac149369b3"
          },
          {
            "reference": "urn:uuid:a581f6cd-cbeb-41c2-a5ca-dc02ccfa4428"
          },
          {
            "reference": "urn:uuid:bcd42d34-671f-4848-aae1-c725e5e84840"
          }
        ],
        "reasonCode": [
          {
            "coding": [
              {
                "code": "55822004",
                "system": "http://snomed.info/sct",
                "display": "Hyperlipidemia"
              }
            ]
          },
          {
            "coding": [
              {
                "code": "433144002",
                "system": "http://snomed.info/sct",
                "display": "Chronic kidney disease stage 3"
              }
            ]
          },
          {
            "coding": [
              {
                "code": "157141000119108",
                "system": "http://snomed.info/sct",
                "display": "Proteinuria due to type 2 diabetes mellitus"
              }
            ]
          },
          {
            "coding": [
              {
                "code": "431856006",
                "system": "http://snomed.info/sct",
                "display": "Chronic kidney disease stage 2"
              }
            ]
          },
          {
            "coding": [
              {
                "code": "90781000119102",
                "system": "http://snomed.info/sct",
                "display": "Microalbuminuria due to type 2 diabetes mellitus"
              }
            ]
          },
          {
            "coding": [
              {
                "code": "127013003",
                "system": "http://snomed.info/sct",
                "display": "Disorder of kidney due to diabetes mellitus"
              }
            ]
          },
          {
            "coding": [
              {
                "code": "431855005",
                "system": "http://snomed.info/sct",
                "display": "Chronic kidney disease stage 1"
              }
            ]
          },
          {
            "coding": [
              {
                "code": "237602007",
                "system": "http://snomed.info/sct",
                "display": "Metabolic syndrome X"
              }
            ]
          },
          {
            "coding": [
              {
                "code": "271737000",
                "system": "http://snomed.info/sct",
                "display": "Anemia"
              }
            ]
          },
          {
            "coding": [
              {
                "code": "15777000",
                "system": "http://snomed.info/sct",
                "display": "Prediabetes"
              }
            ]
          },
          {
            "coding": [
              {
                "code": "59621000",
                "system": "http://snomed.info/sct",
                "display": "Essential hypertension"
              }
            ]
          }
        ],
        "status": "active",
        "intent": "order",
        "code": {
          "coding": [
            {
              "code": "108252007",
              "system": "http://snomed.info/sct",
              "display": "Laboratory procedure"
            }
          ]
        },
        "subject": {
          "reference": "urn:uuid:ef245c67-ab38-416a-8e57-16cd98255691",
          "display": "Meaghan Neary"
        },
        "requester": {
          "reference": "urn:uuid:4ef0bb84-2712-4311-b850-2827f38f1078"
        }
      }
    },
    {
      "fullUrl": "urn:uuid:4ef0bb84-2712-4311-b850-2827f38f1078",
      "resource": {
        "resourceType": "PractitionerRole",
        "id": "4ef0bb84-2712-4311-b850-2827f38f1078",
        "meta": {
          "profile": [
            "http://hl7.eu/fhir/base/StructureDefinition/practitionerRole-eu"
          ]
        },
        "text": {
          "status": "generated",
          "div": "<div xmlns=\"http://www.w3.org/1999/xhtml\">Provider Role Id: 4ef0bb84-2712-4311-b850-2827f38f1078</div>"
        },
        "organization": {
          "reference": "urn:uuid:c4a20f35-e8cf-4137-b2c3-1a8e94b9ea03"
        }
      }
    },
    {
      "fullUrl": "urn:uuid:c4a20f35-e8cf-4137-b2c3-1a8e94b9ea03",
      "resource": {
        "resourceType": "Organization",
        "id": "c4a20f35-e8cf-4137-b2c3-1a8e94b9ea03",
        "meta": {
          "profile": [
            "http://hl7.eu/fhir/base/StructureDefinition/organization-eu"
          ]
        },
        "identifier": [
          {
            "assigner": {
              "display": "HL7 Europe"
            },
            "system": "urn:oid:2.16.840.1.113883.2.51.999",
            "value": "a81fd73c-18d9-4fa2-aea7-58269f8dd859"
          }
        ],
        "address": [
          {
            "line": [
              "Parnell Square West nan"
            ],
            "city": "Dublin",
            "postalCode": "D01",
            "country": "Ireland"
          }
        ],
        "text": {
          "status": "generated",
          "div": "<div xmlns=\"http://www.w3.org/1999/xhtml\">Provider Organization: Rotunda Hospital</div>"
        },
        "name": "Rotunda Hospital"
      }
    },
    {
      "fullUrl": "urn:uuid:04bfac56-ea32-425f-b543-9bac149369b3",
      "resource": {
        "resourceType": "Specimen",
        "id": "04bfac56-ea32-425f-b543-9bac149369b3",
        "meta": {
          "profile": [
            "http://hl7.eu/fhir/laboratory/StructureDefinition/Specimen-eu-lab"
          ]
        },
        "collection": {
          "collectedDateTime": "2019-04-22"
        },
        "text": {
          "status": "generated",
          "div": "<div xmlns=\"http://www.w3.org/1999/xhtml\"><table class=\"hl7__eu__lab__report\"><tr><th>Specimen</th><th>Collection Date</th></tr><tr><td>Acellular blood (serum or plasma) specimen</td><td><span class=\"nb\">22-Apr-2019</span></td></tr></table></div>"
        },
        "type": {
          "coding": [
            {
              "code": "122592007",
              "system": "http://snomed.info/sct",
              "display": "Acellular blood (serum or plasma) specimen"
            }
          ]
        }
      }
    },
    {
      "fullUrl": "urn:uuid:a581f6cd-cbeb-41c2-a5ca-dc02ccfa4428",
      "resource": {
        "resourceType": "Specimen",
        "id": "a581f6cd-cbeb-41c2-a5ca-dc02ccfa4428",
        "meta": {
          "profile": [
            "http://hl7.eu/fhir/laboratory/StructureDefinition/Specimen-eu-lab"
          ]
        },
        "collection": {
          "collectedDateTime": "2019-04-22"
        },
        "text": {
          "status": "generated",
          "div": "<div xmlns=\"http://www.w3.org/1999/xhtml\"><table class=\"hl7__eu__lab__report\"><tr><th>Specimen</th><th>Collection Date</th></tr><tr><td>Urine specimen</td><td><span class=\"nb\">22-Apr-2019</span></td></tr></table></div>"
        },
        "type": {
          "coding": [
            {
              "code": "122575003",
              "system": "http://snomed.info/sct",
              "display": "Urine specimen"
            }
          ]
        }
      }
    },
    {
      "fullUrl": "urn:uuid:bcd42d34-671f-4848-aae1-c725e5e84840",
      "resource": {
        "resourceType": "Specimen",
        "id": "bcd42d34-671f-4848-aae1-c725e5e84840",
        "meta": {
          "profile": [
            "http://hl7.eu/fhir/laboratory/StructureDefinition/Specimen-eu-lab"
          ]
        },
        "collection": {
          "collectedDateTime": "2019-04-22"
        },
        "text": {
          "status": "generated",
          "div": "<div xmlns=\"http://www.w3.org/1999/xhtml\"><table class=\"hl7__eu__lab__report\"><tr><th>Specimen</th><th>Collection Date</th></tr><tr><td>Whole blood specimen (specimen)</td><td><span class=\"nb\">22-Apr-2019</span></td></tr></table></div>"
        },
        "type": {
          "coding": [
            {
              "code": "258580003",
              "system": "http://snomed.info/sct",
              "display": "Whole blood specimen (specimen)"
            }
          ]
        }
      }
    },
    {
      "fullUrl": "urn:uuid:ada1d358-a2e8-4a61-960a-086d92be148c",
      "resource": {
        "resourceType": "Observation",
        "id": "ada1d358-a2e8-4a61-960a-086d92be148c",
        "meta": {
          "profile": [
            "http://hl7.eu/fhir/laboratory/StructureDefinition/Observation-resultslab-eu-lab"
          ]
        },
        "performer": [
          {
            "display": "The Central European Lab"
          }
        ],
        "category": [
          {
            "coding": [
              {
                "system": "http://terminology.hl7.org/CodeSystem/observation-category",
                "code": "laboratory"
              }
            ]
          }
        ],
        "code": {
          "coding": [
            {
              "code": "2345-7",
              "system": "http://loinc.org",
              "display": "Glucose [Mass/volume] in Serum or Plasma"
            }
          ],
          "text": "Glucose [Mass/volume] in Serum or Plasma"
        },
        "valueQuantity": {
          "system": "http://unitsofmeasure.org",
          "value": 71.9,
          "unit": "mg/dL",
          "code": "mg/dL"
        },
        "referenceRange": [
          {
            "low": {
              "value": 70,
              "code": "mg/dL",
              "system": "http://unitsofmeasure.org"
            }
          },
          {
            "high": {
              "value": 99,
              "code": "mg/dL",
              "system": "http://unitsofmeasure.org"
            }
          }
        ],
        "text": {
          "status": "generated",
          "div": "<div xmlns=\"http://www.w3.org/1999/xhtml\"><table class=\"hl7__eu__lab__report\"><tr><th>Test</th><th>23-Apr-2019</th><th>Reference&#xA0;Range</th><th>Unit</th></tr><tr><td>Glucose [Mass/volume] in Serum or Plasma</td><td>71.9</td><td>70 - 99</td><td></td><td>mg/dL</td></tr></table></div>"
        },
        "status": "final",
        "subject": {
          "reference": "urn:uuid:ef245c67-ab38-416a-8e57-16cd98255691",
          "display": "Meaghan Neary"
        },
        "effectiveDateTime": "2019-04-22T22:11:04Z",
        "specimen": {
          "reference": "urn:uuid:04bfac56-ea32-425f-b543-9bac149369b3"
        }
      }
    },
    {
      "fullUrl": "urn:uuid:67c43aaa-4411-4a48-b87c-a921b621b886",
      "resource": {
        "resourceType": "Observation",
        "id": "67c43aaa-4411-4a48-b87c-a921b621b886",
        "meta": {
          "profile": [
            "http://hl7.eu/fhir/laboratory/StructureDefinition/Observation-resultslab-eu-lab"
          ]
        },
        "performer": [
          {
            "display": "The Central European Lab"
          }
        ],
        "category": [
          {
            "coding": [
              {
                "system": "http://terminology.hl7.org/CodeSystem/observation-category",
                "code": "laboratory"
              }
            ]
          }
        ],
        "code": {
          "coding": [
            {
              "code": "3094-0",
              "system": "http://loinc.org",
              "display": "Urea nitrogen [Mass/volume] in Serum or Plasma"
            }
          ],
          "text": "Urea nitrogen [Mass/volume] in Serum or Plasma"
        },
        "valueQuantity": {
          "system": "http://unitsofmeasure.org",
          "value": 8.4,
          "unit": "mg/dL",
          "code": "mg/dL"
        },
        "referenceRange": [
          {
            "low": {
              "value": 7,
              "code": "mg/dL",
              "system": "http://unitsofmeasure.org"
            }
          },
          {
            "high": {
              "value": 50,
              "code": "mg/dL",
              "system": "http://unitsofmeasure.org"
            }
          }
        ],
        "text": {
          "status": "generated",
          "div": "<div xmlns=\"http://www.w3.org/1999/xhtml\"><table class=\"hl7__eu__lab__report\"><tr><th>Test</th><th>23-Apr-2019</th><th>Reference&#xA0;Range</th><th>Unit</th></tr><tr><td>Urea nitrogen [Mass/volume] in Serum or Plasma</td><td>8.4</td><td>7 - 50</td><td></td><td>mg/dL</td></tr></table></div>"
        },
        "status": "final",
        "subject": {
          "reference": "urn:uuid:ef245c67-ab38-416a-8e57-16cd98255691",
          "display": "Meaghan Neary"
        },
        "effectiveDateTime": "2019-04-22T22:11:04Z",
        "specimen": {
          "reference": "urn:uuid:04bfac56-ea32-425f-b543-9bac149369b3"
        }
      }
    },
    {
      "fullUrl": "urn:uuid:ded59be7-9c02-4443-82a4-ff3f9221a96f",
      "resource": {
        "resourceType": "Observation",
        "id": "ded59be7-9c02-4443-82a4-ff3f9221a96f",
        "meta": {
          "profile": [
            "http://hl7.eu/fhir/laboratory/StructureDefinition/Observation-resultslab-eu-lab"
          ]
        },
        "performer": [
          {
            "display": "The Central European Lab"
          }
        ],
        "category": [
          {
            "coding": [
              {
                "system": "http://terminology.hl7.org/CodeSystem/observation-category",
                "code": "laboratory"
              }
            ]
          }
        ],
        "code": {
          "coding": [
            {
              "code": "2160-0",
              "system": "http://loinc.org",
              "display": "Creatinine [Mass/volume] in Serum or Plasma"
            }
          ],
          "text": "Creatinine [Mass/volume] in Serum or Plasma"
        },
        "valueQuantity": {
          "system": "http://unitsofmeasure.org",
          "value": 2,
          "unit": "mg/dL",
          "code": "mg/dL"
        },
        "referenceRange": [
          {
            "low": {
              "value": 0.6,
              "code": "mg/dL",
              "system": "http://unitsofmeasure.org"
            }
          },
          {
            "high": {
              "value": 1.1,
              "code": "mg/dL",
              "system": "http://unitsofmeasure.org"
            }
          }
        ],
        "interpretation": [
          {
            "coding": [
              {
                "code": "H",
                "system": "http://terminology.hl7.org/CodeSystem/v3-ObservationInterpretation",
                "display": "High"
              }
            ]
          }
        ],
        "text": {
          "status": "generated",
          "div": "<div xmlns=\"http://www.w3.org/1999/xhtml\"><table class=\"hl7__eu__lab__report\"><tr><th>Test</th><th>23-Apr-2019</th><th>Reference&#xA0;Range</th><th>Unit</th></tr><tr><td>Creatinine [Mass/volume] in Serum or Plasma</td><td>2.0</td><td>0.6 - 1.1</td><td>H</td><td>mg/dL</td></tr></table></div>"
        },
        "status": "final",
        "subject": {
          "reference": "urn:uuid:ef245c67-ab38-416a-8e57-16cd98255691",
          "display": "Meaghan Neary"
        },
        "effectiveDateTime": "2019-04-22T22:11:04Z",
        "specimen": {
          "reference": "urn:uuid:04bfac56-ea32-425f-b543-9bac149369b3"
        }
      }
    },
    {
      "fullUrl": "urn:uuid:af86be13-06c7-4d50-b259-225edfba044f",
      "resource": {
        "resourceType": "Observation",
        "id": "af86be13-06c7-4d50-b259-225edfba044f",
        "meta": {
          "profile": [
            "http://hl7.eu/fhir/laboratory/StructureDefinition/Observation-resultslab-eu-lab"
          ]
        },
        "performer": [
          {
            "display": "The Central European Lab"
          }
        ],
        "category": [
          {
            "coding": [
              {
                "system": "http://terminology.hl7.org/CodeSystem/observation-category",
                "code": "laboratory"
              }
            ]
          }
        ],
        "code": {
          "coding": [
            {
              "code": "17861-6",
              "system": "http://loinc.org",
              "display": "Calcium [Mass/volume] in Serum or Plasma"
            }
          ],
          "text": "Calcium [Mass/volume] in Serum or Plasma"
        },
        "valueQuantity": {
          "system": "http://unitsofmeasure.org",
          "value": 9.8,
          "unit": "mg/dL",
          "code": "mg/dL"
        },
        "referenceRange": [
          {
            "low": {
              "value": 8.6,
              "code": "mg/dL",
              "system": "http://unitsofmeasure.org"
            }
          },
          {
            "high": {
              "value": 10.4,
              "code": "mg/dL",
              "system": "http://unitsofmeasure.org"
            }
          }
        ],
        "text": {
          "status": "generated",
          "div": "<div xmlns=\"http://www.w3.org/1999/xhtml\"><table class=\"hl7__eu__lab__report\"><tr><th>Test</th><th>23-Apr-2019</th><th>Reference&#xA0;Range</th><th>Unit</th></tr><tr><td>Calcium [Mass/volume] in Serum or Plasma</td><td>9.8</td><td>8.6 - 10.4</td><td></td><td>mg/dL</td></tr></table></div>"
        },
        "status": "final",
        "subject": {
          "reference": "urn:uuid:ef245c67-ab38-416a-8e57-16cd98255691",
          "display": "Meaghan Neary"
        },
        "effectiveDateTime": "2019-04-22T22:11:04Z",
        "specimen": {
          "reference": "urn:uuid:04bfac56-ea32-425f-b543-9bac149369b3"
        }
      }
    },
    {
      "fullUrl": "urn:uuid:91669839-6f26-4ef9-b156-a213b15a4f63",
      "resource": {
        "resourceType": "Observation",
        "id": "91669839-6f26-4ef9-b156-a213b15a4f63",
        "meta": {
          "profile": [
            "http://hl7.eu/fhir/laboratory/StructureDefinition/Observation-resultslab-eu-lab"
          ]
        },
        "performer": [
          {
            "display": "The Central European Lab"
          }
        ],
        "category": [
          {
            "coding": [
              {
                "system": "http://terminology.hl7.org/CodeSystem/observation-category",
                "code": "laboratory"
              }
            ]
          }
        ],
        "code": {
          "coding": [
            {
              "code": "2951-2",
              "system": "http://loinc.org",
              "display": "Sodium [Moles/volume] in Serum or Plasma"
            }
          ],
          "text": "Sodium [Moles/volume] in Serum or Plasma"
        },
        "valueQuantity": {
          "system": "http://unitsofmeasure.org",
          "value": 142.9,
          "unit": "mmol/L",
          "code": "mmol/L"
        },
        "referenceRange": [
          {
            "low": {
              "value": 135,
              "code": "mmol/L",
              "system": "http://unitsofmeasure.org"
            }
          },
          {
            "high": {
              "value": 145,
              "code": "mmol/L",
              "system": "http://unitsofmeasure.org"
            }
          }
        ],
        "text": {
          "status": "generated",
          "div": "<div xmlns=\"http://www.w3.org/1999/xhtml\"><table class=\"hl7__eu__lab__report\"><tr><th>Test</th><th>23-Apr-2019</th><th>Reference&#xA0;Range</th><th>Unit</th></tr><tr><td>Sodium [Moles/volume] in Serum or Plasma</td><td>142.9</td><td>135 - 145</td><td></td><td>mmol/L</td></tr></table></div>"
        },
        "status": "final",
        "subject": {
          "reference": "urn:uuid:ef245c67-ab38-416a-8e57-16cd98255691",
          "display": "Meaghan Neary"
        },
        "effectiveDateTime": "2019-04-22T22:11:04Z",
        "specimen": {
          "reference": "urn:uuid:04bfac56-ea32-425f-b543-9bac149369b3"
        }
      }
    },
    {
      "fullUrl": "urn:uuid:c94e24cb-df69-489c-872b-78a1c1d40be2",
      "resource": {
        "resourceType": "Observation",
        "id": "c94e24cb-df69-489c-872b-78a1c1d40be2",
        "meta": {
          "profile": [
            "http://hl7.eu/fhir/laboratory/StructureDefinition/Observation-resultslab-eu-lab"
          ]
        },
        "performer": [
          {
            "display": "The Central European Lab"
          }
        ],
        "category": [
          {
            "coding": [
              {
                "system": "http://terminology.hl7.org/CodeSystem/observation-category",
                "code": "laboratory"
              }
            ]
          }
        ],
        "code": {
          "coding": [
            {
              "code": "2823-3",
              "system": "http://loinc.org",
              "display": "Potassium [Moles/volume] in Serum or Plasma"
            }
          ],
          "text": "Potassium [Moles/volume] in Serum or Plasma"
        },
        "valueQuantity": {
          "system": "http://unitsofmeasure.org",
          "value": 4.3,
          "unit": "mmol/L",
          "code": "mmol/L"
        },
        "referenceRange": [
          {
            "low": {
              "value": 3.5,
              "code": "mmol/L",
              "system": "http://unitsofmeasure.org"
            }
          },
          {
            "high": {
              "value": 5.1,
              "code": "mmol/L",
              "system": "http://unitsofmeasure.org"
            }
          }
        ],
        "text": {
          "status": "generated",
          "div": "<div xmlns=\"http://www.w3.org/1999/xhtml\"><table class=\"hl7__eu__lab__report\"><tr><th>Test</th><th>23-Apr-2019</th><th>Reference&#xA0;Range</th><th>Unit</th></tr><tr><td>Potassium [Moles/volume] in Serum or Plasma</td><td>4.3</td><td>3.5 - 5.1</td><td></td><td>mmol/L</td></tr></table></div>"
        },
        "status": "final",
        "subject": {
          "reference": "urn:uuid:ef245c67-ab38-416a-8e57-16cd98255691",
          "display": "Meaghan Neary"
        },
        "effectiveDateTime": "2019-04-22T22:11:04Z",
        "specimen": {
          "reference": "urn:uuid:04bfac56-ea32-425f-b543-9bac149369b3"
        }
      }
    },
    {
      "fullUrl": "urn:uuid:0a53d49a-b60d-4fdc-895c-efaf7712d120",
      "resource": {
        "resourceType": "Observation",
        "id": "0a53d49a-b60d-4fdc-895c-efaf7712d120",
        "meta": {
          "profile": [
            "http://hl7.eu/fhir/laboratory/StructureDefinition/Observation-resultslab-eu-lab"
          ]
        },
        "performer": [
          {
            "display": "The Central European Lab"
          }
        ],
        "category": [
          {
            "coding": [
              {
                "system": "http://terminology.hl7.org/CodeSystem/observation-category",
                "code": "laboratory"
              }
            ]
          }
        ],
        "code": {
          "coding": [
            {
              "code": "2075-0",
              "system": "http://loinc.org",
              "display": "Chloride [Moles/volume] in Serum or Plasma"
            }
          ],
          "text": "Chloride [Moles/volume] in Serum or Plasma"
        },
        "valueQuantity": {
          "system": "http://unitsofmeasure.org",
          "value": 104.7,
          "unit": "mmol/L",
          "code": "mmol/L"
        },
        "referenceRange": [
          {
            "low": {
              "value": 98,
              "code": "mmol/L",
              "system": "http://unitsofmeasure.org"
            }
          },
          {
            "high": {
              "value": 108,
              "code": "mmol/L",
              "system": "http://unitsofmeasure.org"
            }
          }
        ],
        "text": {
          "status": "generated",
          "div": "<div xmlns=\"http://www.w3.org/1999/xhtml\"><table class=\"hl7__eu__lab__report\"><tr><th>Test</th><th>23-Apr-2019</th><th>Reference&#xA0;Range</th><th>Unit</th></tr><tr><td>Chloride [Moles/volume] in Serum or Plasma</td><td>104.7</td><td>98 - 108</td><td></td><td>mmol/L</td></tr></table></div>"
        },
        "status": "final",
        "subject": {
          "reference": "urn:uuid:ef245c67-ab38-416a-8e57-16cd98255691",
          "display": "Meaghan Neary"
        },
        "effectiveDateTime": "2019-04-22T22:11:04Z",
        "specimen": {
          "reference": "urn:uuid:04bfac56-ea32-425f-b543-9bac149369b3"
        }
      }
    },
    {
      "fullUrl": "urn:uuid:00f23dce-8ec5-4d1a-9b43-2bedf73c08ac",
      "resource": {
        "resourceType": "Observation",
        "id": "00f23dce-8ec5-4d1a-9b43-2bedf73c08ac",
        "meta": {
          "profile": [
            "http://hl7.eu/fhir/laboratory/StructureDefinition/Observation-resultslab-eu-lab"
          ]
        },
        "performer": [
          {
            "display": "The Central European Lab"
          }
        ],
        "category": [
          {
            "coding": [
              {
                "system": "http://terminology.hl7.org/CodeSystem/observation-category",
                "code": "laboratory"
              }
            ]
          }
        ],
        "code": {
          "coding": [
            {
              "code": "2028-9",
              "system": "http://loinc.org",
              "display": "Carbon dioxide, total [Moles/volume] in Serum or Plasma"
            }
          ],
          "text": "Carbon dioxide, total [Moles/volume] in Serum or Plasma"
        },
        "valueQuantity": {
          "system": "http://unitsofmeasure.org",
          "value": 23,
          "unit": "mmol/L",
          "code": "mmol/L"
        },
        "referenceRange": [
          {
            "low": {
              "value": 22,
              "code": "mmol/L",
              "system": "http://unitsofmeasure.org"
            }
          },
          {
            "high": {
              "value": 32,
              "code": "mmol/L",
              "system": "http://unitsofmeasure.org"
            }
          }
        ],
        "text": {
          "status": "generated",
          "div": "<div xmlns=\"http://www.w3.org/1999/xhtml\"><table class=\"hl7__eu__lab__report\"><tr><th>Test</th><th>23-Apr-2019</th><th>Reference&#xA0;Range</th><th>Unit</th></tr><tr><td>Carbon dioxide, total [Moles/volume] in Serum or Plasma</td><td>23.0</td><td>22 - 32</td><td></td><td>mmol/L</td></tr></table></div>"
        },
        "status": "final",
        "subject": {
          "reference": "urn:uuid:ef245c67-ab38-416a-8e57-16cd98255691",
          "display": "Meaghan Neary"
        },
        "effectiveDateTime": "2019-04-22T22:11:04Z",
        "specimen": {
          "reference": "urn:uuid:04bfac56-ea32-425f-b543-9bac149369b3"
        }
      }
    },
    {
      "fullUrl": "urn:uuid:f8a89b0e-7bde-4fc8-9c4f-f745eebc857d",
      "resource": {
        "resourceType": "Observation",
        "id": "f8a89b0e-7bde-4fc8-9c4f-f745eebc857d",
        "meta": {
          "profile": [
            "http://hl7.eu/fhir/laboratory/StructureDefinition/Observation-resultslab-eu-lab"
          ]
        },
        "performer": [
          {
            "display": "The Central European Lab"
          }
        ],
        "category": [
          {
            "coding": [
              {
                "system": "http://terminology.hl7.org/CodeSystem/observation-category",
                "code": "laboratory"
              }
            ]
          }
        ],
        "code": {
          "coding": [
            {
              "code": "5767-9",
              "system": "http://loinc.org",
              "display": "Appearance of Urine"
            }
          ],
          "text": "Appearance of Urine"
        },
        "text": {
          "status": "generated",
          "div": "<div xmlns=\"http://www.w3.org/1999/xhtml\"><table class=\"hl7__eu__lab__report\"><tr><th>Test</th><th>23-Apr-2019</th><th>Reference&#xA0;Range</th><th>Unit</th></tr><tr><td>Appearance of Urine</td></tr></table></div>"
        },
        "status": "final",
        "subject": {
          "reference": "urn:uuid:ef245c67-ab38-416a-8e57-16cd98255691",
          "display": "Meaghan Neary"
        },
        "effectiveDateTime": "2019-04-22T22:11:04Z",
        "specimen": {
          "reference": "urn:uuid:a581f6cd-cbeb-41c2-a5ca-dc02ccfa4428"
        }
      }
    },
    {
      "fullUrl": "urn:uuid:c9481e5a-6d32-4c75-be0a-3b7edaa902f7",
      "resource": {
        "resourceType": "Observation",
        "id": "c9481e5a-6d32-4c75-be0a-3b7edaa902f7",
        "meta": {
          "profile": [
            "http://hl7.eu/fhir/laboratory/StructureDefinition/Observation-resultslab-eu-lab"
          ]
        },
        "performer": [
          {
            "display": "The Central European Lab"
          }
        ],
        "category": [
          {
            "coding": [
              {
                "system": "http://terminology.hl7.org/CodeSystem/observation-category",
                "code": "laboratory"
              }
            ]
          }
        ],
        "code": {
          "coding": [
            {
              "code": "34533-0",
              "system": "http://loinc.org",
              "display": "Odor of Urine"
            }
          ],
          "text": "Odor of Urine"
        },
        "text": {
          "status": "generated",
          "div": "<div xmlns=\"http://www.w3.org/1999/xhtml\"><table class=\"hl7__eu__lab__report\"><tr><th>Test</th><th>23-Apr-2019</th><th>Reference&#xA0;Range</th><th>Unit</th></tr><tr><td>Odor of Urine</td></tr></table></div>"
        },
        "status": "final",
        "subject": {
          "reference": "urn:uuid:ef245c67-ab38-416a-8e57-16cd98255691",
          "display": "Meaghan Neary"
        },
        "effectiveDateTime": "2019-04-22T22:11:04Z",
        "specimen": {
          "reference": "urn:uuid:a581f6cd-cbeb-41c2-a5ca-dc02ccfa4428"
        }
      }
    },
    {
      "fullUrl": "urn:uuid:f931a1f7-70c8-4e84-ba7c-f8f09afa94a4",
      "resource": {
        "resourceType": "Observation",
        "id": "f931a1f7-70c8-4e84-ba7c-f8f09afa94a4",
        "meta": {
          "profile": [
            "http://hl7.eu/fhir/laboratory/StructureDefinition/Observation-resultslab-eu-lab"
          ]
        },
        "performer": [
          {
            "display": "The Central European Lab"
          }
        ],
        "category": [
          {
            "coding": [
              {
                "system": "http://terminology.hl7.org/CodeSystem/observation-category",
                "code": "laboratory"
              }
            ]
          }
        ],
        "code": {
          "coding": [
            {
              "code": "32167-9",
              "system": "http://loinc.org",
              "display": "Clarity of Urine"
            }
          ],
          "text": "Clarity of Urine"
        },
        "text": {
          "status": "generated",
          "div": "<div xmlns=\"http://www.w3.org/1999/xhtml\"><table class=\"hl7__eu__lab__report\"><tr><th>Test</th><th>23-Apr-2019</th><th>Reference&#xA0;Range</th><th>Unit</th></tr><tr><td>Clarity of Urine</td></tr></table></div>"
        },
        "status": "final",
        "subject": {
          "reference": "urn:uuid:ef245c67-ab38-416a-8e57-16cd98255691",
          "display": "Meaghan Neary"
        },
        "effectiveDateTime": "2019-04-22T22:11:04Z",
        "specimen": {
          "reference": "urn:uuid:a581f6cd-cbeb-41c2-a5ca-dc02ccfa4428"
        }
      }
    },
    {
      "fullUrl": "urn:uuid:861dfa3f-7a5d-4e95-885a-9b3326624b8f",
      "resource": {
        "resourceType": "Observation",
        "id": "861dfa3f-7a5d-4e95-885a-9b3326624b8f",
        "meta": {
          "profile": [
            "http://hl7.eu/fhir/laboratory/StructureDefinition/Observation-resultslab-eu-lab"
          ]
        },
        "performer": [
          {
            "display": "The Central European Lab"
          }
        ],
        "category": [
          {
            "coding": [
              {
                "system": "http://terminology.hl7.org/CodeSystem/observation-category",
                "code": "laboratory"
              }
            ]
          }
        ],
        "code": {
          "coding": [
            {
              "code": "5778-6",
              "system": "http://loinc.org",
              "display": "Color of Urine"
            }
          ],
          "text": "Color of Urine"
        },
        "text": {
          "status": "generated",
          "div": "<div xmlns=\"http://www.w3.org/1999/xhtml\"><table class=\"hl7__eu__lab__report\"><tr><th>Test</th><th>23-Apr-2019</th><th>Reference&#xA0;Range</th><th>Unit</th></tr><tr><td>Color of Urine</td></tr></table></div>"
        },
        "status": "final",
        "subject": {
          "reference": "urn:uuid:ef245c67-ab38-416a-8e57-16cd98255691",
          "display": "Meaghan Neary"
        },
        "effectiveDateTime": "2019-04-22T22:11:04Z",
        "specimen": {
          "reference": "urn:uuid:a581f6cd-cbeb-41c2-a5ca-dc02ccfa4428"
        }
      }
    },
    {
      "fullUrl": "urn:uuid:9c9b0b2a-3820-45d7-b361-b7e193f4734c",
      "resource": {
        "resourceType": "Observation",
        "id": "9c9b0b2a-3820-45d7-b361-b7e193f4734c",
        "meta": {
          "profile": [
            "http://hl7.eu/fhir/laboratory/StructureDefinition/Observation-resultslab-eu-lab"
          ]
        },
        "performer": [
          {
            "display": "The Central European Lab"
          }
        ],
        "category": [
          {
            "coding": [
              {
                "system": "http://terminology.hl7.org/CodeSystem/observation-category",
                "code": "laboratory"
              }
            ]
          }
        ],
        "code": {
          "coding": [
            {
              "code": "5792-7",
              "system": "http://loinc.org",
              "display": "Glucose [Mass/volume] in Urine by Test strip"
            }
          ],
          "text": "Glucose [Mass/volume] in Urine by Test strip"
        },
        "valueQuantity": {
          "system": "http://unitsofmeasure.org",
          "value": 1.8,
          "unit": "mg/dL",
          "code": "mg/dL"
        },
        "referenceRange": [
          {
            "low": {
              "value": 0.8,
              "code": "mg/dL",
              "system": "http://unitsofmeasure.org"
            }
          },
          {
            "high": {
              "value": 0,
              "code": "mg/dL",
              "system": "http://unitsofmeasure.org"
            }
          }
        ],
        "interpretation": [
          {
            "coding": [
              {
                "code": "H",
                "system": "http://terminology.hl7.org/CodeSystem/v3-ObservationInterpretation",
                "display": "High"
              }
            ]
          }
        ],
        "text": {
          "status": "generated",
          "div": "<div xmlns=\"http://www.w3.org/1999/xhtml\"><table class=\"hl7__eu__lab__report\"><tr><th>Test</th><th>23-Apr-2019</th><th>Reference&#xA0;Range</th><th>Unit</th></tr><tr><td>Glucose [Mass/volume] in Urine by Test strip</td><td>1.8</td><td>0.8 - 0</td><td>H</td><td>mg/dL</td></tr></table></div>"
        },
        "status": "final",
        "subject": {
          "reference": "urn:uuid:ef245c67-ab38-416a-8e57-16cd98255691",
          "display": "Meaghan Neary"
        },
        "effectiveDateTime": "2019-04-22T22:11:04Z",
        "specimen": {
          "reference": "urn:uuid:a581f6cd-cbeb-41c2-a5ca-dc02ccfa4428"
        }
      }
    },
    {
      "fullUrl": "urn:uuid:c0edb68e-8cfd-43f5-94b5-e187ed7d7490",
      "resource": {
        "resourceType": "Observation",
        "id": "c0edb68e-8cfd-43f5-94b5-e187ed7d7490",
        "meta": {
          "profile": [
            "http://hl7.eu/fhir/laboratory/StructureDefinition/Observation-resultslab-eu-lab"
          ]
        },
        "performer": [
          {
            "display": "The Central European Lab"
          }
        ],
        "category": [
          {
            "coding": [
              {
                "system": "http://terminology.hl7.org/CodeSystem/observation-category",
                "code": "laboratory"
              }
            ]
          }
        ],
        "code": {
          "coding": [
            {
              "code": "25428-4",
              "system": "http://loinc.org",
              "display": "Glucose [Presence] in Urine by Test strip"
            }
          ],
          "text": "Glucose [Presence] in Urine by Test strip"
        },
        "text": {
          "status": "generated",
          "div": "<div xmlns=\"http://www.w3.org/1999/xhtml\"><table class=\"hl7__eu__lab__report\"><tr><th>Test</th><th>23-Apr-2019</th><th>Reference&#xA0;Range</th><th>Unit</th></tr><tr><td>Glucose [Presence] in Urine by Test strip</td></tr></table></div>"
        },
        "status": "final",
        "subject": {
          "reference": "urn:uuid:ef245c67-ab38-416a-8e57-16cd98255691",
          "display": "Meaghan Neary"
        },
        "effectiveDateTime": "2019-04-22T22:11:04Z",
        "specimen": {
          "reference": "urn:uuid:a581f6cd-cbeb-41c2-a5ca-dc02ccfa4428"
        }
      }
    },
    {
      "fullUrl": "urn:uuid:217a559e-9fea-4b6d-b05f-9f1d8091567b",
      "resource": {
        "resourceType": "Observation",
        "id": "217a559e-9fea-4b6d-b05f-9f1d8091567b",
        "meta": {
          "profile": [
            "http://hl7.eu/fhir/laboratory/StructureDefinition/Observation-resultslab-eu-lab"
          ]
        },
        "performer": [
          {
            "display": "The Central European Lab"
          }
        ],
        "category": [
          {
            "coding": [
              {
                "system": "http://terminology.hl7.org/CodeSystem/observation-category",
                "code": "laboratory"
              }
            ]
          }
        ],
        "code": {
          "coding": [
            {
              "code": "20505-4",
              "system": "http://loinc.org",
              "display": "Bilirubin.total [Mass/volume] in Urine by Test strip"
            }
          ],
          "text": "Bilirubin.total [Mass/volume] in Urine by Test strip"
        },
        "valueQuantity": {
          "system": "http://unitsofmeasure.org",
          "value": 0.5,
          "unit": "mg/dL",
          "code": "mg/dL"
        },
        "referenceRange": [
          {
            "low": {
              "value": 0,
              "code": "mg/dL",
              "system": "http://unitsofmeasure.org"
            }
          },
          {
            "high": {
              "value": 1,
              "code": "mg/dL",
              "system": "http://unitsofmeasure.org"
            }
          }
        ],
        "text": {
          "status": "generated",
          "div": "<div xmlns=\"http://www.w3.org/1999/xhtml\"><table class=\"hl7__eu__lab__report\"><tr><th>Test</th><th>23-Apr-2019</th><th>Reference&#xA0;Range</th><th>Unit</th></tr><tr><td>Bilirubin.total [Mass/volume] in Urine by Test strip</td><td>0.5</td><td>0 - 1</td><td></td><td>mg/dL</td></tr></table></div>"
        },
        "status": "final",
        "subject": {
          "reference": "urn:uuid:ef245c67-ab38-416a-8e57-16cd98255691",
          "display": "Meaghan Neary"
        },
        "effectiveDateTime": "2019-04-22T22:11:04Z",
        "specimen": {
          "reference": "urn:uuid:a581f6cd-cbeb-41c2-a5ca-dc02ccfa4428"
        }
      }
    },
    {
      "fullUrl": "urn:uuid:ee5be4d2-88be-42c4-b07a-c7cd73467d18",
      "resource": {
        "resourceType": "Observation",
        "id": "ee5be4d2-88be-42c4-b07a-c7cd73467d18",
        "meta": {
          "profile": [
            "http://hl7.eu/fhir/laboratory/StructureDefinition/Observation-resultslab-eu-lab"
          ]
        },
        "performer": [
          {
            "display": "The Central European Lab"
          }
        ],
        "category": [
          {
            "coding": [
              {
                "system": "http://terminology.hl7.org/CodeSystem/observation-category",
                "code": "laboratory"
              }
            ]
          }
        ],
        "code": {
          "coding": [
            {
              "code": "5770-3",
              "system": "http://loinc.org",
              "display": "Bilirubin.total [Presence] in Urine by Test strip"
            }
          ],
          "text": "Bilirubin.total [Presence] in Urine by Test strip"
        },
        "text": {
          "status": "generated",
          "div": "<div xmlns=\"http://www.w3.org/1999/xhtml\"><table class=\"hl7__eu__lab__report\"><tr><th>Test</th><th>23-Apr-2019</th><th>Reference&#xA0;Range</th><th>Unit</th></tr><tr><td>Bilirubin.total [Presence] in Urine by Test strip</td></tr></table></div>"
        },
        "status": "final",
        "subject": {
          "reference": "urn:uuid:ef245c67-ab38-416a-8e57-16cd98255691",
          "display": "Meaghan Neary"
        },
        "effectiveDateTime": "2019-04-22T22:11:04Z",
        "specimen": {
          "reference": "urn:uuid:a581f6cd-cbeb-41c2-a5ca-dc02ccfa4428"
        }
      }
    },
    {
      "fullUrl": "urn:uuid:377fd22e-1743-4c39-aa01-0f654ac3688e",
      "resource": {
        "resourceType": "Observation",
        "id": "377fd22e-1743-4c39-aa01-0f654ac3688e",
        "meta": {
          "profile": [
            "http://hl7.eu/fhir/laboratory/StructureDefinition/Observation-resultslab-eu-lab"
          ]
        },
        "performer": [
          {
            "display": "The Central European Lab"
          }
        ],
        "category": [
          {
            "coding": [
              {
                "system": "http://terminology.hl7.org/CodeSystem/observation-category",
                "code": "laboratory"
              }
            ]
          }
        ],
        "code": {
          "coding": [
            {
              "code": "5797-6",
              "system": "http://loinc.org",
              "display": "Ketones [Mass/volume] in Urine by Test strip"
            }
          ],
          "text": "Ketones [Mass/volume] in Urine by Test strip"
        },
        "valueQuantity": {
          "system": "http://unitsofmeasure.org",
          "value": 6.1,
          "unit": "mg/dL",
          "code": "mg/dL"
        },
        "referenceRange": [
          {
            "low": {
              "value": 0,
              "code": "mg/dL",
              "system": "http://unitsofmeasure.org"
            }
          },
          {
            "high": {
              "value": 4,
              "code": "mg/dL",
              "system": "http://unitsofmeasure.org"
            }
          }
        ],
        "interpretation": [
          {
            "coding": [
              {
                "code": "H",
                "system": "http://terminology.hl7.org/CodeSystem/v3-ObservationInterpretation",
                "display": "High"
              }
            ]
          }
        ],
        "text": {
          "status": "generated",
          "div": "<div xmlns=\"http://www.w3.org/1999/xhtml\"><table class=\"hl7__eu__lab__report\"><tr><th>Test</th><th>23-Apr-2019</th><th>Reference&#xA0;Range</th><th>Unit</th></tr><tr><td>Ketones [Mass/volume] in Urine by Test strip</td><td>6.1</td><td>0 - 4</td><td>H</td><td>mg/dL</td></tr></table></div>"
        },
        "status": "final",
        "subject": {
          "reference": "urn:uuid:ef245c67-ab38-416a-8e57-16cd98255691",
          "display": "Meaghan Neary"
        },
        "effectiveDateTime": "2019-04-22T22:11:04Z",
        "specimen": {
          "reference": "urn:uuid:a581f6cd-cbeb-41c2-a5ca-dc02ccfa4428"
        }
      }
    },
    {
      "fullUrl": "urn:uuid:c8bcdf57-a711-488d-9a12-652ec7412fe4",
      "resource": {
        "resourceType": "Observation",
        "id": "c8bcdf57-a711-488d-9a12-652ec7412fe4",
        "meta": {
          "profile": [
            "http://hl7.eu/fhir/laboratory/StructureDefinition/Observation-resultslab-eu-lab"
          ]
        },
        "performer": [
          {
            "display": "The Central European Lab"
          }
        ],
        "category": [
          {
            "coding": [
              {
                "system": "http://terminology.hl7.org/CodeSystem/observation-category",
                "code": "laboratory"
              }
            ]
          }
        ],
        "code": {
          "coding": [
            {
              "code": "2514-8",
              "system": "http://loinc.org",
              "display": "Ketones [Presence] in Urine by Test strip"
            }
          ],
          "text": "Ketones [Presence] in Urine by Test strip"
        },
        "text": {
          "status": "generated",
          "div": "<div xmlns=\"http://www.w3.org/1999/xhtml\"><table class=\"hl7__eu__lab__report\"><tr><th>Test</th><th>23-Apr-2019</th><th>Reference&#xA0;Range</th><th>Unit</th></tr><tr><td>Ketones [Presence] in Urine by Test strip</td></tr></table></div>"
        },
        "status": "final",
        "subject": {
          "reference": "urn:uuid:ef245c67-ab38-416a-8e57-16cd98255691",
          "display": "Meaghan Neary"
        },
        "effectiveDateTime": "2019-04-22T22:11:04Z",
        "specimen": {
          "reference": "urn:uuid:a581f6cd-cbeb-41c2-a5ca-dc02ccfa4428"
        }
      }
    },
    {
      "fullUrl": "urn:uuid:9bdcd4e1-06d2-4c7b-9992-dba2929793c3",
      "resource": {
        "resourceType": "Observation",
        "id": "9bdcd4e1-06d2-4c7b-9992-dba2929793c3",
        "meta": {
          "profile": [
            "http://hl7.eu/fhir/laboratory/StructureDefinition/Observation-resultslab-eu-lab"
          ]
        },
        "performer": [
          {
            "display": "The Central European Lab"
          }
        ],
        "category": [
          {
            "coding": [
              {
                "system": "http://terminology.hl7.org/CodeSystem/observation-category",
                "code": "laboratory"
              }
            ]
          }
        ],
        "code": {
          "coding": [
            {
              "code": "5811-5",
              "system": "http://loinc.org",
              "display": "Specific gravity of Urine by Test strip"
            }
          ],
          "text": "Specific gravity of Urine by Test strip"
        },
        "valueQuantity": {
          "system": "http://unitsofmeasure.org",
          "value": 1,
          "unit": "{nominal}",
          "code": "{nominal}"
        },
        "referenceRange": [
          {
            "low": {
              "value": 1.005,
              "code": "g/mL",
              "system": "http://unitsofmeasure.org"
            }
          },
          {
            "high": {
              "value": 1.03,
              "code": "g/mL",
              "system": "http://unitsofmeasure.org"
            }
          }
        ],
        "interpretation": [
          {
            "coding": [
              {
                "code": "L",
                "system": "http://terminology.hl7.org/CodeSystem/v3-ObservationInterpretation",
                "display": "Low"
              }
            ]
          }
        ],
        "text": {
          "status": "generated",
          "div": "<div xmlns=\"http://www.w3.org/1999/xhtml\"><table class=\"hl7__eu__lab__report\"><tr><th>Test</th><th>23-Apr-2019</th><th>Reference&#xA0;Range</th><th>Unit</th></tr><tr><td>Specific gravity of Urine by Test strip</td><td>1.0</td><td>1.005 - 1.03</td><td>L</td><td>{nominal}</td></tr></table></div>"
        },
        "status": "final",
        "subject": {
          "reference": "urn:uuid:ef245c67-ab38-416a-8e57-16cd98255691",
          "display": "Meaghan Neary"
        },
        "effectiveDateTime": "2019-04-22T22:11:04Z",
        "specimen": {
          "reference": "urn:uuid:a581f6cd-cbeb-41c2-a5ca-dc02ccfa4428"
        }
      }
    },
    {
      "fullUrl": "urn:uuid:b3b9d0bf-e94e-4a75-ab3e-15f6291459ca",
      "resource": {
        "resourceType": "Observation",
        "id": "b3b9d0bf-e94e-4a75-ab3e-15f6291459ca",
        "meta": {
          "profile": [
            "http://hl7.eu/fhir/laboratory/StructureDefinition/Observation-resultslab-eu-lab"
          ]
        },
        "performer": [
          {
            "display": "The Central European Lab"
          }
        ],
        "category": [
          {
            "coding": [
              {
                "system": "http://terminology.hl7.org/CodeSystem/observation-category",
                "code": "laboratory"
              }
            ]
          }
        ],
        "code": {
          "coding": [
            {
              "code": "5803-2",
              "system": "http://loinc.org",
              "display": "pH of Urine by Test strip"
            }
          ],
          "text": "pH of Urine by Test strip"
        },
        "valueQuantity": {
          "system": "http://unitsofmeasure.org",
          "value": 5.5,
          "unit": "pH",
          "code": "pH"
        },
        "referenceRange": [
          {
            "low": {
              "value": 4.6,
              "code": "pH",
              "system": "http://unitsofmeasure.org"
            }
          },
          {
            "high": {
              "value": 7,
              "code": "pH",
              "system": "http://unitsofmeasure.org"
            }
          }
        ],
        "text": {
          "status": "generated",
          "div": "<div xmlns=\"http://www.w3.org/1999/xhtml\"><table class=\"hl7__eu__lab__report\"><tr><th>Test</th><th>23-Apr-2019</th><th>Reference&#xA0;Range</th><th>Unit</th></tr><tr><td>pH of Urine by Test strip</td><td>5.5</td><td>4.6 - 7</td><td></td><td>pH</td></tr></table></div>"
        },
        "status": "final",
        "subject": {
          "reference": "urn:uuid:ef245c67-ab38-416a-8e57-16cd98255691",
          "display": "Meaghan Neary"
        },
        "effectiveDateTime": "2019-04-22T22:11:04Z",
        "specimen": {
          "reference": "urn:uuid:a581f6cd-cbeb-41c2-a5ca-dc02ccfa4428"
        }
      }
    },
    {
      "fullUrl": "urn:uuid:cd42951f-cb96-4253-8986-314bb28d6026",
      "resource": {
        "resourceType": "Observation",
        "id": "cd42951f-cb96-4253-8986-314bb28d6026",
        "meta": {
          "profile": [
            "http://hl7.eu/fhir/laboratory/StructureDefinition/Observation-resultslab-eu-lab"
          ]
        },
        "performer": [
          {
            "display": "The Central European Lab"
          }
        ],
        "category": [
          {
            "coding": [
              {
                "system": "http://terminology.hl7.org/CodeSystem/observation-category",
                "code": "laboratory"
              }
            ]
          }
        ],
        "code": {
          "coding": [
            {
              "code": "5804-0",
              "system": "http://loinc.org",
              "display": "Protein [Mass/volume] in Urine by Test strip"
            }
          ],
          "text": "Protein [Mass/volume] in Urine by Test strip"
        },
        "valueQuantity": {
          "system": "http://unitsofmeasure.org",
          "value": 371.1,
          "unit": "mg/dL",
          "code": "mg/dL"
        },
        "referenceRange": [
          {
            "low": {
              "value": 0,
              "code": "mg/dL",
              "system": "http://unitsofmeasure.org"
            }
          },
          {
            "high": {
              "value": 14,
              "code": "mg/dL",
              "system": "http://unitsofmeasure.org"
            }
          }
        ],
        "interpretation": [
          {
            "coding": [
              {
                "code": "H",
                "system": "http://terminology.hl7.org/CodeSystem/v3-ObservationInterpretation",
                "display": "High"
              }
            ]
          }
        ],
        "text": {
          "status": "generated",
          "div": "<div xmlns=\"http://www.w3.org/1999/xhtml\"><table class=\"hl7__eu__lab__report\"><tr><th>Test</th><th>23-Apr-2019</th><th>Reference&#xA0;Range</th><th>Unit</th></tr><tr><td>Protein [Mass/volume] in Urine by Test strip</td><td>371.1</td><td>0 - 14</td><td>H</td><td>mg/dL</td></tr></table></div>"
        },
        "status": "final",
        "subject": {
          "reference": "urn:uuid:ef245c67-ab38-416a-8e57-16cd98255691",
          "display": "Meaghan Neary"
        },
        "effectiveDateTime": "2019-04-22T22:11:04Z",
        "specimen": {
          "reference": "urn:uuid:a581f6cd-cbeb-41c2-a5ca-dc02ccfa4428"
        }
      }
    },
    {
      "fullUrl": "urn:uuid:00c494cd-25d1-4e87-80df-9422e431d0e2",
      "resource": {
        "resourceType": "Observation",
        "id": "00c494cd-25d1-4e87-80df-9422e431d0e2",
        "meta": {
          "profile": [
            "http://hl7.eu/fhir/laboratory/StructureDefinition/Observation-resultslab-eu-lab"
          ]
        },
        "performer": [
          {
            "display": "The Central European Lab"
          }
        ],
        "category": [
          {
            "coding": [
              {
                "system": "http://terminology.hl7.org/CodeSystem/observation-category",
                "code": "laboratory"
              }
            ]
          }
        ],
        "code": {
          "coding": [
            {
              "code": "20454-5",
              "system": "http://loinc.org",
              "display": "Protein [Presence] in Urine by Test strip"
            }
          ],
          "text": "Protein [Presence] in Urine by Test strip"
        },
        "text": {
          "status": "generated",
          "div": "<div xmlns=\"http://www.w3.org/1999/xhtml\"><table class=\"hl7__eu__lab__report\"><tr><th>Test</th><th>23-Apr-2019</th><th>Reference&#xA0;Range</th><th>Unit</th></tr><tr><td>Protein [Presence] in Urine by Test strip</td></tr></table></div>"
        },
        "status": "final",
        "subject": {
          "reference": "urn:uuid:ef245c67-ab38-416a-8e57-16cd98255691",
          "display": "Meaghan Neary"
        },
        "effectiveDateTime": "2019-04-22T22:11:04Z",
        "specimen": {
          "reference": "urn:uuid:a581f6cd-cbeb-41c2-a5ca-dc02ccfa4428"
        }
      }
    },
    {
      "fullUrl": "urn:uuid:4d03aa67-5220-4ca5-bd96-31dac32f8b3a",
      "resource": {
        "resourceType": "Observation",
        "id": "4d03aa67-5220-4ca5-bd96-31dac32f8b3a",
        "meta": {
          "profile": [
            "http://hl7.eu/fhir/laboratory/StructureDefinition/Observation-resultslab-eu-lab"
          ]
        },
        "performer": [
          {
            "display": "The Central European Lab"
          }
        ],
        "category": [
          {
            "coding": [
              {
                "system": "http://terminology.hl7.org/CodeSystem/observation-category",
                "code": "laboratory"
              }
            ]
          }
        ],
        "code": {
          "coding": [
            {
              "code": "5802-4",
              "system": "http://loinc.org",
              "display": "Nitrite [Presence] in Urine by Test strip"
            }
          ],
          "text": "Nitrite [Presence] in Urine by Test strip"
        },
        "text": {
          "status": "generated",
          "div": "<div xmlns=\"http://www.w3.org/1999/xhtml\"><table class=\"hl7__eu__lab__report\"><tr><th>Test</th><th>23-Apr-2019</th><th>Reference&#xA0;Range</th><th>Unit</th></tr><tr><td>Nitrite [Presence] in Urine by Test strip</td></tr></table></div>"
        },
        "status": "final",
        "subject": {
          "reference": "urn:uuid:ef245c67-ab38-416a-8e57-16cd98255691",
          "display": "Meaghan Neary"
        },
        "effectiveDateTime": "2019-04-22T22:11:04Z",
        "specimen": {
          "reference": "urn:uuid:a581f6cd-cbeb-41c2-a5ca-dc02ccfa4428"
        }
      }
    },
    {
      "fullUrl": "urn:uuid:08328af4-2c3f-46b1-a43f-604c2a4fc6fe",
      "resource": {
        "resourceType": "Observation",
        "id": "08328af4-2c3f-46b1-a43f-604c2a4fc6fe",
        "meta": {
          "profile": [
            "http://hl7.eu/fhir/laboratory/StructureDefinition/Observation-resultslab-eu-lab"
          ]
        },
        "performer": [
          {
            "display": "The Central European Lab"
          }
        ],
        "category": [
          {
            "coding": [
              {
                "system": "http://terminology.hl7.org/CodeSystem/observation-category",
                "code": "laboratory"
              }
            ]
          }
        ],
        "code": {
          "coding": [
            {
              "code": "5794-3",
              "system": "http://loinc.org",
              "display": "Hemoglobin [Presence] in Urine by Test strip"
            }
          ],
          "text": "Hemoglobin [Presence] in Urine by Test strip"
        },
        "text": {
          "status": "generated",
          "div": "<div xmlns=\"http://www.w3.org/1999/xhtml\"><table class=\"hl7__eu__lab__report\"><tr><th>Test</th><th>23-Apr-2019</th><th>Reference&#xA0;Range</th><th>Unit</th></tr><tr><td>Hemoglobin [Presence] in Urine by Test strip</td></tr></table></div>"
        },
        "status": "final",
        "subject": {
          "reference": "urn:uuid:ef245c67-ab38-416a-8e57-16cd98255691",
          "display": "Meaghan Neary"
        },
        "effectiveDateTime": "2019-04-22T22:11:04Z",
        "specimen": {
          "reference": "urn:uuid:a581f6cd-cbeb-41c2-a5ca-dc02ccfa4428"
        }
      }
    },
    {
      "fullUrl": "urn:uuid:da5ff8fb-c0cf-4162-89d1-2b6665bfeb82",
      "resource": {
        "resourceType": "Observation",
        "id": "da5ff8fb-c0cf-4162-89d1-2b6665bfeb82",
        "meta": {
          "profile": [
            "http://hl7.eu/fhir/laboratory/StructureDefinition/Observation-resultslab-eu-lab"
          ]
        },
        "performer": [
          {
            "display": "The Central European Lab"
          }
        ],
        "category": [
          {
            "coding": [
              {
                "system": "http://terminology.hl7.org/CodeSystem/observation-category",
                "code": "laboratory"
              }
            ]
          }
        ],
        "code": {
          "coding": [
            {
              "code": "5799-2",
              "system": "http://loinc.org",
              "display": "Leukocyte esterase [Presence] in Urine by Test strip"
            }
          ],
          "text": "Leukocyte esterase [Presence] in Urine by Test strip"
        },
        "text": {
          "status": "generated",
          "div": "<div xmlns=\"http://www.w3.org/1999/xhtml\"><table class=\"hl7__eu__lab__report\"><tr><th>Test</th><th>23-Apr-2019</th><th>Reference&#xA0;Range</th><th>Unit</th></tr><tr><td>Leukocyte esterase [Presence] in Urine by Test strip</td></tr></table></div>"
        },
        "status": "final",
        "subject": {
          "reference": "urn:uuid:ef245c67-ab38-416a-8e57-16cd98255691",
          "display": "Meaghan Neary"
        },
        "effectiveDateTime": "2019-04-22T22:11:04Z",
        "specimen": {
          "reference": "urn:uuid:a581f6cd-cbeb-41c2-a5ca-dc02ccfa4428"
        }
      }
    },
    {
      "fullUrl": "urn:uuid:c52766c3-5d35-4f88-821c-2ca9a49cbfd8",
      "resource": {
        "resourceType": "Observation",
        "id": "c52766c3-5d35-4f88-821c-2ca9a49cbfd8",
        "meta": {
          "profile": [
            "http://hl7.eu/fhir/laboratory/StructureDefinition/Observation-resultslab-eu-lab"
          ]
        },
        "performer": [
          {
            "display": "The Central European Lab"
          }
        ],
        "category": [
          {
            "coding": [
              {
                "system": "http://terminology.hl7.org/CodeSystem/observation-category",
                "code": "laboratory"
              }
            ]
          }
        ],
        "code": {
          "coding": [
            {
              "code": "4548-4",
              "system": "http://loinc.org",
              "display": "Hemoglobin A1c/Hemoglobin.total in Blood"
            }
          ],
          "text": "Hemoglobin A1c/Hemoglobin.total in Blood"
        },
        "valueQuantity": {
          "system": "http://unitsofmeasure.org",
          "value": 2.8,
          "unit": "%",
          "code": "%"
        },
        "referenceRange": [
          {
            "low": {
              "value": 4,
              "code": "%",
              "system": "http://unitsofmeasure.org"
            }
          },
          {
            "high": {
              "value": 6.4,
              "code": "%",
              "system": "http://unitsofmeasure.org"
            }
          }
        ],
        "interpretation": [
          {
            "coding": [
              {
                "code": "L",
                "system": "http://terminology.hl7.org/CodeSystem/v3-ObservationInterpretation",
                "display": "Low"
              }
            ]
          }
        ],
        "text": {
          "status": "generated",
          "div": "<div xmlns=\"http://www.w3.org/1999/xhtml\"><table class=\"hl7__eu__lab__report\"><tr><th>Test</th><th>23-Apr-2019</th><th>Reference&#xA0;Range</th><th>Unit</th></tr><tr><td>Hemoglobin A1c/Hemoglobin.total in Blood</td><td>2.8</td><td>4 - 6.4</td><td>L</td><td>%</td></tr></table></div>"
        },
        "status": "final",
        "subject": {
          "reference": "urn:uuid:ef245c67-ab38-416a-8e57-16cd98255691",
          "display": "Meaghan Neary"
        },
        "effectiveDateTime": "2019-04-22T22:11:04Z",
        "specimen": {
          "reference": "urn:uuid:bcd42d34-671f-4848-aae1-c725e5e84840"
        }
      }
    },
    {
      "fullUrl": "urn:uuid:849eeb89-4532-489d-a179-cc82f045f730",
      "resource": {
        "resourceType": "Observation",
        "id": "849eeb89-4532-489d-a179-cc82f045f730",
        "meta": {
          "profile": [
            "http://hl7.eu/fhir/laboratory/StructureDefinition/Observation-resultslab-eu-lab"
          ]
        },
        "performer": [
          {
            "display": "The Central European Lab"
          }
        ],
        "category": [
          {
            "coding": [
              {
                "system": "http://terminology.hl7.org/CodeSystem/observation-category",
                "code": "laboratory"
              }
            ]
          }
        ],
        "code": {
          "coding": [
            {
              "code": "2339-0",
              "system": "http://loinc.org",
              "display": "Glucose [Mass/volume] in Blood"
            }
          ],
          "text": "Glucose [Mass/volume] in Blood"
        },
        "valueQuantity": {
          "system": "http://unitsofmeasure.org",
          "value": 71.9,
          "unit": "mg/dL",
          "code": "mg/dL"
        },
        "referenceRange": [
          {
            "low": {
              "value": 70,
              "code": "mg/dL",
              "system": "http://unitsofmeasure.org"
            }
          },
          {
            "high": {
              "value": 100,
              "code": "mg/dL",
              "system": "http://unitsofmeasure.org"
            }
          }
        ],
        "text": {
          "status": "generated",
          "div": "<div xmlns=\"http://www.w3.org/1999/xhtml\"><table class=\"hl7__eu__lab__report\"><tr><th>Test</th><th>23-Apr-2019</th><th>Reference&#xA0;Range</th><th>Unit</th></tr><tr><td>Glucose [Mass/volume] in Blood</td><td>71.9</td><td>70 - 100</td><td></td><td>mg/dL</td></tr></table></div>"
        },
        "status": "final",
        "subject": {
          "reference": "urn:uuid:ef245c67-ab38-416a-8e57-16cd98255691",
          "display": "Meaghan Neary"
        },
        "effectiveDateTime": "2019-04-22T22:11:04Z",
        "specimen": {
          "reference": "urn:uuid:bcd42d34-671f-4848-aae1-c725e5e84840"
        }
      }
    },
    {
      "fullUrl": "urn:uuid:a1389223-2d72-41e3-a474-3abe3ad5f010",
      "resource": {
        "resourceType": "Observation",
        "id": "a1389223-2d72-41e3-a474-3abe3ad5f010",
        "meta": {
          "profile": [
            "http://hl7.eu/fhir/laboratory/StructureDefinition/Observation-resultslab-eu-lab"
          ]
        },
        "performer": [
          {
            "display": "The Central European Lab"
          }
        ],
        "category": [
          {
            "coding": [
              {
                "system": "http://terminology.hl7.org/CodeSystem/observation-category",
                "code": "laboratory"
              }
            ]
          }
        ],
        "code": {
          "coding": [
            {
              "code": "6299-2",
              "system": "http://loinc.org",
              "display": "Urea nitrogen [Mass/volume] in Blood"
            }
          ],
          "text": "Urea nitrogen [Mass/volume] in Blood"
        },
        "valueQuantity": {
          "system": "http://unitsofmeasure.org",
          "value": 8.4,
          "unit": "mg/dL",
          "code": "mg/dL"
        },
        "referenceRange": [
          {
            "low": {
              "value": 7,
              "code": "mg/dL",
              "system": "http://unitsofmeasure.org"
            }
          },
          {
            "high": {
              "value": 43,
              "code": "mg/dL",
              "system": "http://unitsofmeasure.org"
            }
          }
        ],
        "text": {
          "status": "generated",
          "div": "<div xmlns=\"http://www.w3.org/1999/xhtml\"><table class=\"hl7__eu__lab__report\"><tr><th>Test</th><th>23-Apr-2019</th><th>Reference&#xA0;Range</th><th>Unit</th></tr><tr><td>Urea nitrogen [Mass/volume] in Blood</td><td>8.4</td><td>7 - 43</td><td></td><td>mg/dL</td></tr></table></div>"
        },
        "status": "final",
        "subject": {
          "reference": "urn:uuid:ef245c67-ab38-416a-8e57-16cd98255691",
          "display": "Meaghan Neary"
        },
        "effectiveDateTime": "2019-04-22T22:11:04Z",
        "specimen": {
          "reference": "urn:uuid:bcd42d34-671f-4848-aae1-c725e5e84840"
        }
      }
    },
    {
      "fullUrl": "urn:uuid:d64bc45b-77b9-4817-8485-90106b4ad822",
      "resource": {
        "resourceType": "Observation",
        "id": "d64bc45b-77b9-4817-8485-90106b4ad822",
        "meta": {
          "profile": [
            "http://hl7.eu/fhir/laboratory/StructureDefinition/Observation-resultslab-eu-lab"
          ]
        },
        "performer": [
          {
            "display": "The Central European Lab"
          }
        ],
        "category": [
          {
            "coding": [
              {
                "system": "http://terminology.hl7.org/CodeSystem/observation-category",
                "code": "laboratory"
              }
            ]
          }
        ],
        "code": {
          "coding": [
            {
              "code": "38483-4",
              "system": "http://loinc.org",
              "display": "Creatinine [Mass/volume] in Blood"
            }
          ],
          "text": "Creatinine [Mass/volume] in Blood"
        },
        "valueQuantity": {
          "system": "http://unitsofmeasure.org",
          "value": 3.4,
          "unit": "mg/dL",
          "code": "mg/dL"
        },
        "referenceRange": [
          {
            "low": {
              "value": 0.6,
              "code": "mg/dL",
              "system": "http://unitsofmeasure.org"
            }
          },
          {
            "high": {
              "value": 1.1,
              "code": "mg/dL",
              "system": "http://unitsofmeasure.org"
            }
          }
        ],
        "interpretation": [
          {
            "coding": [
              {
                "code": "H",
                "system": "http://terminology.hl7.org/CodeSystem/v3-ObservationInterpretation",
                "display": "High"
              }
            ]
          }
        ],
        "text": {
          "status": "generated",
          "div": "<div xmlns=\"http://www.w3.org/1999/xhtml\"><table class=\"hl7__eu__lab__report\"><tr><th>Test</th><th>23-Apr-2019</th><th>Reference&#xA0;Range</th><th>Unit</th></tr><tr><td>Creatinine [Mass/volume] in Blood</td><td>3.4</td><td>0.6 - 1.1</td><td>H</td><td>mg/dL</td></tr></table></div>"
        },
        "status": "final",
        "subject": {
          "reference": "urn:uuid:ef245c67-ab38-416a-8e57-16cd98255691",
          "display": "Meaghan Neary"
        },
        "effectiveDateTime": "2019-04-22T22:11:04Z",
        "specimen": {
          "reference": "urn:uuid:bcd42d34-671f-4848-aae1-c725e5e84840"
        }
      }
    },
    {
      "fullUrl": "urn:uuid:f55bd5f8-4a22-4346-a711-ee935ca50e21",
      "resource": {
        "resourceType": "Observation",
        "id": "f55bd5f8-4a22-4346-a711-ee935ca50e21",
        "meta": {
          "profile": [
            "http://hl7.eu/fhir/laboratory/StructureDefinition/Observation-resultslab-eu-lab"
          ]
        },
        "performer": [
          {
            "display": "The Central European Lab"
          }
        ],
        "category": [
          {
            "coding": [
              {
                "system": "http://terminology.hl7.org/CodeSystem/observation-category",
                "code": "laboratory"
              }
            ]
          }
        ],
        "code": {
          "coding": [
            {
              "code": "49765-1",
              "system": "http://loinc.org",
              "display": "Calcium [Mass/volume] in Blood"
            }
          ],
          "text": "Calcium [Mass/volume] in Blood"
        },
        "valueQuantity": {
          "system": "http://unitsofmeasure.org",
          "value": 9.8,
          "unit": "mg/dL",
          "code": "mg/dL"
        },
        "referenceRange": [
          {
            "low": {
              "value": 8.5,
              "code": "mg/dL",
              "system": "http://unitsofmeasure.org"
            }
          },
          {
            "high": {
              "value": 10.5,
              "code": "mg/dL",
              "system": "http://unitsofmeasure.org"
            }
          }
        ],
        "text": {
          "status": "generated",
          "div": "<div xmlns=\"http://www.w3.org/1999/xhtml\"><table class=\"hl7__eu__lab__report\"><tr><th>Test</th><th>23-Apr-2019</th><th>Reference&#xA0;Range</th><th>Unit</th></tr><tr><td>Calcium [Mass/volume] in Blood</td><td>9.8</td><td>8.5 - 10.5</td><td></td><td>mg/dL</td></tr></table></div>"
        },
        "status": "final",
        "subject": {
          "reference": "urn:uuid:ef245c67-ab38-416a-8e57-16cd98255691",
          "display": "Meaghan Neary"
        },
        "effectiveDateTime": "2019-04-22T22:11:04Z",
        "specimen": {
          "reference": "urn:uuid:bcd42d34-671f-4848-aae1-c725e5e84840"
        }
      }
    },
    {
      "fullUrl": "urn:uuid:e4f64859-cad6-4a3c-b703-dd07cc49104b",
      "resource": {
        "resourceType": "Observation",
        "id": "e4f64859-cad6-4a3c-b703-dd07cc49104b",
        "meta": {
          "profile": [
            "http://hl7.eu/fhir/laboratory/StructureDefinition/Observation-resultslab-eu-lab"
          ]
        },
        "performer": [
          {
            "display": "The Central European Lab"
          }
        ],
        "category": [
          {
            "coding": [
              {
                "system": "http://terminology.hl7.org/CodeSystem/observation-category",
                "code": "laboratory"
              }
            ]
          }
        ],
        "code": {
          "coding": [
            {
              "code": "2947-0",
              "system": "http://loinc.org",
              "display": "Sodium [Moles/volume] in Blood"
            }
          ],
          "text": "Sodium [Moles/volume] in Blood"
        },
        "valueQuantity": {
          "system": "http://unitsofmeasure.org",
          "value": 142.9,
          "unit": "mmol/L",
          "code": "mmol/L"
        },
        "referenceRange": [
          {
            "low": {
              "value": 135,
              "code": "mmol/L",
              "system": "http://unitsofmeasure.org"
            }
          },
          {
            "high": {
              "value": 145,
              "code": "mmol/L",
              "system": "http://unitsofmeasure.org"
            }
          }
        ],
        "text": {
          "status": "generated",
          "div": "<div xmlns=\"http://www.w3.org/1999/xhtml\"><table class=\"hl7__eu__lab__report\"><tr><th>Test</th><th>23-Apr-2019</th><th>Reference&#xA0;Range</th><th>Unit</th></tr><tr><td>Sodium [Moles/volume] in Blood</td><td>142.9</td><td>135 - 145</td><td></td><td>mmol/L</td></tr></table></div>"
        },
        "status": "final",
        "subject": {
          "reference": "urn:uuid:ef245c67-ab38-416a-8e57-16cd98255691",
          "display": "Meaghan Neary"
        },
        "effectiveDateTime": "2019-04-22T22:11:04Z",
        "specimen": {
          "reference": "urn:uuid:bcd42d34-671f-4848-aae1-c725e5e84840"
        }
      }
    },
    {
      "fullUrl": "urn:uuid:820bdfd5-faf1-4c2b-a9b5-1761e1d372ed",
      "resource": {
        "resourceType": "Observation",
        "id": "820bdfd5-faf1-4c2b-a9b5-1761e1d372ed",
        "meta": {
          "profile": [
            "http://hl7.eu/fhir/laboratory/StructureDefinition/Observation-resultslab-eu-lab"
          ]
        },
        "performer": [
          {
            "display": "The Central European Lab"
          }
        ],
        "category": [
          {
            "coding": [
              {
                "system": "http://terminology.hl7.org/CodeSystem/observation-category",
                "code": "laboratory"
              }
            ]
          }
        ],
        "code": {
          "coding": [
            {
              "code": "6298-4",
              "system": "http://loinc.org",
              "display": "Potassium [Moles/volume] in Blood"
            }
          ],
          "text": "Potassium [Moles/volume] in Blood"
        },
        "valueQuantity": {
          "system": "http://unitsofmeasure.org",
          "value": 4.3,
          "unit": "mmol/L",
          "code": "mmol/L"
        },
        "referenceRange": [
          {
            "low": {
              "value": 3.5,
              "code": "mmol/L",
              "system": "http://unitsofmeasure.org"
            }
          },
          {
            "high": {
              "value": 5.1,
              "code": "mmol/L",
              "system": "http://unitsofmeasure.org"
            }
          }
        ],
        "text": {
          "status": "generated",
          "div": "<div xmlns=\"http://www.w3.org/1999/xhtml\"><table class=\"hl7__eu__lab__report\"><tr><th>Test</th><th>23-Apr-2019</th><th>Reference&#xA0;Range</th><th>Unit</th></tr><tr><td>Potassium [Moles/volume] in Blood</td><td>4.3</td><td>3.5 - 5.1</td><td></td><td>mmol/L</td></tr></table></div>"
        },
        "status": "final",
        "subject": {
          "reference": "urn:uuid:ef245c67-ab38-416a-8e57-16cd98255691",
          "display": "Meaghan Neary"
        },
        "effectiveDateTime": "2019-04-22T22:11:04Z",
        "specimen": {
          "reference": "urn:uuid:bcd42d34-671f-4848-aae1-c725e5e84840"
        }
      }
    },
    {
      "fullUrl": "urn:uuid:85e5dc6c-2473-41f5-9195-9854599a5711",
      "resource": {
        "resourceType": "Observation",
        "id": "85e5dc6c-2473-41f5-9195-9854599a5711",
        "meta": {
          "profile": [
            "http://hl7.eu/fhir/laboratory/StructureDefinition/Observation-resultslab-eu-lab"
          ]
        },
        "performer": [
          {
            "display": "The Central European Lab"
          }
        ],
        "category": [
          {
            "coding": [
              {
                "system": "http://terminology.hl7.org/CodeSystem/observation-category",
                "code": "laboratory"
              }
            ]
          }
        ],
        "code": {
          "coding": [
            {
              "code": "2069-3",
              "system": "http://loinc.org",
              "display": "Chloride [Moles/volume] in Blood"
            }
          ],
          "text": "Chloride [Moles/volume] in Blood"
        },
        "valueQuantity": {
          "system": "http://unitsofmeasure.org",
          "value": 104.7,
          "unit": "mmol/L",
          "code": "mmol/L"
        },
        "referenceRange": [
          {
            "low": {
              "value": 98,
              "code": "mmol/L",
              "system": "http://unitsofmeasure.org"
            }
          },
          {
            "high": {
              "value": 108,
              "code": "mmol/L",
              "system": "http://unitsofmeasure.org"
            }
          }
        ],
        "text": {
          "status": "generated",
          "div": "<div xmlns=\"http://www.w3.org/1999/xhtml\"><table class=\"hl7__eu__lab__report\"><tr><th>Test</th><th>23-Apr-2019</th><th>Reference&#xA0;Range</th><th>Unit</th></tr><tr><td>Chloride [Moles/volume] in Blood</td><td>104.7</td><td>98 - 108</td><td></td><td>mmol/L</td></tr></table></div>"
        },
        "status": "final",
        "subject": {
          "reference": "urn:uuid:ef245c67-ab38-416a-8e57-16cd98255691",
          "display": "Meaghan Neary"
        },
        "effectiveDateTime": "2019-04-22T22:11:04Z",
        "specimen": {
          "reference": "urn:uuid:bcd42d34-671f-4848-aae1-c725e5e84840"
        }
      }
    },
    {
      "fullUrl": "urn:uuid:61afd5d2-d2f9-4e67-af9c-1ca437bc0304",
      "resource": {
        "resourceType": "Observation",
        "id": "61afd5d2-d2f9-4e67-af9c-1ca437bc0304",
        "meta": {
          "profile": [
            "http://hl7.eu/fhir/laboratory/StructureDefinition/Observation-resultslab-eu-lab"
          ]
        },
        "performer": [
          {
            "display": "The Central European Lab"
          }
        ],
        "category": [
          {
            "coding": [
              {
                "system": "http://terminology.hl7.org/CodeSystem/observation-category",
                "code": "laboratory"
              }
            ]
          }
        ],
        "code": {
          "coding": [
            {
              "code": "20565-8",
              "system": "http://loinc.org",
              "display": "Carbon dioxide, total [Moles/volume] in Blood"
            }
          ],
          "text": "Carbon dioxide, total [Moles/volume] in Blood"
        },
        "valueQuantity": {
          "system": "http://unitsofmeasure.org",
          "value": 23,
          "unit": "mmol/L",
          "code": "mmol/L"
        },
        "referenceRange": [
          {
            "low": {
              "value": 22,
              "code": "mmol/L",
              "system": "http://unitsofmeasure.org"
            }
          },
          {
            "high": {
              "value": 29,
              "code": "mmol/L",
              "system": "http://unitsofmeasure.org"
            }
          }
        ],
        "text": {
          "status": "generated",
          "div": "<div xmlns=\"http://www.w3.org/1999/xhtml\"><table class=\"hl7__eu__lab__report\"><tr><th>Test</th><th>23-Apr-2019</th><th>Reference&#xA0;Range</th><th>Unit</th></tr><tr><td>Carbon dioxide, total [Moles/volume] in Blood</td><td>23.0</td><td>22 - 29</td><td></td><td>mmol/L</td></tr></table></div>"
        },
        "status": "final",
        "subject": {
          "reference": "urn:uuid:ef245c67-ab38-416a-8e57-16cd98255691",
          "display": "Meaghan Neary"
        },
        "effectiveDateTime": "2019-04-22T22:11:04Z",
        "specimen": {
          "reference": "urn:uuid:bcd42d34-671f-4848-aae1-c725e5e84840"
        }
      }
    },
    {
      "fullUrl": "urn:uuid:27a42f12-2441-42fc-afdb-2ab274b998e3",
      "resource": {
        "resourceType": "Device",
        "id": "27a42f12-2441-42fc-afdb-2ab274b998e3",
        "deviceName": [
          {
            "name": "SYNDERAI Synthetic Generator",
            "type": "manufacturer-name"
          }
        ],
        "version": [
          {
            "value": "5.0"
          }
        ],
        "text": {
          "status": "generated",
          "div": "<div xmlns=\"http://www.w3.org/1999/xhtml\">SYNDERAI Synthetic Generator v5.0</div>"
        },
        "status": "active\"",
        "distinctIdentifier": "synderai-generator-50",
        "manufacturer": "SYNDERAI Project"
      }
    },
    {
      "fullUrl": "urn:uuid:0d9cdb49-abdb-41e6-98d5-9769941f88f3",
      "resource": {
        "resourceType": "Provenance",
        "id": "0d9cdb49-abdb-41e6-98d5-9769941f88f3",
        "target": [
          {
            "reference": "Patient/ef245c67-ab38-416a-8e57-16cd98255691"
          },
          {
            "reference": "Bundle/3e282611-f332-4abb-918c-2a6bf8aecedb"
          },
          {
            "reference": "Composition/6b25cc0f-aaf6-4694-a9a1-2ccc29f1626d"
          },
          {
            "reference": "PractitionerRole/c8d202fe-54a9-4d2a-b81b-96158ceaca88"
          },
          {
            "reference": "Practitioner/7d045850-8bf5-4f77-ac94-0c78382d0c13"
          },
          {
            "reference": "PractitionerRole/4ef0bb84-2712-4311-b850-2827f38f1078"
          },
          {
            "reference": "Organization/c4a20f35-e8cf-4137-b2c3-1a8e94b9ea03"
          }
        ],
        "activity": {
          "text": "Synthetic Example Data Generation"
        },
        "policy": [
          "https://synderai.net/synderai-synthetic-data-policy"
        ],
        "agent": [
          {
            "type": {
              "text": "author"
            },
            "who": {
              "reference": "Device/27a42f12-2441-42fc-afdb-2ab274b998e3"
            }
          }
        ],
        "reason": [
          {
            "text": "Interoperability Testing and Training (non-clinical use)"
          }
        ],
        "text": {
          "status": "generated",
          "div": "<div xmlns=\"http://www.w3.org/1999/xhtml\">Provenance for SYNDERAI Synthetic Example Data Resource</div>"
        },
        "recorded": "2019-04-23T00:11:04Z"
      }
    },
    {
      "fullUrl": "urn:uuid:c8d202fe-54a9-4d2a-b81b-96158ceaca88",
      "resource": {
        "resourceType": "PractitionerRole",
        "id": "c8d202fe-54a9-4d2a-b81b-96158ceaca88",
        "meta": {
          "profile": [
            "http://hl7.eu/fhir/base/StructureDefinition/practitionerRole-eu"
          ]
        },
        "text": {
          "status": "generated",
          "div": "<div xmlns=\"http://www.w3.org/1999/xhtml\">Laboratory Role Id: c8d202fe-54a9-4d2a-b81b-96158ceaca88</div>"
        },
        "practitioner": {
          "reference": "urn:uuid:7d045850-8bf5-4f77-ac94-0c78382d0c13"
        }
      }
    },
    {
      "fullUrl": "urn:uuid:7d045850-8bf5-4f77-ac94-0c78382d0c13",
      "resource": {
        "resourceType": "Practitioner",
        "id": "7d045850-8bf5-4f77-ac94-0c78382d0c13",
        "meta": {
          "profile": [
            "http://hl7.eu/fhir/base/StructureDefinition/practitioner-eu"
          ]
        },
        "identifier": [
          {
            "assigner": {
              "display": "HL7 Europe"
            },
            "system": "urn:oid:2.16.840.1.113883.2.51.999",
            "value": "34b23527-747f-4bc5-a98c-2745b5f59076"
          }
        ],
        "name": [
          {
            "prefix": [
              "dr"
            ],
            "given": [
              "Ex"
            ],
            "family": "Ample"
          }
        ],
        "address": [
          {
            "line": [
              "Laboratoire Central Europenne",
              "Boulevard du Jardin Botanique 32"
            ],
            "postalCode": "1000",
            "city": "Brussels",
            "country": "Belgium"
          }
        ],
        "text": {
          "status": "generated",
          "div": "<div xmlns=\"http://www.w3.org/1999/xhtml\">Laboratory: Laboratoire Central Europenne, 1000 Brussels, Belgium</div>"
        }
      }
    }
  ],
  "type": "document",
  "timestamp": "2019-04-23T00:11:04Z"
}
