{
  "resourceType": "Bundle",
  "id": "475ec675-5fdb-4b95-9826-fd1a1a4acf88",
  "meta": {
    "profile": [
      "http://hl7.eu/fhir/laboratory/StructureDefinition/Bundle-eu-lab"
    ]
  },
  "identifier": {
    "assigner": {
      "display": "HL7 Europe"
    },
    "system": "urn:oid:2.16.840.1.113883.2.51.999",
    "value": "7feb128d-0e51-4d96-b7e8-bedf6cc62714"
  },
  "entry": [
    {
      "fullUrl": "urn:uuid:25014c58-33e7-4d74-b36f-e66abe57a94b",
      "resource": {
        "resourceType": "Composition",
        "id": "25014c58-33e7-4d74-b36f-e66abe57a94b",
        "meta": {
          "profile": [
            "http://hl7.eu/fhir/laboratory/StructureDefinition/Composition-eu-lab"
          ]
        },
        "identifier": {
          "assigner": {
            "display": "HL7 Europe"
          },
          "system": "urn:oid:2.16.840.1.113883.2.51.999",
          "value": "93132385-cdd7-4ab1-8819-015523c328c9"
        },
        "author": [
          {
            "reference": "urn:uuid:37fd29ab-00b7-4edc-a5e0-b179ad9163c5"
          }
        ],
        "category": [
          {
            "coding": [
              {
                "code": "26436-6",
                "system": "http://loinc.org",
                "display": "Laboratory studies (set)"
              }
            ]
          }
        ],
        "type": {
          "coding": [
            {
              "code": "11502-2",
              "system": "http://loinc.org",
              "display": "Laboratory report"
            }
          ],
          "text": "Laboratory Report"
        },
        "section": [
          {
            "code": {
              "coding": [
                {
                  "code": "26436-6",
                  "system": "http://loinc.org",
                  "display": "Laboratory studies (set)"
                }
              ],
              "text": "Laboratory studies"
            },
            "section": [
              {
                "code": {
                  "coding": [
                    {
                      "code": "$18719-5",
                      "system": "http://loinc.org",
                      "display": "Chemistry studies (set)"
                    }
                  ],
                  "text": "Chemistry"
                },
                "entry": [
                  {
                    "reference": "urn:uuid:e32c9e02-9823-4ede-bbf5-1f97232060c4"
                  },
                  {
                    "reference": "urn:uuid:9c96ada7-a9e2-42a8-84cd-ac661792deb8"
                  },
                  {
                    "reference": "urn:uuid:e73b3433-7fbb-4138-821c-3e5f17f6b38e"
                  },
                  {
                    "reference": "urn:uuid:93a171d3-2180-41ff-ad0f-eb069c31f2e3"
                  },
                  {
                    "reference": "urn:uuid:7684b084-2904-4773-a9a1-ef42304e4225"
                  },
                  {
                    "reference": "urn:uuid:b3062e08-2d1d-4278-9baa-ec5aebb1b135"
                  },
                  {
                    "reference": "urn:uuid:093e4d16-02e8-4bf9-b763-f29d289cf741"
                  },
                  {
                    "reference": "urn:uuid:811e3e98-e767-4a9a-b93a-18c57ce2a167"
                  },
                  {
                    "reference": "urn:uuid:d09c07b8-52c3-4d22-add9-efd42176f7b3"
                  },
                  {
                    "reference": "urn:uuid:f80125f0-86d0-40a1-965f-381091dfb403"
                  },
                  {
                    "reference": "urn:uuid:95d03d86-b991-45e0-b7fb-6e491dcec479"
                  },
                  {
                    "reference": "urn:uuid:db3b839e-3fdf-4b4c-83ca-ab4ab81b9083"
                  },
                  {
                    "reference": "urn:uuid:70ae355e-24af-4993-aeb1-9116cee03553"
                  },
                  {
                    "reference": "urn:uuid:f0d91def-7c3b-4bd6-ba70-b62910d72f30"
                  },
                  {
                    "reference": "urn:uuid:87f13865-f424-4329-927a-d789084463e5"
                  },
                  {
                    "reference": "urn:uuid:e700edb9-b420-4fa8-a40c-d80953923bd9"
                  },
                  {
                    "reference": "urn:uuid:e59ebf71-d2bf-41d5-9a7e-1c77c158b40a"
                  },
                  {
                    "reference": "urn:uuid:ca575b88-cbdc-4f94-a809-5194e5df3b63"
                  }
                ],
                "text": {
                  "status": "generated",
                  "div": "<div xmlns=\"http://www.w3.org/1999/xhtml\"><h3>Chemistry</h3><table class=\"hl7__eu__lab__report\"><thead><tr><th>Test</th><th>17-JUN-2025</th><th>Reference&#xA0;Range</th><th>Unit</th></tr></thead><tbody><tr><td>Glucose [Mass/volume] in Serum or Plasma</td><td>82.5</td><td>70 - 99</td><td>mg/dL</td></tr><tr><td>Urea nitrogen [Mass/volume] in Serum or Plasma</td><td>10.7</td><td>7 - 50</td><td>mg/dL</td></tr><tr><td>Creatinine [Mass/volume] in Serum or Plasma</td><td><strong>2.1 H</strong></td><td>0.6 - 1.1</td><td>mg/dL</td></tr><tr><td>Calcium [Mass/volume] in Serum or Plasma</td><td>9.2</td><td>8.6 - 10.4</td><td>mg/dL</td></tr><tr><td>Sodium [Moles/volume] in Serum or Plasma</td><td>139.0</td><td>135 - 145</td><td>mmol/L</td></tr><tr><td>Potassium [Moles/volume] in Serum or Plasma</td><td>5.0</td><td>3.5 - 5.1</td><td>mmol/L</td></tr><tr><td>Chloride [Moles/volume] in Serum or Plasma</td><td>102.5</td><td>98 - 108</td><td>mmol/L</td></tr><tr><td>Carbon dioxide, total [Moles/volume] in Serum or Plasma</td><td>26.7</td><td>22 - 32</td><td>mmol/L</td></tr><tr><td>Ketones [Presence] in Urine by Test strip</td><td>Urine ketone test = ++</td><td></td><td></td></tr><tr><td>Hemoglobin A1c/Hemoglobin.total in Blood</td><td>4.0</td><td>4 - 6.4</td><td>%</td></tr><tr><td>Glucose [Mass/volume] in Blood</td><td>82.5</td><td>70 - 100</td><td>mg/dL</td></tr><tr><td>Urea nitrogen [Mass/volume] in Blood</td><td>10.7</td><td>7 - 43</td><td>mg/dL</td></tr><tr><td>Creatinine [Mass/volume] in Blood</td><td><strong>3.2 H</strong></td><td>0.6 - 1.1</td><td>mg/dL</td></tr><tr><td>Calcium [Mass/volume] in Blood</td><td>9.2</td><td>8.5 - 10.5</td><td>mg/dL</td></tr><tr><td>Sodium [Moles/volume] in Blood</td><td>139.0</td><td>135 - 145</td><td>mmol/L</td></tr><tr><td>Potassium [Moles/volume] in Blood</td><td>5.0</td><td>3.5 - 5.1</td><td>mmol/L</td></tr><tr><td>Chloride [Moles/volume] in Blood</td><td>102.5</td><td>98 - 108</td><td>mmol/L</td></tr><tr><td>Carbon dioxide, total [Moles/volume] in Blood</td><td>26.7</td><td>22 - 29</td><td>mmol/L</td></tr></tbody></table></div>"
                },
                "title": "Chemistry"
              },
              {
                "code": {
                  "coding": [
                    {
                      "code": "$18729-4",
                      "system": "http://loinc.org",
                      "display": "Urinalysis studies (set)"
                    }
                  ],
                  "text": "Urinalysis"
                },
                "entry": [
                  {
                    "reference": "urn:uuid:28182439-3af8-4292-8885-fbd96aa92001"
                  },
                  {
                    "reference": "urn:uuid:5a16c0fe-58b8-4910-b2a1-6c0a2c77b853"
                  },
                  {
                    "reference": "urn:uuid:369f66e9-0182-433a-ad01-40d63d0d8bd6"
                  },
                  {
                    "reference": "urn:uuid:7c85a8de-2a50-474c-abe4-1564ffad3f96"
                  },
                  {
                    "reference": "urn:uuid:9403b967-5635-4c82-b7eb-f8919cd32f47"
                  },
                  {
                    "reference": "urn:uuid:8a7ec967-f98e-453d-9897-c5ed51d65821"
                  },
                  {
                    "reference": "urn:uuid:37431636-1fb1-4978-9ecf-80d3821569d5"
                  },
                  {
                    "reference": "urn:uuid:11a8cde3-be8d-4c62-9113-84b6e90c73bf"
                  },
                  {
                    "reference": "urn:uuid:3e93ac80-8427-4ae1-bc7c-411d83468295"
                  },
                  {
                    "reference": "urn:uuid:1ba65299-80f2-4564-b335-a035877c8991"
                  },
                  {
                    "reference": "urn:uuid:5a4a7db7-c740-4c95-b1fa-59ac1227ce31"
                  },
                  {
                    "reference": "urn:uuid:e20740d7-25e4-4e2b-ab06-8f7c1735b9af"
                  }
                ],
                "text": {
                  "status": "generated",
                  "div": "<div xmlns=\"http://www.w3.org/1999/xhtml\"><h3>Urinalysis</h3><table class=\"hl7__eu__lab__report\"><thead><tr><th>Test</th><th>17-JUN-2025</th><th>Reference&#xA0;Range</th><th>Unit</th></tr></thead><tbody><tr><td>Glucose [Mass/volume] in Urine by Test strip</td><td><strong>0.9 H</strong></td><td>0.8 - 0</td><td>mg/dL</td></tr><tr><td>Glucose [Presence] in Urine by Test strip</td><td>++</td><td></td><td></td></tr><tr><td>Bilirubin.total [Mass/volume] in Urine by Test strip</td><td>0.6</td><td>0 - 1</td><td>mg/dL</td></tr><tr><td>Bilirubin.total [Presence] in Urine by Test strip</td><td>Finding of bilirubin in urine</td><td></td><td></td></tr><tr><td>Ketones [Mass/volume] in Urine by Test strip</td><td>0.0</td><td>0 - 4</td><td>mg/dL</td></tr><tr><td>Specific gravity of Urine by Test strip</td><td><strong>1.0 L</strong></td><td>1.005 - 1.03</td><td>{nominal}</td></tr><tr><td>pH of Urine by Test strip</td><td>5.3</td><td>4.6 - 7</td><td>pH</td></tr><tr><td>Protein [Mass/volume] in Urine by Test strip</td><td><strong>291.5 H</strong></td><td>0 - 14</td><td>mg/dL</td></tr><tr><td>Protein [Presence] in Urine by Test strip</td><td>Urine protein test = ++</td><td></td><td></td></tr><tr><td>Nitrite [Presence] in Urine by Test strip</td><td>Urine nitrite negative</td><td></td><td></td></tr><tr><td>Hemoglobin [Presence] in Urine by Test strip</td><td>Urine blood test = negative</td><td></td><td></td></tr><tr><td>Leukocyte esterase [Presence] in Urine by Test strip</td><td>Urine leukocyte test negative</td><td></td><td></td></tr></tbody></table></div>"
                },
                "title": "Urinalysis"
              },
              {
                "code": {
                  "coding": [
                    {
                      "code": "$LP7846-1",
                      "system": "http://loinc.org",
                      "display": "Specimen information"
                    }
                  ],
                  "text": "Specimen information"
                },
                "entry": [
                  {
                    "reference": "urn:uuid:b2117ea9-1f28-4d94-8e62-6d2dc62e244b"
                  },
                  {
                    "reference": "urn:uuid:ac7c4281-3d34-4a74-8862-0b55fecd518e"
                  },
                  {
                    "reference": "urn:uuid:64eb03ff-508f-46f4-82d0-d5a78bbb00e8"
                  },
                  {
                    "reference": "urn:uuid:5b092bb3-c678-4947-9a29-ceca90c0b420"
                  }
                ],
                "text": {
                  "status": "generated",
                  "div": "<div xmlns=\"http://www.w3.org/1999/xhtml\"><h3>Specimen information</h3><table class=\"hl7__eu__lab__report\"><thead><tr><th>Test</th><th>17-JUN-2025</th><th>Specimen</th><th></th></tr></thead><tbody><tr><td>Appearance of Urine</td><td>Cloudy urine</td><td>Urine</td><td></td></tr><tr><td>Odor of Urine</td><td>Urine smell ammoniacal</td><td>Urine</td><td></td></tr><tr><td>Clarity of Urine</td><td>Translucent</td><td>Urine</td><td></td></tr><tr><td>Color of Urine</td><td>Brown color</td><td>Urine</td><td></td></tr></tbody></table></div>"
                },
                "title": "Specimen information"
              }
            ],
            "title": "Laboratory Report"
          },
          {
            "text": {
              "status": "generated",
              "div": "<div xmlns=\"http://www.w3.org/1999/xhtml\"><h3>Annotation</h3><table class=\"hl7__eu__lab__report\"><tr><th>Conclusion and Recommendations based on this report and previous findings known to us</th></tr><tr><td>The patient shows significantly elevated creatinine in both serum and blood, and marked proteinuria, suggesting impaired renal function, possibly chronic kidney disease. Urine findings (cloudy, brown, low specific gravity, protein, glucose, ketones, bilirubin) further support renal dysfunction. Blood glucose and HbA1c are normal, making diabetes less likely as a cause. No evidence of urinary tract infection. Recommend nephrology evaluation and further assessment of renal function and etiology.</td></tr></table></div>"
            },
            "code": {
              "coding": [
                {
                  "system": "http://loinc.org",
                  "code": "48767-8",
                  "display": "Annotation comment"
                }
              ]
            },
            "title": "Annotation comment"
          }
        ],
        "status": "final",
        "subject": {
          "reference": "urn:uuid:80e6d13e-dd8e-4137-aaad-d8117e55ca1a",
          "display": "Meaghan Neary"
        },
        "date": "2025-06-17T00:11:04Z",
        "title": "Laboratory Report",
        "confidentiality": "N"
      }
    },
    {
      "fullUrl": "urn:uuid:29711f1c-7680-44c3-a325-ebd397298f71",
      "resource": {
        "resourceType": "DiagnosticReport",
        "id": "29711f1c-7680-44c3-a325-ebd397298f71",
        "meta": {
          "profile": [
            "http://hl7.eu/fhir/laboratory/StructureDefinition/DiagnosticReport-eu-lab"
          ]
        },
        "identifier": [
          {
            "assigner": {
              "display": "HL7 Europe"
            },
            "system": "urn:oid:2.16.840.1.113883.2.51.999",
            "value": "61dc4fb3-2c2b-469c-af37-0cb18bf7082c"
          }
        ],
        "extension": [
          {
            "url": "http://hl7.org/fhir/5.0/StructureDefinition/extension-DiagnosticReport.composition",
            "valueReference": {
              "reference": "urn:uuid:93132385-cdd7-4ab1-8819-015523c328c9"
            }
          }
        ],
        "category": [
          {
            "coding": [
              {
                "code": "26436-6",
                "system": "http://loinc.org",
                "display": "Laboratory studies (set)"
              }
            ]
          }
        ],
        "specimen": [
          {
            "reference": "urn:uuid:55aa85aa-6e47-4a21-a237-c845f2484513"
          },
          {
            "reference": "urn:uuid:b1ea49bc-c9df-4eda-a12d-86d74922433e"
          },
          {
            "reference": "urn:uuid:672eee85-bda3-4c3d-8bfb-b8c30332b3d8"
          }
        ],
        "result": [
          {
            "reference": "urn:uuid:e32c9e02-9823-4ede-bbf5-1f97232060c4"
          },
          {
            "reference": "urn:uuid:9c96ada7-a9e2-42a8-84cd-ac661792deb8"
          },
          {
            "reference": "urn:uuid:e73b3433-7fbb-4138-821c-3e5f17f6b38e"
          },
          {
            "reference": "urn:uuid:93a171d3-2180-41ff-ad0f-eb069c31f2e3"
          },
          {
            "reference": "urn:uuid:7684b084-2904-4773-a9a1-ef42304e4225"
          },
          {
            "reference": "urn:uuid:b3062e08-2d1d-4278-9baa-ec5aebb1b135"
          },
          {
            "reference": "urn:uuid:093e4d16-02e8-4bf9-b763-f29d289cf741"
          },
          {
            "reference": "urn:uuid:811e3e98-e767-4a9a-b93a-18c57ce2a167"
          },
          {
            "reference": "urn:uuid:b2117ea9-1f28-4d94-8e62-6d2dc62e244b"
          },
          {
            "reference": "urn:uuid:ac7c4281-3d34-4a74-8862-0b55fecd518e"
          },
          {
            "reference": "urn:uuid:64eb03ff-508f-46f4-82d0-d5a78bbb00e8"
          },
          {
            "reference": "urn:uuid:5b092bb3-c678-4947-9a29-ceca90c0b420"
          },
          {
            "reference": "urn:uuid:28182439-3af8-4292-8885-fbd96aa92001"
          },
          {
            "reference": "urn:uuid:5a16c0fe-58b8-4910-b2a1-6c0a2c77b853"
          },
          {
            "reference": "urn:uuid:369f66e9-0182-433a-ad01-40d63d0d8bd6"
          },
          {
            "reference": "urn:uuid:7c85a8de-2a50-474c-abe4-1564ffad3f96"
          },
          {
            "reference": "urn:uuid:9403b967-5635-4c82-b7eb-f8919cd32f47"
          },
          {
            "reference": "urn:uuid:d09c07b8-52c3-4d22-add9-efd42176f7b3"
          },
          {
            "reference": "urn:uuid:8a7ec967-f98e-453d-9897-c5ed51d65821"
          },
          {
            "reference": "urn:uuid:37431636-1fb1-4978-9ecf-80d3821569d5"
          },
          {
            "reference": "urn:uuid:11a8cde3-be8d-4c62-9113-84b6e90c73bf"
          },
          {
            "reference": "urn:uuid:3e93ac80-8427-4ae1-bc7c-411d83468295"
          },
          {
            "reference": "urn:uuid:1ba65299-80f2-4564-b335-a035877c8991"
          },
          {
            "reference": "urn:uuid:5a4a7db7-c740-4c95-b1fa-59ac1227ce31"
          },
          {
            "reference": "urn:uuid:e20740d7-25e4-4e2b-ab06-8f7c1735b9af"
          },
          {
            "reference": "urn:uuid:f80125f0-86d0-40a1-965f-381091dfb403"
          },
          {
            "reference": "urn:uuid:95d03d86-b991-45e0-b7fb-6e491dcec479"
          },
          {
            "reference": "urn:uuid:db3b839e-3fdf-4b4c-83ca-ab4ab81b9083"
          },
          {
            "reference": "urn:uuid:70ae355e-24af-4993-aeb1-9116cee03553"
          },
          {
            "reference": "urn:uuid:f0d91def-7c3b-4bd6-ba70-b62910d72f30"
          },
          {
            "reference": "urn:uuid:87f13865-f424-4329-927a-d789084463e5"
          },
          {
            "reference": "urn:uuid:e700edb9-b420-4fa8-a40c-d80953923bd9"
          },
          {
            "reference": "urn:uuid:e59ebf71-d2bf-41d5-9a7e-1c77c158b40a"
          },
          {
            "reference": "urn:uuid:ca575b88-cbdc-4f94-a809-5194e5df3b63"
          }
        ],
        "status": "registered",
        "code": {
          "coding": [
            {
              "code": "11502-2",
              "system": "http://loinc.org",
              "display": "Laboratory report"
            }
          ]
        },
        "subject": {
          "reference": "urn:uuid:80e6d13e-dd8e-4137-aaad-d8117e55ca1a",
          "display": "Meaghan Neary"
        }
      }
    },
    {
      "fullUrl": "urn:uuid:80e6d13e-dd8e-4137-aaad-d8117e55ca1a",
      "resource": {
        "resourceType": "Patient",
        "id": "80e6d13e-dd8e-4137-aaad-d8117e55ca1a",
        "meta": {
          "security": [
            {
              "system": "http://terminology.hl7.org/CodeSystem/v3-ActReason",
              "code": "HTEST"
            },
            {
              "system": "http://terminology.hl7.org/CodeSystem/v3-ActReason",
              "code": "TRAIN"
            }
          ],
          "tag": [
            {
              "system": "https://synderai.net/fhir/CodeSystem/tags",
              "code": "synthetic",
              "display": "SYNDERAI Synthetic data"
            }
          ],
          "profile": [
            "http://hl7.eu/fhir/base/StructureDefinition/patient-eu-core"
          ]
        },
        "identifier": [
          {
            "type": {
              "coding": [
                {
                  "code": "PT",
                  "system": "http://terminology.hl7.org/CodeSystem/v2-0203"
                }
              ]
            },
            "system": "http://ec.europa.eu/identifier/eci",
            "value": "1586-567257-8"
          },
          {
            "type": {
              "coding": [
                {
                  "code": "MR",
                  "system": "http://terminology.hl7.org/CodeSystem/v2-0203"
                }
              ]
            },
            "system": "http://local.setting.eu/identifier",
            "value": "443e6379-f231-b364-3ccb-644740a1aa2a"
          }
        ],
        "name": [
          {
            "family": "Neary"
          },
          {
            "given": [
              "Meaghan"
            ]
          },
          {
            "text": "Meaghan Neary"
          }
        ],
        "address": [
          {
            "line": [
              "64 Linskey Street"
            ],
            "use": "home",
            "type": "physical",
            "postalCode": "D02",
            "city": "Dublin",
            "country": "Ireland"
          }
        ],
        "telecom": [
          {
            "system": "phone",
            "value": "001-967-573-0911x465"
          }
        ],
        "extension": [
          {
            "url": "http://hl7.org/fhir/StructureDefinition/patient-nationality",
            "valueCodeableConcept": {
              "coding": [
                {
                  "code": "IE",
                  "system": "http://hl7.org/fhir/ValueSet/country"
                }
              ]
            }
          }
        ],
        "text": {
          "status": "generated",
          "div": "<div xmlns=\"http://www.w3.org/1999/xhtml\"><table class=\"hl7__ips\"><tr><td>Meaghan Neary</td><td>female</td><td>19-Dec-1960</td></tr></table></div>"
        },
        "gender": "female",
        "birthDate": "1960-12-19"
      }
    },
    {
      "fullUrl": "urn:uuid:47595ebe-de0a-4c58-8a0c-f481683da8b7",
      "resource": {
        "resourceType": "ServiceRequest",
        "id": "47595ebe-de0a-4c58-8a0c-f481683da8b7",
        "meta": {
          "profile": [
            "http://hl7.eu/fhir/laboratory/StructureDefinition/ServiceRequest-eu-lab"
          ]
        },
        "identifier": [
          {
            "system": "http://example.org",
            "value": "34b440fb-cb4f-4f33-adef-30605e45440f"
          }
        ],
        "specimen": [
          {
            "reference": "urn:uuid:55aa85aa-6e47-4a21-a237-c845f2484513"
          },
          {
            "reference": "urn:uuid:b1ea49bc-c9df-4eda-a12d-86d74922433e"
          },
          {
            "reference": "urn:uuid:672eee85-bda3-4c3d-8bfb-b8c30332b3d8"
          }
        ],
        "reasonCode": [
          {
            "coding": [
              {
                "code": "55822004",
                "system": "http://snomed.info/sct",
                "display": "Hyperlipidemia"
              }
            ]
          },
          {
            "coding": [
              {
                "code": "433144002",
                "system": "http://snomed.info/sct",
                "display": "Chronic kidney disease stage 3"
              }
            ]
          },
          {
            "coding": [
              {
                "code": "157141000119108",
                "system": "http://snomed.info/sct",
                "display": "Proteinuria due to type 2 diabetes mellitus"
              }
            ]
          },
          {
            "coding": [
              {
                "code": "431856006",
                "system": "http://snomed.info/sct",
                "display": "Chronic kidney disease stage 2"
              }
            ]
          },
          {
            "coding": [
              {
                "code": "90781000119102",
                "system": "http://snomed.info/sct",
                "display": "Microalbuminuria due to type 2 diabetes mellitus"
              }
            ]
          },
          {
            "coding": [
              {
                "code": "127013003",
                "system": "http://snomed.info/sct",
                "display": "Disorder of kidney due to diabetes mellitus"
              }
            ]
          },
          {
            "coding": [
              {
                "code": "431855005",
                "system": "http://snomed.info/sct",
                "display": "Chronic kidney disease stage 1"
              }
            ]
          },
          {
            "coding": [
              {
                "code": "237602007",
                "system": "http://snomed.info/sct",
                "display": "Metabolic syndrome X"
              }
            ]
          },
          {
            "coding": [
              {
                "code": "271737000",
                "system": "http://snomed.info/sct",
                "display": "Anemia"
              }
            ]
          },
          {
            "coding": [
              {
                "code": "15777000",
                "system": "http://snomed.info/sct",
                "display": "Prediabetes"
              }
            ]
          },
          {
            "coding": [
              {
                "code": "59621000",
                "system": "http://snomed.info/sct",
                "display": "Essential hypertension"
              }
            ]
          }
        ],
        "status": "active",
        "intent": "order",
        "code": {
          "coding": [
            {
              "code": "108252007",
              "system": "http://snomed.info/sct",
              "display": "Laboratory procedure"
            }
          ]
        },
        "subject": {
          "reference": "urn:uuid:80e6d13e-dd8e-4137-aaad-d8117e55ca1a",
          "display": "Meaghan Neary"
        },
        "requester": {
          "reference": "urn:uuid:c1db21f5-f991-4958-a29c-38a86547ff4c"
        }
      }
    },
    {
      "fullUrl": "urn:uuid:c1db21f5-f991-4958-a29c-38a86547ff4c",
      "resource": {
        "resourceType": "PractitionerRole",
        "id": "c1db21f5-f991-4958-a29c-38a86547ff4c",
        "meta": {
          "profile": [
            "http://hl7.eu/fhir/base/StructureDefinition/practitionerRole-eu"
          ]
        },
        "text": {
          "status": "generated",
          "div": "<div xmlns=\"http://www.w3.org/1999/xhtml\">Provider Role Id: c1db21f5-f991-4958-a29c-38a86547ff4c</div>"
        },
        "organization": {
          "reference": "urn:uuid:e941d7ba-eee2-495b-bcb3-808212fb241b"
        }
      }
    },
    {
      "fullUrl": "urn:uuid:e941d7ba-eee2-495b-bcb3-808212fb241b",
      "resource": {
        "resourceType": "Organization",
        "id": "e941d7ba-eee2-495b-bcb3-808212fb241b",
        "meta": {
          "profile": [
            "http://hl7.eu/fhir/base/StructureDefinition/organization-eu"
          ]
        },
        "identifier": [
          {
            "assigner": {
              "display": "HL7 Europe"
            },
            "system": "urn:oid:2.16.840.1.113883.2.51.999",
            "value": "18a90100-56a8-4f86-b13b-3fa9007eaa97"
          }
        ],
        "address": [
          {
            "line": [
              "Parnell Square West nan"
            ],
            "city": "Dublin",
            "postalCode": "D01",
            "country": "Ireland"
          }
        ],
        "text": {
          "status": "generated",
          "div": "<div xmlns=\"http://www.w3.org/1999/xhtml\">Provider Organization: Rotunda Hospital</div>"
        },
        "name": "Rotunda Hospital"
      }
    },
    {
      "fullUrl": "urn:uuid:55aa85aa-6e47-4a21-a237-c845f2484513",
      "resource": {
        "resourceType": "Specimen",
        "id": "55aa85aa-6e47-4a21-a237-c845f2484513",
        "meta": {
          "profile": [
            "http://hl7.eu/fhir/laboratory/StructureDefinition/Specimen-eu-lab"
          ]
        },
        "collection": {
          "collectedDateTime": "2025-06-16"
        },
        "text": {
          "status": "generated",
          "div": "<div xmlns=\"http://www.w3.org/1999/xhtml\"><table class=\"hl7__eu__lab__report\"><tr><th>Specimen</th><th>Collection Date</th></tr><tr><td>Acellular blood (serum or plasma) specimen</td><td><span class=\"nb\">16-Jun-2025</span></td></tr></table></div>"
        },
        "type": {
          "coding": [
            {
              "code": "122592007",
              "system": "http://snomed.info/sct",
              "display": "Acellular blood (serum or plasma) specimen"
            }
          ]
        }
      }
    },
    {
      "fullUrl": "urn:uuid:b1ea49bc-c9df-4eda-a12d-86d74922433e",
      "resource": {
        "resourceType": "Specimen",
        "id": "b1ea49bc-c9df-4eda-a12d-86d74922433e",
        "meta": {
          "profile": [
            "http://hl7.eu/fhir/laboratory/StructureDefinition/Specimen-eu-lab"
          ]
        },
        "collection": {
          "collectedDateTime": "2025-06-16"
        },
        "text": {
          "status": "generated",
          "div": "<div xmlns=\"http://www.w3.org/1999/xhtml\"><table class=\"hl7__eu__lab__report\"><tr><th>Specimen</th><th>Collection Date</th></tr><tr><td>Urine specimen</td><td><span class=\"nb\">16-Jun-2025</span></td></tr></table></div>"
        },
        "type": {
          "coding": [
            {
              "code": "122575003",
              "system": "http://snomed.info/sct",
              "display": "Urine specimen"
            }
          ]
        }
      }
    },
    {
      "fullUrl": "urn:uuid:672eee85-bda3-4c3d-8bfb-b8c30332b3d8",
      "resource": {
        "resourceType": "Specimen",
        "id": "672eee85-bda3-4c3d-8bfb-b8c30332b3d8",
        "meta": {
          "profile": [
            "http://hl7.eu/fhir/laboratory/StructureDefinition/Specimen-eu-lab"
          ]
        },
        "collection": {
          "collectedDateTime": "2025-06-16"
        },
        "text": {
          "status": "generated",
          "div": "<div xmlns=\"http://www.w3.org/1999/xhtml\"><table class=\"hl7__eu__lab__report\"><tr><th>Specimen</th><th>Collection Date</th></tr><tr><td>Whole blood specimen (specimen)</td><td><span class=\"nb\">16-Jun-2025</span></td></tr></table></div>"
        },
        "type": {
          "coding": [
            {
              "code": "258580003",
              "system": "http://snomed.info/sct",
              "display": "Whole blood specimen (specimen)"
            }
          ]
        }
      }
    },
    {
      "fullUrl": "urn:uuid:e32c9e02-9823-4ede-bbf5-1f97232060c4",
      "resource": {
        "resourceType": "Observation",
        "id": "e32c9e02-9823-4ede-bbf5-1f97232060c4",
        "meta": {
          "profile": [
            "http://hl7.eu/fhir/laboratory/StructureDefinition/Observation-resultslab-eu-lab"
          ]
        },
        "performer": [
          {
            "display": "The Central European Lab"
          }
        ],
        "category": [
          {
            "coding": [
              {
                "system": "http://terminology.hl7.org/CodeSystem/observation-category",
                "code": "laboratory"
              }
            ]
          }
        ],
        "code": {
          "coding": [
            {
              "code": "2345-7",
              "system": "http://loinc.org",
              "display": "Glucose [Mass/volume] in Serum or Plasma"
            }
          ],
          "text": "Glucose [Mass/volume] in Serum or Plasma"
        },
        "valueQuantity": {
          "system": "http://unitsofmeasure.org",
          "value": 82.5,
          "unit": "mg/dL",
          "code": "mg/dL"
        },
        "referenceRange": [
          {
            "low": {
              "value": 70,
              "code": "mg/dL",
              "system": "http://unitsofmeasure.org"
            }
          },
          {
            "high": {
              "value": 99,
              "code": "mg/dL",
              "system": "http://unitsofmeasure.org"
            }
          }
        ],
        "text": {
          "status": "generated",
          "div": "<div xmlns=\"http://www.w3.org/1999/xhtml\"><table class=\"hl7__eu__lab__report\"><tr><th>Test</th><th>17-Jun-2025</th><th>Reference&#xA0;Range</th><th>Unit</th></tr><tr><td>Glucose [Mass/volume] in Serum or Plasma</td><td>82.5</td><td>70 - 99</td><td></td><td>mg/dL</td></tr></table></div>"
        },
        "status": "final",
        "subject": {
          "reference": "urn:uuid:80e6d13e-dd8e-4137-aaad-d8117e55ca1a",
          "display": "Meaghan Neary"
        },
        "effectiveDateTime": "2025-06-16T22:11:04Z",
        "specimen": {
          "reference": "urn:uuid:55aa85aa-6e47-4a21-a237-c845f2484513"
        }
      }
    },
    {
      "fullUrl": "urn:uuid:9c96ada7-a9e2-42a8-84cd-ac661792deb8",
      "resource": {
        "resourceType": "Observation",
        "id": "9c96ada7-a9e2-42a8-84cd-ac661792deb8",
        "meta": {
          "profile": [
            "http://hl7.eu/fhir/laboratory/StructureDefinition/Observation-resultslab-eu-lab"
          ]
        },
        "performer": [
          {
            "display": "The Central European Lab"
          }
        ],
        "category": [
          {
            "coding": [
              {
                "system": "http://terminology.hl7.org/CodeSystem/observation-category",
                "code": "laboratory"
              }
            ]
          }
        ],
        "code": {
          "coding": [
            {
              "code": "3094-0",
              "system": "http://loinc.org",
              "display": "Urea nitrogen [Mass/volume] in Serum or Plasma"
            }
          ],
          "text": "Urea nitrogen [Mass/volume] in Serum or Plasma"
        },
        "valueQuantity": {
          "system": "http://unitsofmeasure.org",
          "value": 10.7,
          "unit": "mg/dL",
          "code": "mg/dL"
        },
        "referenceRange": [
          {
            "low": {
              "value": 7,
              "code": "mg/dL",
              "system": "http://unitsofmeasure.org"
            }
          },
          {
            "high": {
              "value": 50,
              "code": "mg/dL",
              "system": "http://unitsofmeasure.org"
            }
          }
        ],
        "text": {
          "status": "generated",
          "div": "<div xmlns=\"http://www.w3.org/1999/xhtml\"><table class=\"hl7__eu__lab__report\"><tr><th>Test</th><th>17-Jun-2025</th><th>Reference&#xA0;Range</th><th>Unit</th></tr><tr><td>Urea nitrogen [Mass/volume] in Serum or Plasma</td><td>10.7</td><td>7 - 50</td><td></td><td>mg/dL</td></tr></table></div>"
        },
        "status": "final",
        "subject": {
          "reference": "urn:uuid:80e6d13e-dd8e-4137-aaad-d8117e55ca1a",
          "display": "Meaghan Neary"
        },
        "effectiveDateTime": "2025-06-16T22:11:04Z",
        "specimen": {
          "reference": "urn:uuid:55aa85aa-6e47-4a21-a237-c845f2484513"
        }
      }
    },
    {
      "fullUrl": "urn:uuid:e73b3433-7fbb-4138-821c-3e5f17f6b38e",
      "resource": {
        "resourceType": "Observation",
        "id": "e73b3433-7fbb-4138-821c-3e5f17f6b38e",
        "meta": {
          "profile": [
            "http://hl7.eu/fhir/laboratory/StructureDefinition/Observation-resultslab-eu-lab"
          ]
        },
        "performer": [
          {
            "display": "The Central European Lab"
          }
        ],
        "category": [
          {
            "coding": [
              {
                "system": "http://terminology.hl7.org/CodeSystem/observation-category",
                "code": "laboratory"
              }
            ]
          }
        ],
        "code": {
          "coding": [
            {
              "code": "2160-0",
              "system": "http://loinc.org",
              "display": "Creatinine [Mass/volume] in Serum or Plasma"
            }
          ],
          "text": "Creatinine [Mass/volume] in Serum or Plasma"
        },
        "valueQuantity": {
          "system": "http://unitsofmeasure.org",
          "value": 2.1,
          "unit": "mg/dL",
          "code": "mg/dL"
        },
        "referenceRange": [
          {
            "low": {
              "value": 0.6,
              "code": "mg/dL",
              "system": "http://unitsofmeasure.org"
            }
          },
          {
            "high": {
              "value": 1.1,
              "code": "mg/dL",
              "system": "http://unitsofmeasure.org"
            }
          }
        ],
        "interpretation": [
          {
            "coding": [
              {
                "code": "H",
                "system": "http://terminology.hl7.org/CodeSystem/v3-ObservationInterpretation",
                "display": "High"
              }
            ]
          }
        ],
        "text": {
          "status": "generated",
          "div": "<div xmlns=\"http://www.w3.org/1999/xhtml\"><table class=\"hl7__eu__lab__report\"><tr><th>Test</th><th>17-Jun-2025</th><th>Reference&#xA0;Range</th><th>Unit</th></tr><tr><td>Creatinine [Mass/volume] in Serum or Plasma</td><td>2.1</td><td>0.6 - 1.1</td><td>H</td><td>mg/dL</td></tr></table></div>"
        },
        "status": "final",
        "subject": {
          "reference": "urn:uuid:80e6d13e-dd8e-4137-aaad-d8117e55ca1a",
          "display": "Meaghan Neary"
        },
        "effectiveDateTime": "2025-06-16T22:11:04Z",
        "specimen": {
          "reference": "urn:uuid:55aa85aa-6e47-4a21-a237-c845f2484513"
        }
      }
    },
    {
      "fullUrl": "urn:uuid:93a171d3-2180-41ff-ad0f-eb069c31f2e3",
      "resource": {
        "resourceType": "Observation",
        "id": "93a171d3-2180-41ff-ad0f-eb069c31f2e3",
        "meta": {
          "profile": [
            "http://hl7.eu/fhir/laboratory/StructureDefinition/Observation-resultslab-eu-lab"
          ]
        },
        "performer": [
          {
            "display": "The Central European Lab"
          }
        ],
        "category": [
          {
            "coding": [
              {
                "system": "http://terminology.hl7.org/CodeSystem/observation-category",
                "code": "laboratory"
              }
            ]
          }
        ],
        "code": {
          "coding": [
            {
              "code": "17861-6",
              "system": "http://loinc.org",
              "display": "Calcium [Mass/volume] in Serum or Plasma"
            }
          ],
          "text": "Calcium [Mass/volume] in Serum or Plasma"
        },
        "valueQuantity": {
          "system": "http://unitsofmeasure.org",
          "value": 9.2,
          "unit": "mg/dL",
          "code": "mg/dL"
        },
        "referenceRange": [
          {
            "low": {
              "value": 8.6,
              "code": "mg/dL",
              "system": "http://unitsofmeasure.org"
            }
          },
          {
            "high": {
              "value": 10.4,
              "code": "mg/dL",
              "system": "http://unitsofmeasure.org"
            }
          }
        ],
        "text": {
          "status": "generated",
          "div": "<div xmlns=\"http://www.w3.org/1999/xhtml\"><table class=\"hl7__eu__lab__report\"><tr><th>Test</th><th>17-Jun-2025</th><th>Reference&#xA0;Range</th><th>Unit</th></tr><tr><td>Calcium [Mass/volume] in Serum or Plasma</td><td>9.2</td><td>8.6 - 10.4</td><td></td><td>mg/dL</td></tr></table></div>"
        },
        "status": "final",
        "subject": {
          "reference": "urn:uuid:80e6d13e-dd8e-4137-aaad-d8117e55ca1a",
          "display": "Meaghan Neary"
        },
        "effectiveDateTime": "2025-06-16T22:11:04Z",
        "specimen": {
          "reference": "urn:uuid:55aa85aa-6e47-4a21-a237-c845f2484513"
        }
      }
    },
    {
      "fullUrl": "urn:uuid:7684b084-2904-4773-a9a1-ef42304e4225",
      "resource": {
        "resourceType": "Observation",
        "id": "7684b084-2904-4773-a9a1-ef42304e4225",
        "meta": {
          "profile": [
            "http://hl7.eu/fhir/laboratory/StructureDefinition/Observation-resultslab-eu-lab"
          ]
        },
        "performer": [
          {
            "display": "The Central European Lab"
          }
        ],
        "category": [
          {
            "coding": [
              {
                "system": "http://terminology.hl7.org/CodeSystem/observation-category",
                "code": "laboratory"
              }
            ]
          }
        ],
        "code": {
          "coding": [
            {
              "code": "2951-2",
              "system": "http://loinc.org",
              "display": "Sodium [Moles/volume] in Serum or Plasma"
            }
          ],
          "text": "Sodium [Moles/volume] in Serum or Plasma"
        },
        "valueQuantity": {
          "system": "http://unitsofmeasure.org",
          "value": 139,
          "unit": "mmol/L",
          "code": "mmol/L"
        },
        "referenceRange": [
          {
            "low": {
              "value": 135,
              "code": "mmol/L",
              "system": "http://unitsofmeasure.org"
            }
          },
          {
            "high": {
              "value": 145,
              "code": "mmol/L",
              "system": "http://unitsofmeasure.org"
            }
          }
        ],
        "text": {
          "status": "generated",
          "div": "<div xmlns=\"http://www.w3.org/1999/xhtml\"><table class=\"hl7__eu__lab__report\"><tr><th>Test</th><th>17-Jun-2025</th><th>Reference&#xA0;Range</th><th>Unit</th></tr><tr><td>Sodium [Moles/volume] in Serum or Plasma</td><td>139.0</td><td>135 - 145</td><td></td><td>mmol/L</td></tr></table></div>"
        },
        "status": "final",
        "subject": {
          "reference": "urn:uuid:80e6d13e-dd8e-4137-aaad-d8117e55ca1a",
          "display": "Meaghan Neary"
        },
        "effectiveDateTime": "2025-06-16T22:11:04Z",
        "specimen": {
          "reference": "urn:uuid:55aa85aa-6e47-4a21-a237-c845f2484513"
        }
      }
    },
    {
      "fullUrl": "urn:uuid:b3062e08-2d1d-4278-9baa-ec5aebb1b135",
      "resource": {
        "resourceType": "Observation",
        "id": "b3062e08-2d1d-4278-9baa-ec5aebb1b135",
        "meta": {
          "profile": [
            "http://hl7.eu/fhir/laboratory/StructureDefinition/Observation-resultslab-eu-lab"
          ]
        },
        "performer": [
          {
            "display": "The Central European Lab"
          }
        ],
        "category": [
          {
            "coding": [
              {
                "system": "http://terminology.hl7.org/CodeSystem/observation-category",
                "code": "laboratory"
              }
            ]
          }
        ],
        "code": {
          "coding": [
            {
              "code": "2823-3",
              "system": "http://loinc.org",
              "display": "Potassium [Moles/volume] in Serum or Plasma"
            }
          ],
          "text": "Potassium [Moles/volume] in Serum or Plasma"
        },
        "valueQuantity": {
          "system": "http://unitsofmeasure.org",
          "value": 5,
          "unit": "mmol/L",
          "code": "mmol/L"
        },
        "referenceRange": [
          {
            "low": {
              "value": 3.5,
              "code": "mmol/L",
              "system": "http://unitsofmeasure.org"
            }
          },
          {
            "high": {
              "value": 5.1,
              "code": "mmol/L",
              "system": "http://unitsofmeasure.org"
            }
          }
        ],
        "text": {
          "status": "generated",
          "div": "<div xmlns=\"http://www.w3.org/1999/xhtml\"><table class=\"hl7__eu__lab__report\"><tr><th>Test</th><th>17-Jun-2025</th><th>Reference&#xA0;Range</th><th>Unit</th></tr><tr><td>Potassium [Moles/volume] in Serum or Plasma</td><td>5.0</td><td>3.5 - 5.1</td><td></td><td>mmol/L</td></tr></table></div>"
        },
        "status": "final",
        "subject": {
          "reference": "urn:uuid:80e6d13e-dd8e-4137-aaad-d8117e55ca1a",
          "display": "Meaghan Neary"
        },
        "effectiveDateTime": "2025-06-16T22:11:04Z",
        "specimen": {
          "reference": "urn:uuid:55aa85aa-6e47-4a21-a237-c845f2484513"
        }
      }
    },
    {
      "fullUrl": "urn:uuid:093e4d16-02e8-4bf9-b763-f29d289cf741",
      "resource": {
        "resourceType": "Observation",
        "id": "093e4d16-02e8-4bf9-b763-f29d289cf741",
        "meta": {
          "profile": [
            "http://hl7.eu/fhir/laboratory/StructureDefinition/Observation-resultslab-eu-lab"
          ]
        },
        "performer": [
          {
            "display": "The Central European Lab"
          }
        ],
        "category": [
          {
            "coding": [
              {
                "system": "http://terminology.hl7.org/CodeSystem/observation-category",
                "code": "laboratory"
              }
            ]
          }
        ],
        "code": {
          "coding": [
            {
              "code": "2075-0",
              "system": "http://loinc.org",
              "display": "Chloride [Moles/volume] in Serum or Plasma"
            }
          ],
          "text": "Chloride [Moles/volume] in Serum or Plasma"
        },
        "valueQuantity": {
          "system": "http://unitsofmeasure.org",
          "value": 102.5,
          "unit": "mmol/L",
          "code": "mmol/L"
        },
        "referenceRange": [
          {
            "low": {
              "value": 98,
              "code": "mmol/L",
              "system": "http://unitsofmeasure.org"
            }
          },
          {
            "high": {
              "value": 108,
              "code": "mmol/L",
              "system": "http://unitsofmeasure.org"
            }
          }
        ],
        "text": {
          "status": "generated",
          "div": "<div xmlns=\"http://www.w3.org/1999/xhtml\"><table class=\"hl7__eu__lab__report\"><tr><th>Test</th><th>17-Jun-2025</th><th>Reference&#xA0;Range</th><th>Unit</th></tr><tr><td>Chloride [Moles/volume] in Serum or Plasma</td><td>102.5</td><td>98 - 108</td><td></td><td>mmol/L</td></tr></table></div>"
        },
        "status": "final",
        "subject": {
          "reference": "urn:uuid:80e6d13e-dd8e-4137-aaad-d8117e55ca1a",
          "display": "Meaghan Neary"
        },
        "effectiveDateTime": "2025-06-16T22:11:04Z",
        "specimen": {
          "reference": "urn:uuid:55aa85aa-6e47-4a21-a237-c845f2484513"
        }
      }
    },
    {
      "fullUrl": "urn:uuid:811e3e98-e767-4a9a-b93a-18c57ce2a167",
      "resource": {
        "resourceType": "Observation",
        "id": "811e3e98-e767-4a9a-b93a-18c57ce2a167",
        "meta": {
          "profile": [
            "http://hl7.eu/fhir/laboratory/StructureDefinition/Observation-resultslab-eu-lab"
          ]
        },
        "performer": [
          {
            "display": "The Central European Lab"
          }
        ],
        "category": [
          {
            "coding": [
              {
                "system": "http://terminology.hl7.org/CodeSystem/observation-category",
                "code": "laboratory"
              }
            ]
          }
        ],
        "code": {
          "coding": [
            {
              "code": "2028-9",
              "system": "http://loinc.org",
              "display": "Carbon dioxide, total [Moles/volume] in Serum or Plasma"
            }
          ],
          "text": "Carbon dioxide, total [Moles/volume] in Serum or Plasma"
        },
        "valueQuantity": {
          "system": "http://unitsofmeasure.org",
          "value": 26.7,
          "unit": "mmol/L",
          "code": "mmol/L"
        },
        "referenceRange": [
          {
            "low": {
              "value": 22,
              "code": "mmol/L",
              "system": "http://unitsofmeasure.org"
            }
          },
          {
            "high": {
              "value": 32,
              "code": "mmol/L",
              "system": "http://unitsofmeasure.org"
            }
          }
        ],
        "text": {
          "status": "generated",
          "div": "<div xmlns=\"http://www.w3.org/1999/xhtml\"><table class=\"hl7__eu__lab__report\"><tr><th>Test</th><th>17-Jun-2025</th><th>Reference&#xA0;Range</th><th>Unit</th></tr><tr><td>Carbon dioxide, total [Moles/volume] in Serum or Plasma</td><td>26.7</td><td>22 - 32</td><td></td><td>mmol/L</td></tr></table></div>"
        },
        "status": "final",
        "subject": {
          "reference": "urn:uuid:80e6d13e-dd8e-4137-aaad-d8117e55ca1a",
          "display": "Meaghan Neary"
        },
        "effectiveDateTime": "2025-06-16T22:11:04Z",
        "specimen": {
          "reference": "urn:uuid:55aa85aa-6e47-4a21-a237-c845f2484513"
        }
      }
    },
    {
      "fullUrl": "urn:uuid:b2117ea9-1f28-4d94-8e62-6d2dc62e244b",
      "resource": {
        "resourceType": "Observation",
        "id": "b2117ea9-1f28-4d94-8e62-6d2dc62e244b",
        "meta": {
          "profile": [
            "http://hl7.eu/fhir/laboratory/StructureDefinition/Observation-resultslab-eu-lab"
          ]
        },
        "performer": [
          {
            "display": "The Central European Lab"
          }
        ],
        "category": [
          {
            "coding": [
              {
                "system": "http://terminology.hl7.org/CodeSystem/observation-category",
                "code": "laboratory"
              }
            ]
          }
        ],
        "code": {
          "coding": [
            {
              "code": "5767-9",
              "system": "http://loinc.org",
              "display": "Appearance of Urine"
            }
          ],
          "text": "Appearance of Urine"
        },
        "text": {
          "status": "generated",
          "div": "<div xmlns=\"http://www.w3.org/1999/xhtml\"><table class=\"hl7__eu__lab__report\"><tr><th>Test</th><th>17-Jun-2025</th><th>Reference&#xA0;Range</th><th>Unit</th></tr><tr><td>Appearance of Urine</td></tr></table></div>"
        },
        "status": "final",
        "subject": {
          "reference": "urn:uuid:80e6d13e-dd8e-4137-aaad-d8117e55ca1a",
          "display": "Meaghan Neary"
        },
        "effectiveDateTime": "2025-06-16T22:11:04Z",
        "specimen": {
          "reference": "urn:uuid:b1ea49bc-c9df-4eda-a12d-86d74922433e"
        }
      }
    },
    {
      "fullUrl": "urn:uuid:ac7c4281-3d34-4a74-8862-0b55fecd518e",
      "resource": {
        "resourceType": "Observation",
        "id": "ac7c4281-3d34-4a74-8862-0b55fecd518e",
        "meta": {
          "profile": [
            "http://hl7.eu/fhir/laboratory/StructureDefinition/Observation-resultslab-eu-lab"
          ]
        },
        "performer": [
          {
            "display": "The Central European Lab"
          }
        ],
        "category": [
          {
            "coding": [
              {
                "system": "http://terminology.hl7.org/CodeSystem/observation-category",
                "code": "laboratory"
              }
            ]
          }
        ],
        "code": {
          "coding": [
            {
              "code": "34533-0",
              "system": "http://loinc.org",
              "display": "Odor of Urine"
            }
          ],
          "text": "Odor of Urine"
        },
        "text": {
          "status": "generated",
          "div": "<div xmlns=\"http://www.w3.org/1999/xhtml\"><table class=\"hl7__eu__lab__report\"><tr><th>Test</th><th>17-Jun-2025</th><th>Reference&#xA0;Range</th><th>Unit</th></tr><tr><td>Odor of Urine</td></tr></table></div>"
        },
        "status": "final",
        "subject": {
          "reference": "urn:uuid:80e6d13e-dd8e-4137-aaad-d8117e55ca1a",
          "display": "Meaghan Neary"
        },
        "effectiveDateTime": "2025-06-16T22:11:04Z",
        "specimen": {
          "reference": "urn:uuid:b1ea49bc-c9df-4eda-a12d-86d74922433e"
        }
      }
    },
    {
      "fullUrl": "urn:uuid:64eb03ff-508f-46f4-82d0-d5a78bbb00e8",
      "resource": {
        "resourceType": "Observation",
        "id": "64eb03ff-508f-46f4-82d0-d5a78bbb00e8",
        "meta": {
          "profile": [
            "http://hl7.eu/fhir/laboratory/StructureDefinition/Observation-resultslab-eu-lab"
          ]
        },
        "performer": [
          {
            "display": "The Central European Lab"
          }
        ],
        "category": [
          {
            "coding": [
              {
                "system": "http://terminology.hl7.org/CodeSystem/observation-category",
                "code": "laboratory"
              }
            ]
          }
        ],
        "code": {
          "coding": [
            {
              "code": "32167-9",
              "system": "http://loinc.org",
              "display": "Clarity of Urine"
            }
          ],
          "text": "Clarity of Urine"
        },
        "text": {
          "status": "generated",
          "div": "<div xmlns=\"http://www.w3.org/1999/xhtml\"><table class=\"hl7__eu__lab__report\"><tr><th>Test</th><th>17-Jun-2025</th><th>Reference&#xA0;Range</th><th>Unit</th></tr><tr><td>Clarity of Urine</td></tr></table></div>"
        },
        "status": "final",
        "subject": {
          "reference": "urn:uuid:80e6d13e-dd8e-4137-aaad-d8117e55ca1a",
          "display": "Meaghan Neary"
        },
        "effectiveDateTime": "2025-06-16T22:11:04Z",
        "specimen": {
          "reference": "urn:uuid:b1ea49bc-c9df-4eda-a12d-86d74922433e"
        }
      }
    },
    {
      "fullUrl": "urn:uuid:5b092bb3-c678-4947-9a29-ceca90c0b420",
      "resource": {
        "resourceType": "Observation",
        "id": "5b092bb3-c678-4947-9a29-ceca90c0b420",
        "meta": {
          "profile": [
            "http://hl7.eu/fhir/laboratory/StructureDefinition/Observation-resultslab-eu-lab"
          ]
        },
        "performer": [
          {
            "display": "The Central European Lab"
          }
        ],
        "category": [
          {
            "coding": [
              {
                "system": "http://terminology.hl7.org/CodeSystem/observation-category",
                "code": "laboratory"
              }
            ]
          }
        ],
        "code": {
          "coding": [
            {
              "code": "5778-6",
              "system": "http://loinc.org",
              "display": "Color of Urine"
            }
          ],
          "text": "Color of Urine"
        },
        "text": {
          "status": "generated",
          "div": "<div xmlns=\"http://www.w3.org/1999/xhtml\"><table class=\"hl7__eu__lab__report\"><tr><th>Test</th><th>17-Jun-2025</th><th>Reference&#xA0;Range</th><th>Unit</th></tr><tr><td>Color of Urine</td></tr></table></div>"
        },
        "status": "final",
        "subject": {
          "reference": "urn:uuid:80e6d13e-dd8e-4137-aaad-d8117e55ca1a",
          "display": "Meaghan Neary"
        },
        "effectiveDateTime": "2025-06-16T22:11:04Z",
        "specimen": {
          "reference": "urn:uuid:b1ea49bc-c9df-4eda-a12d-86d74922433e"
        }
      }
    },
    {
      "fullUrl": "urn:uuid:28182439-3af8-4292-8885-fbd96aa92001",
      "resource": {
        "resourceType": "Observation",
        "id": "28182439-3af8-4292-8885-fbd96aa92001",
        "meta": {
          "profile": [
            "http://hl7.eu/fhir/laboratory/StructureDefinition/Observation-resultslab-eu-lab"
          ]
        },
        "performer": [
          {
            "display": "The Central European Lab"
          }
        ],
        "category": [
          {
            "coding": [
              {
                "system": "http://terminology.hl7.org/CodeSystem/observation-category",
                "code": "laboratory"
              }
            ]
          }
        ],
        "code": {
          "coding": [
            {
              "code": "5792-7",
              "system": "http://loinc.org",
              "display": "Glucose [Mass/volume] in Urine by Test strip"
            }
          ],
          "text": "Glucose [Mass/volume] in Urine by Test strip"
        },
        "valueQuantity": {
          "system": "http://unitsofmeasure.org",
          "value": 0.9,
          "unit": "mg/dL",
          "code": "mg/dL"
        },
        "referenceRange": [
          {
            "low": {
              "value": 0.8,
              "code": "mg/dL",
              "system": "http://unitsofmeasure.org"
            }
          },
          {
            "high": {
              "value": 0,
              "code": "mg/dL",
              "system": "http://unitsofmeasure.org"
            }
          }
        ],
        "interpretation": [
          {
            "coding": [
              {
                "code": "H",
                "system": "http://terminology.hl7.org/CodeSystem/v3-ObservationInterpretation",
                "display": "High"
              }
            ]
          }
        ],
        "text": {
          "status": "generated",
          "div": "<div xmlns=\"http://www.w3.org/1999/xhtml\"><table class=\"hl7__eu__lab__report\"><tr><th>Test</th><th>17-Jun-2025</th><th>Reference&#xA0;Range</th><th>Unit</th></tr><tr><td>Glucose [Mass/volume] in Urine by Test strip</td><td>0.9</td><td>0.8 - 0</td><td>H</td><td>mg/dL</td></tr></table></div>"
        },
        "status": "final",
        "subject": {
          "reference": "urn:uuid:80e6d13e-dd8e-4137-aaad-d8117e55ca1a",
          "display": "Meaghan Neary"
        },
        "effectiveDateTime": "2025-06-16T22:11:04Z",
        "specimen": {
          "reference": "urn:uuid:b1ea49bc-c9df-4eda-a12d-86d74922433e"
        }
      }
    },
    {
      "fullUrl": "urn:uuid:5a16c0fe-58b8-4910-b2a1-6c0a2c77b853",
      "resource": {
        "resourceType": "Observation",
        "id": "5a16c0fe-58b8-4910-b2a1-6c0a2c77b853",
        "meta": {
          "profile": [
            "http://hl7.eu/fhir/laboratory/StructureDefinition/Observation-resultslab-eu-lab"
          ]
        },
        "performer": [
          {
            "display": "The Central European Lab"
          }
        ],
        "category": [
          {
            "coding": [
              {
                "system": "http://terminology.hl7.org/CodeSystem/observation-category",
                "code": "laboratory"
              }
            ]
          }
        ],
        "code": {
          "coding": [
            {
              "code": "25428-4",
              "system": "http://loinc.org",
              "display": "Glucose [Presence] in Urine by Test strip"
            }
          ],
          "text": "Glucose [Presence] in Urine by Test strip"
        },
        "text": {
          "status": "generated",
          "div": "<div xmlns=\"http://www.w3.org/1999/xhtml\"><table class=\"hl7__eu__lab__report\"><tr><th>Test</th><th>17-Jun-2025</th><th>Reference&#xA0;Range</th><th>Unit</th></tr><tr><td>Glucose [Presence] in Urine by Test strip</td></tr></table></div>"
        },
        "status": "final",
        "subject": {
          "reference": "urn:uuid:80e6d13e-dd8e-4137-aaad-d8117e55ca1a",
          "display": "Meaghan Neary"
        },
        "effectiveDateTime": "2025-06-16T22:11:04Z",
        "specimen": {
          "reference": "urn:uuid:b1ea49bc-c9df-4eda-a12d-86d74922433e"
        }
      }
    },
    {
      "fullUrl": "urn:uuid:369f66e9-0182-433a-ad01-40d63d0d8bd6",
      "resource": {
        "resourceType": "Observation",
        "id": "369f66e9-0182-433a-ad01-40d63d0d8bd6",
        "meta": {
          "profile": [
            "http://hl7.eu/fhir/laboratory/StructureDefinition/Observation-resultslab-eu-lab"
          ]
        },
        "performer": [
          {
            "display": "The Central European Lab"
          }
        ],
        "category": [
          {
            "coding": [
              {
                "system": "http://terminology.hl7.org/CodeSystem/observation-category",
                "code": "laboratory"
              }
            ]
          }
        ],
        "code": {
          "coding": [
            {
              "code": "20505-4",
              "system": "http://loinc.org",
              "display": "Bilirubin.total [Mass/volume] in Urine by Test strip"
            }
          ],
          "text": "Bilirubin.total [Mass/volume] in Urine by Test strip"
        },
        "valueQuantity": {
          "system": "http://unitsofmeasure.org",
          "value": 0.6,
          "unit": "mg/dL",
          "code": "mg/dL"
        },
        "referenceRange": [
          {
            "low": {
              "value": 0,
              "code": "mg/dL",
              "system": "http://unitsofmeasure.org"
            }
          },
          {
            "high": {
              "value": 1,
              "code": "mg/dL",
              "system": "http://unitsofmeasure.org"
            }
          }
        ],
        "text": {
          "status": "generated",
          "div": "<div xmlns=\"http://www.w3.org/1999/xhtml\"><table class=\"hl7__eu__lab__report\"><tr><th>Test</th><th>17-Jun-2025</th><th>Reference&#xA0;Range</th><th>Unit</th></tr><tr><td>Bilirubin.total [Mass/volume] in Urine by Test strip</td><td>0.6</td><td>0 - 1</td><td></td><td>mg/dL</td></tr></table></div>"
        },
        "status": "final",
        "subject": {
          "reference": "urn:uuid:80e6d13e-dd8e-4137-aaad-d8117e55ca1a",
          "display": "Meaghan Neary"
        },
        "effectiveDateTime": "2025-06-16T22:11:04Z",
        "specimen": {
          "reference": "urn:uuid:b1ea49bc-c9df-4eda-a12d-86d74922433e"
        }
      }
    },
    {
      "fullUrl": "urn:uuid:7c85a8de-2a50-474c-abe4-1564ffad3f96",
      "resource": {
        "resourceType": "Observation",
        "id": "7c85a8de-2a50-474c-abe4-1564ffad3f96",
        "meta": {
          "profile": [
            "http://hl7.eu/fhir/laboratory/StructureDefinition/Observation-resultslab-eu-lab"
          ]
        },
        "performer": [
          {
            "display": "The Central European Lab"
          }
        ],
        "category": [
          {
            "coding": [
              {
                "system": "http://terminology.hl7.org/CodeSystem/observation-category",
                "code": "laboratory"
              }
            ]
          }
        ],
        "code": {
          "coding": [
            {
              "code": "5770-3",
              "system": "http://loinc.org",
              "display": "Bilirubin.total [Presence] in Urine by Test strip"
            }
          ],
          "text": "Bilirubin.total [Presence] in Urine by Test strip"
        },
        "text": {
          "status": "generated",
          "div": "<div xmlns=\"http://www.w3.org/1999/xhtml\"><table class=\"hl7__eu__lab__report\"><tr><th>Test</th><th>17-Jun-2025</th><th>Reference&#xA0;Range</th><th>Unit</th></tr><tr><td>Bilirubin.total [Presence] in Urine by Test strip</td></tr></table></div>"
        },
        "status": "final",
        "subject": {
          "reference": "urn:uuid:80e6d13e-dd8e-4137-aaad-d8117e55ca1a",
          "display": "Meaghan Neary"
        },
        "effectiveDateTime": "2025-06-16T22:11:04Z",
        "specimen": {
          "reference": "urn:uuid:b1ea49bc-c9df-4eda-a12d-86d74922433e"
        }
      }
    },
    {
      "fullUrl": "urn:uuid:9403b967-5635-4c82-b7eb-f8919cd32f47",
      "resource": {
        "resourceType": "Observation",
        "id": "9403b967-5635-4c82-b7eb-f8919cd32f47",
        "meta": {
          "profile": [
            "http://hl7.eu/fhir/laboratory/StructureDefinition/Observation-resultslab-eu-lab"
          ]
        },
        "performer": [
          {
            "display": "The Central European Lab"
          }
        ],
        "category": [
          {
            "coding": [
              {
                "system": "http://terminology.hl7.org/CodeSystem/observation-category",
                "code": "laboratory"
              }
            ]
          }
        ],
        "code": {
          "coding": [
            {
              "code": "5797-6",
              "system": "http://loinc.org",
              "display": "Ketones [Mass/volume] in Urine by Test strip"
            }
          ],
          "text": "Ketones [Mass/volume] in Urine by Test strip"
        },
        "valueQuantity": {
          "system": "http://unitsofmeasure.org",
          "value": 0,
          "unit": "mg/dL",
          "code": "mg/dL"
        },
        "referenceRange": [
          {
            "low": {
              "value": 0,
              "code": "mg/dL",
              "system": "http://unitsofmeasure.org"
            }
          },
          {
            "high": {
              "value": 4,
              "code": "mg/dL",
              "system": "http://unitsofmeasure.org"
            }
          }
        ],
        "text": {
          "status": "generated",
          "div": "<div xmlns=\"http://www.w3.org/1999/xhtml\"><table class=\"hl7__eu__lab__report\"><tr><th>Test</th><th>17-Jun-2025</th><th>Reference&#xA0;Range</th><th>Unit</th></tr><tr><td>Ketones [Mass/volume] in Urine by Test strip</td><td>0.0</td><td>0 - 4</td><td></td><td>mg/dL</td></tr></table></div>"
        },
        "status": "final",
        "subject": {
          "reference": "urn:uuid:80e6d13e-dd8e-4137-aaad-d8117e55ca1a",
          "display": "Meaghan Neary"
        },
        "effectiveDateTime": "2025-06-16T22:11:04Z",
        "specimen": {
          "reference": "urn:uuid:b1ea49bc-c9df-4eda-a12d-86d74922433e"
        }
      }
    },
    {
      "fullUrl": "urn:uuid:d09c07b8-52c3-4d22-add9-efd42176f7b3",
      "resource": {
        "resourceType": "Observation",
        "id": "d09c07b8-52c3-4d22-add9-efd42176f7b3",
        "meta": {
          "profile": [
            "http://hl7.eu/fhir/laboratory/StructureDefinition/Observation-resultslab-eu-lab"
          ]
        },
        "performer": [
          {
            "display": "The Central European Lab"
          }
        ],
        "category": [
          {
            "coding": [
              {
                "system": "http://terminology.hl7.org/CodeSystem/observation-category",
                "code": "laboratory"
              }
            ]
          }
        ],
        "code": {
          "coding": [
            {
              "code": "2514-8",
              "system": "http://loinc.org",
              "display": "Ketones [Presence] in Urine by Test strip"
            }
          ],
          "text": "Ketones [Presence] in Urine by Test strip"
        },
        "text": {
          "status": "generated",
          "div": "<div xmlns=\"http://www.w3.org/1999/xhtml\"><table class=\"hl7__eu__lab__report\"><tr><th>Test</th><th>17-Jun-2025</th><th>Reference&#xA0;Range</th><th>Unit</th></tr><tr><td>Ketones [Presence] in Urine by Test strip</td></tr></table></div>"
        },
        "status": "final",
        "subject": {
          "reference": "urn:uuid:80e6d13e-dd8e-4137-aaad-d8117e55ca1a",
          "display": "Meaghan Neary"
        },
        "effectiveDateTime": "2025-06-16T22:11:04Z",
        "specimen": {
          "reference": "urn:uuid:b1ea49bc-c9df-4eda-a12d-86d74922433e"
        }
      }
    },
    {
      "fullUrl": "urn:uuid:8a7ec967-f98e-453d-9897-c5ed51d65821",
      "resource": {
        "resourceType": "Observation",
        "id": "8a7ec967-f98e-453d-9897-c5ed51d65821",
        "meta": {
          "profile": [
            "http://hl7.eu/fhir/laboratory/StructureDefinition/Observation-resultslab-eu-lab"
          ]
        },
        "performer": [
          {
            "display": "The Central European Lab"
          }
        ],
        "category": [
          {
            "coding": [
              {
                "system": "http://terminology.hl7.org/CodeSystem/observation-category",
                "code": "laboratory"
              }
            ]
          }
        ],
        "code": {
          "coding": [
            {
              "code": "5811-5",
              "system": "http://loinc.org",
              "display": "Specific gravity of Urine by Test strip"
            }
          ],
          "text": "Specific gravity of Urine by Test strip"
        },
        "valueQuantity": {
          "system": "http://unitsofmeasure.org",
          "value": 1,
          "unit": "{nominal}",
          "code": "{nominal}"
        },
        "referenceRange": [
          {
            "low": {
              "value": 1.005,
              "code": "g/mL",
              "system": "http://unitsofmeasure.org"
            }
          },
          {
            "high": {
              "value": 1.03,
              "code": "g/mL",
              "system": "http://unitsofmeasure.org"
            }
          }
        ],
        "interpretation": [
          {
            "coding": [
              {
                "code": "L",
                "system": "http://terminology.hl7.org/CodeSystem/v3-ObservationInterpretation",
                "display": "Low"
              }
            ]
          }
        ],
        "text": {
          "status": "generated",
          "div": "<div xmlns=\"http://www.w3.org/1999/xhtml\"><table class=\"hl7__eu__lab__report\"><tr><th>Test</th><th>17-Jun-2025</th><th>Reference&#xA0;Range</th><th>Unit</th></tr><tr><td>Specific gravity of Urine by Test strip</td><td>1.0</td><td>1.005 - 1.03</td><td>L</td><td>{nominal}</td></tr></table></div>"
        },
        "status": "final",
        "subject": {
          "reference": "urn:uuid:80e6d13e-dd8e-4137-aaad-d8117e55ca1a",
          "display": "Meaghan Neary"
        },
        "effectiveDateTime": "2025-06-16T22:11:04Z",
        "specimen": {
          "reference": "urn:uuid:b1ea49bc-c9df-4eda-a12d-86d74922433e"
        }
      }
    },
    {
      "fullUrl": "urn:uuid:37431636-1fb1-4978-9ecf-80d3821569d5",
      "resource": {
        "resourceType": "Observation",
        "id": "37431636-1fb1-4978-9ecf-80d3821569d5",
        "meta": {
          "profile": [
            "http://hl7.eu/fhir/laboratory/StructureDefinition/Observation-resultslab-eu-lab"
          ]
        },
        "performer": [
          {
            "display": "The Central European Lab"
          }
        ],
        "category": [
          {
            "coding": [
              {
                "system": "http://terminology.hl7.org/CodeSystem/observation-category",
                "code": "laboratory"
              }
            ]
          }
        ],
        "code": {
          "coding": [
            {
              "code": "5803-2",
              "system": "http://loinc.org",
              "display": "pH of Urine by Test strip"
            }
          ],
          "text": "pH of Urine by Test strip"
        },
        "valueQuantity": {
          "system": "http://unitsofmeasure.org",
          "value": 5.3,
          "unit": "pH",
          "code": "pH"
        },
        "referenceRange": [
          {
            "low": {
              "value": 4.6,
              "code": "pH",
              "system": "http://unitsofmeasure.org"
            }
          },
          {
            "high": {
              "value": 7,
              "code": "pH",
              "system": "http://unitsofmeasure.org"
            }
          }
        ],
        "text": {
          "status": "generated",
          "div": "<div xmlns=\"http://www.w3.org/1999/xhtml\"><table class=\"hl7__eu__lab__report\"><tr><th>Test</th><th>17-Jun-2025</th><th>Reference&#xA0;Range</th><th>Unit</th></tr><tr><td>pH of Urine by Test strip</td><td>5.3</td><td>4.6 - 7</td><td></td><td>pH</td></tr></table></div>"
        },
        "status": "final",
        "subject": {
          "reference": "urn:uuid:80e6d13e-dd8e-4137-aaad-d8117e55ca1a",
          "display": "Meaghan Neary"
        },
        "effectiveDateTime": "2025-06-16T22:11:04Z",
        "specimen": {
          "reference": "urn:uuid:b1ea49bc-c9df-4eda-a12d-86d74922433e"
        }
      }
    },
    {
      "fullUrl": "urn:uuid:11a8cde3-be8d-4c62-9113-84b6e90c73bf",
      "resource": {
        "resourceType": "Observation",
        "id": "11a8cde3-be8d-4c62-9113-84b6e90c73bf",
        "meta": {
          "profile": [
            "http://hl7.eu/fhir/laboratory/StructureDefinition/Observation-resultslab-eu-lab"
          ]
        },
        "performer": [
          {
            "display": "The Central European Lab"
          }
        ],
        "category": [
          {
            "coding": [
              {
                "system": "http://terminology.hl7.org/CodeSystem/observation-category",
                "code": "laboratory"
              }
            ]
          }
        ],
        "code": {
          "coding": [
            {
              "code": "5804-0",
              "system": "http://loinc.org",
              "display": "Protein [Mass/volume] in Urine by Test strip"
            }
          ],
          "text": "Protein [Mass/volume] in Urine by Test strip"
        },
        "valueQuantity": {
          "system": "http://unitsofmeasure.org",
          "value": 291.5,
          "unit": "mg/dL",
          "code": "mg/dL"
        },
        "referenceRange": [
          {
            "low": {
              "value": 0,
              "code": "mg/dL",
              "system": "http://unitsofmeasure.org"
            }
          },
          {
            "high": {
              "value": 14,
              "code": "mg/dL",
              "system": "http://unitsofmeasure.org"
            }
          }
        ],
        "interpretation": [
          {
            "coding": [
              {
                "code": "H",
                "system": "http://terminology.hl7.org/CodeSystem/v3-ObservationInterpretation",
                "display": "High"
              }
            ]
          }
        ],
        "text": {
          "status": "generated",
          "div": "<div xmlns=\"http://www.w3.org/1999/xhtml\"><table class=\"hl7__eu__lab__report\"><tr><th>Test</th><th>17-Jun-2025</th><th>Reference&#xA0;Range</th><th>Unit</th></tr><tr><td>Protein [Mass/volume] in Urine by Test strip</td><td>291.5</td><td>0 - 14</td><td>H</td><td>mg/dL</td></tr></table></div>"
        },
        "status": "final",
        "subject": {
          "reference": "urn:uuid:80e6d13e-dd8e-4137-aaad-d8117e55ca1a",
          "display": "Meaghan Neary"
        },
        "effectiveDateTime": "2025-06-16T22:11:04Z",
        "specimen": {
          "reference": "urn:uuid:b1ea49bc-c9df-4eda-a12d-86d74922433e"
        }
      }
    },
    {
      "fullUrl": "urn:uuid:3e93ac80-8427-4ae1-bc7c-411d83468295",
      "resource": {
        "resourceType": "Observation",
        "id": "3e93ac80-8427-4ae1-bc7c-411d83468295",
        "meta": {
          "profile": [
            "http://hl7.eu/fhir/laboratory/StructureDefinition/Observation-resultslab-eu-lab"
          ]
        },
        "performer": [
          {
            "display": "The Central European Lab"
          }
        ],
        "category": [
          {
            "coding": [
              {
                "system": "http://terminology.hl7.org/CodeSystem/observation-category",
                "code": "laboratory"
              }
            ]
          }
        ],
        "code": {
          "coding": [
            {
              "code": "20454-5",
              "system": "http://loinc.org",
              "display": "Protein [Presence] in Urine by Test strip"
            }
          ],
          "text": "Protein [Presence] in Urine by Test strip"
        },
        "text": {
          "status": "generated",
          "div": "<div xmlns=\"http://www.w3.org/1999/xhtml\"><table class=\"hl7__eu__lab__report\"><tr><th>Test</th><th>17-Jun-2025</th><th>Reference&#xA0;Range</th><th>Unit</th></tr><tr><td>Protein [Presence] in Urine by Test strip</td></tr></table></div>"
        },
        "status": "final",
        "subject": {
          "reference": "urn:uuid:80e6d13e-dd8e-4137-aaad-d8117e55ca1a",
          "display": "Meaghan Neary"
        },
        "effectiveDateTime": "2025-06-16T22:11:04Z",
        "specimen": {
          "reference": "urn:uuid:b1ea49bc-c9df-4eda-a12d-86d74922433e"
        }
      }
    },
    {
      "fullUrl": "urn:uuid:1ba65299-80f2-4564-b335-a035877c8991",
      "resource": {
        "resourceType": "Observation",
        "id": "1ba65299-80f2-4564-b335-a035877c8991",
        "meta": {
          "profile": [
            "http://hl7.eu/fhir/laboratory/StructureDefinition/Observation-resultslab-eu-lab"
          ]
        },
        "performer": [
          {
            "display": "The Central European Lab"
          }
        ],
        "category": [
          {
            "coding": [
              {
                "system": "http://terminology.hl7.org/CodeSystem/observation-category",
                "code": "laboratory"
              }
            ]
          }
        ],
        "code": {
          "coding": [
            {
              "code": "5802-4",
              "system": "http://loinc.org",
              "display": "Nitrite [Presence] in Urine by Test strip"
            }
          ],
          "text": "Nitrite [Presence] in Urine by Test strip"
        },
        "text": {
          "status": "generated",
          "div": "<div xmlns=\"http://www.w3.org/1999/xhtml\"><table class=\"hl7__eu__lab__report\"><tr><th>Test</th><th>17-Jun-2025</th><th>Reference&#xA0;Range</th><th>Unit</th></tr><tr><td>Nitrite [Presence] in Urine by Test strip</td></tr></table></div>"
        },
        "status": "final",
        "subject": {
          "reference": "urn:uuid:80e6d13e-dd8e-4137-aaad-d8117e55ca1a",
          "display": "Meaghan Neary"
        },
        "effectiveDateTime": "2025-06-16T22:11:04Z",
        "specimen": {
          "reference": "urn:uuid:b1ea49bc-c9df-4eda-a12d-86d74922433e"
        }
      }
    },
    {
      "fullUrl": "urn:uuid:5a4a7db7-c740-4c95-b1fa-59ac1227ce31",
      "resource": {
        "resourceType": "Observation",
        "id": "5a4a7db7-c740-4c95-b1fa-59ac1227ce31",
        "meta": {
          "profile": [
            "http://hl7.eu/fhir/laboratory/StructureDefinition/Observation-resultslab-eu-lab"
          ]
        },
        "performer": [
          {
            "display": "The Central European Lab"
          }
        ],
        "category": [
          {
            "coding": [
              {
                "system": "http://terminology.hl7.org/CodeSystem/observation-category",
                "code": "laboratory"
              }
            ]
          }
        ],
        "code": {
          "coding": [
            {
              "code": "5794-3",
              "system": "http://loinc.org",
              "display": "Hemoglobin [Presence] in Urine by Test strip"
            }
          ],
          "text": "Hemoglobin [Presence] in Urine by Test strip"
        },
        "text": {
          "status": "generated",
          "div": "<div xmlns=\"http://www.w3.org/1999/xhtml\"><table class=\"hl7__eu__lab__report\"><tr><th>Test</th><th>17-Jun-2025</th><th>Reference&#xA0;Range</th><th>Unit</th></tr><tr><td>Hemoglobin [Presence] in Urine by Test strip</td></tr></table></div>"
        },
        "status": "final",
        "subject": {
          "reference": "urn:uuid:80e6d13e-dd8e-4137-aaad-d8117e55ca1a",
          "display": "Meaghan Neary"
        },
        "effectiveDateTime": "2025-06-16T22:11:04Z",
        "specimen": {
          "reference": "urn:uuid:b1ea49bc-c9df-4eda-a12d-86d74922433e"
        }
      }
    },
    {
      "fullUrl": "urn:uuid:e20740d7-25e4-4e2b-ab06-8f7c1735b9af",
      "resource": {
        "resourceType": "Observation",
        "id": "e20740d7-25e4-4e2b-ab06-8f7c1735b9af",
        "meta": {
          "profile": [
            "http://hl7.eu/fhir/laboratory/StructureDefinition/Observation-resultslab-eu-lab"
          ]
        },
        "performer": [
          {
            "display": "The Central European Lab"
          }
        ],
        "category": [
          {
            "coding": [
              {
                "system": "http://terminology.hl7.org/CodeSystem/observation-category",
                "code": "laboratory"
              }
            ]
          }
        ],
        "code": {
          "coding": [
            {
              "code": "5799-2",
              "system": "http://loinc.org",
              "display": "Leukocyte esterase [Presence] in Urine by Test strip"
            }
          ],
          "text": "Leukocyte esterase [Presence] in Urine by Test strip"
        },
        "text": {
          "status": "generated",
          "div": "<div xmlns=\"http://www.w3.org/1999/xhtml\"><table class=\"hl7__eu__lab__report\"><tr><th>Test</th><th>17-Jun-2025</th><th>Reference&#xA0;Range</th><th>Unit</th></tr><tr><td>Leukocyte esterase [Presence] in Urine by Test strip</td></tr></table></div>"
        },
        "status": "final",
        "subject": {
          "reference": "urn:uuid:80e6d13e-dd8e-4137-aaad-d8117e55ca1a",
          "display": "Meaghan Neary"
        },
        "effectiveDateTime": "2025-06-16T22:11:04Z",
        "specimen": {
          "reference": "urn:uuid:b1ea49bc-c9df-4eda-a12d-86d74922433e"
        }
      }
    },
    {
      "fullUrl": "urn:uuid:f80125f0-86d0-40a1-965f-381091dfb403",
      "resource": {
        "resourceType": "Observation",
        "id": "f80125f0-86d0-40a1-965f-381091dfb403",
        "meta": {
          "profile": [
            "http://hl7.eu/fhir/laboratory/StructureDefinition/Observation-resultslab-eu-lab"
          ]
        },
        "performer": [
          {
            "display": "The Central European Lab"
          }
        ],
        "category": [
          {
            "coding": [
              {
                "system": "http://terminology.hl7.org/CodeSystem/observation-category",
                "code": "laboratory"
              }
            ]
          }
        ],
        "code": {
          "coding": [
            {
              "code": "4548-4",
              "system": "http://loinc.org",
              "display": "Hemoglobin A1c/Hemoglobin.total in Blood"
            }
          ],
          "text": "Hemoglobin A1c/Hemoglobin.total in Blood"
        },
        "valueQuantity": {
          "system": "http://unitsofmeasure.org",
          "value": 4,
          "unit": "%",
          "code": "%"
        },
        "referenceRange": [
          {
            "low": {
              "value": 4,
              "code": "%",
              "system": "http://unitsofmeasure.org"
            }
          },
          {
            "high": {
              "value": 6.4,
              "code": "%",
              "system": "http://unitsofmeasure.org"
            }
          }
        ],
        "text": {
          "status": "generated",
          "div": "<div xmlns=\"http://www.w3.org/1999/xhtml\"><table class=\"hl7__eu__lab__report\"><tr><th>Test</th><th>17-Jun-2025</th><th>Reference&#xA0;Range</th><th>Unit</th></tr><tr><td>Hemoglobin A1c/Hemoglobin.total in Blood</td><td>4.0</td><td>4 - 6.4</td><td></td><td>%</td></tr></table></div>"
        },
        "status": "final",
        "subject": {
          "reference": "urn:uuid:80e6d13e-dd8e-4137-aaad-d8117e55ca1a",
          "display": "Meaghan Neary"
        },
        "effectiveDateTime": "2025-06-16T22:11:04Z",
        "specimen": {
          "reference": "urn:uuid:672eee85-bda3-4c3d-8bfb-b8c30332b3d8"
        }
      }
    },
    {
      "fullUrl": "urn:uuid:95d03d86-b991-45e0-b7fb-6e491dcec479",
      "resource": {
        "resourceType": "Observation",
        "id": "95d03d86-b991-45e0-b7fb-6e491dcec479",
        "meta": {
          "profile": [
            "http://hl7.eu/fhir/laboratory/StructureDefinition/Observation-resultslab-eu-lab"
          ]
        },
        "performer": [
          {
            "display": "The Central European Lab"
          }
        ],
        "category": [
          {
            "coding": [
              {
                "system": "http://terminology.hl7.org/CodeSystem/observation-category",
                "code": "laboratory"
              }
            ]
          }
        ],
        "code": {
          "coding": [
            {
              "code": "2339-0",
              "system": "http://loinc.org",
              "display": "Glucose [Mass/volume] in Blood"
            }
          ],
          "text": "Glucose [Mass/volume] in Blood"
        },
        "valueQuantity": {
          "system": "http://unitsofmeasure.org",
          "value": 82.5,
          "unit": "mg/dL",
          "code": "mg/dL"
        },
        "referenceRange": [
          {
            "low": {
              "value": 70,
              "code": "mg/dL",
              "system": "http://unitsofmeasure.org"
            }
          },
          {
            "high": {
              "value": 100,
              "code": "mg/dL",
              "system": "http://unitsofmeasure.org"
            }
          }
        ],
        "text": {
          "status": "generated",
          "div": "<div xmlns=\"http://www.w3.org/1999/xhtml\"><table class=\"hl7__eu__lab__report\"><tr><th>Test</th><th>17-Jun-2025</th><th>Reference&#xA0;Range</th><th>Unit</th></tr><tr><td>Glucose [Mass/volume] in Blood</td><td>82.5</td><td>70 - 100</td><td></td><td>mg/dL</td></tr></table></div>"
        },
        "status": "final",
        "subject": {
          "reference": "urn:uuid:80e6d13e-dd8e-4137-aaad-d8117e55ca1a",
          "display": "Meaghan Neary"
        },
        "effectiveDateTime": "2025-06-16T22:11:04Z",
        "specimen": {
          "reference": "urn:uuid:672eee85-bda3-4c3d-8bfb-b8c30332b3d8"
        }
      }
    },
    {
      "fullUrl": "urn:uuid:db3b839e-3fdf-4b4c-83ca-ab4ab81b9083",
      "resource": {
        "resourceType": "Observation",
        "id": "db3b839e-3fdf-4b4c-83ca-ab4ab81b9083",
        "meta": {
          "profile": [
            "http://hl7.eu/fhir/laboratory/StructureDefinition/Observation-resultslab-eu-lab"
          ]
        },
        "performer": [
          {
            "display": "The Central European Lab"
          }
        ],
        "category": [
          {
            "coding": [
              {
                "system": "http://terminology.hl7.org/CodeSystem/observation-category",
                "code": "laboratory"
              }
            ]
          }
        ],
        "code": {
          "coding": [
            {
              "code": "6299-2",
              "system": "http://loinc.org",
              "display": "Urea nitrogen [Mass/volume] in Blood"
            }
          ],
          "text": "Urea nitrogen [Mass/volume] in Blood"
        },
        "valueQuantity": {
          "system": "http://unitsofmeasure.org",
          "value": 10.7,
          "unit": "mg/dL",
          "code": "mg/dL"
        },
        "referenceRange": [
          {
            "low": {
              "value": 7,
              "code": "mg/dL",
              "system": "http://unitsofmeasure.org"
            }
          },
          {
            "high": {
              "value": 43,
              "code": "mg/dL",
              "system": "http://unitsofmeasure.org"
            }
          }
        ],
        "text": {
          "status": "generated",
          "div": "<div xmlns=\"http://www.w3.org/1999/xhtml\"><table class=\"hl7__eu__lab__report\"><tr><th>Test</th><th>17-Jun-2025</th><th>Reference&#xA0;Range</th><th>Unit</th></tr><tr><td>Urea nitrogen [Mass/volume] in Blood</td><td>10.7</td><td>7 - 43</td><td></td><td>mg/dL</td></tr></table></div>"
        },
        "status": "final",
        "subject": {
          "reference": "urn:uuid:80e6d13e-dd8e-4137-aaad-d8117e55ca1a",
          "display": "Meaghan Neary"
        },
        "effectiveDateTime": "2025-06-16T22:11:04Z",
        "specimen": {
          "reference": "urn:uuid:672eee85-bda3-4c3d-8bfb-b8c30332b3d8"
        }
      }
    },
    {
      "fullUrl": "urn:uuid:70ae355e-24af-4993-aeb1-9116cee03553",
      "resource": {
        "resourceType": "Observation",
        "id": "70ae355e-24af-4993-aeb1-9116cee03553",
        "meta": {
          "profile": [
            "http://hl7.eu/fhir/laboratory/StructureDefinition/Observation-resultslab-eu-lab"
          ]
        },
        "performer": [
          {
            "display": "The Central European Lab"
          }
        ],
        "category": [
          {
            "coding": [
              {
                "system": "http://terminology.hl7.org/CodeSystem/observation-category",
                "code": "laboratory"
              }
            ]
          }
        ],
        "code": {
          "coding": [
            {
              "code": "38483-4",
              "system": "http://loinc.org",
              "display": "Creatinine [Mass/volume] in Blood"
            }
          ],
          "text": "Creatinine [Mass/volume] in Blood"
        },
        "valueQuantity": {
          "system": "http://unitsofmeasure.org",
          "value": 3.2,
          "unit": "mg/dL",
          "code": "mg/dL"
        },
        "referenceRange": [
          {
            "low": {
              "value": 0.6,
              "code": "mg/dL",
              "system": "http://unitsofmeasure.org"
            }
          },
          {
            "high": {
              "value": 1.1,
              "code": "mg/dL",
              "system": "http://unitsofmeasure.org"
            }
          }
        ],
        "interpretation": [
          {
            "coding": [
              {
                "code": "H",
                "system": "http://terminology.hl7.org/CodeSystem/v3-ObservationInterpretation",
                "display": "High"
              }
            ]
          }
        ],
        "text": {
          "status": "generated",
          "div": "<div xmlns=\"http://www.w3.org/1999/xhtml\"><table class=\"hl7__eu__lab__report\"><tr><th>Test</th><th>17-Jun-2025</th><th>Reference&#xA0;Range</th><th>Unit</th></tr><tr><td>Creatinine [Mass/volume] in Blood</td><td>3.2</td><td>0.6 - 1.1</td><td>H</td><td>mg/dL</td></tr></table></div>"
        },
        "status": "final",
        "subject": {
          "reference": "urn:uuid:80e6d13e-dd8e-4137-aaad-d8117e55ca1a",
          "display": "Meaghan Neary"
        },
        "effectiveDateTime": "2025-06-16T22:11:04Z",
        "specimen": {
          "reference": "urn:uuid:672eee85-bda3-4c3d-8bfb-b8c30332b3d8"
        }
      }
    },
    {
      "fullUrl": "urn:uuid:f0d91def-7c3b-4bd6-ba70-b62910d72f30",
      "resource": {
        "resourceType": "Observation",
        "id": "f0d91def-7c3b-4bd6-ba70-b62910d72f30",
        "meta": {
          "profile": [
            "http://hl7.eu/fhir/laboratory/StructureDefinition/Observation-resultslab-eu-lab"
          ]
        },
        "performer": [
          {
            "display": "The Central European Lab"
          }
        ],
        "category": [
          {
            "coding": [
              {
                "system": "http://terminology.hl7.org/CodeSystem/observation-category",
                "code": "laboratory"
              }
            ]
          }
        ],
        "code": {
          "coding": [
            {
              "code": "49765-1",
              "system": "http://loinc.org",
              "display": "Calcium [Mass/volume] in Blood"
            }
          ],
          "text": "Calcium [Mass/volume] in Blood"
        },
        "valueQuantity": {
          "system": "http://unitsofmeasure.org",
          "value": 9.2,
          "unit": "mg/dL",
          "code": "mg/dL"
        },
        "referenceRange": [
          {
            "low": {
              "value": 8.5,
              "code": "mg/dL",
              "system": "http://unitsofmeasure.org"
            }
          },
          {
            "high": {
              "value": 10.5,
              "code": "mg/dL",
              "system": "http://unitsofmeasure.org"
            }
          }
        ],
        "text": {
          "status": "generated",
          "div": "<div xmlns=\"http://www.w3.org/1999/xhtml\"><table class=\"hl7__eu__lab__report\"><tr><th>Test</th><th>17-Jun-2025</th><th>Reference&#xA0;Range</th><th>Unit</th></tr><tr><td>Calcium [Mass/volume] in Blood</td><td>9.2</td><td>8.5 - 10.5</td><td></td><td>mg/dL</td></tr></table></div>"
        },
        "status": "final",
        "subject": {
          "reference": "urn:uuid:80e6d13e-dd8e-4137-aaad-d8117e55ca1a",
          "display": "Meaghan Neary"
        },
        "effectiveDateTime": "2025-06-16T22:11:04Z",
        "specimen": {
          "reference": "urn:uuid:672eee85-bda3-4c3d-8bfb-b8c30332b3d8"
        }
      }
    },
    {
      "fullUrl": "urn:uuid:87f13865-f424-4329-927a-d789084463e5",
      "resource": {
        "resourceType": "Observation",
        "id": "87f13865-f424-4329-927a-d789084463e5",
        "meta": {
          "profile": [
            "http://hl7.eu/fhir/laboratory/StructureDefinition/Observation-resultslab-eu-lab"
          ]
        },
        "performer": [
          {
            "display": "The Central European Lab"
          }
        ],
        "category": [
          {
            "coding": [
              {
                "system": "http://terminology.hl7.org/CodeSystem/observation-category",
                "code": "laboratory"
              }
            ]
          }
        ],
        "code": {
          "coding": [
            {
              "code": "2947-0",
              "system": "http://loinc.org",
              "display": "Sodium [Moles/volume] in Blood"
            }
          ],
          "text": "Sodium [Moles/volume] in Blood"
        },
        "valueQuantity": {
          "system": "http://unitsofmeasure.org",
          "value": 139,
          "unit": "mmol/L",
          "code": "mmol/L"
        },
        "referenceRange": [
          {
            "low": {
              "value": 135,
              "code": "mmol/L",
              "system": "http://unitsofmeasure.org"
            }
          },
          {
            "high": {
              "value": 145,
              "code": "mmol/L",
              "system": "http://unitsofmeasure.org"
            }
          }
        ],
        "text": {
          "status": "generated",
          "div": "<div xmlns=\"http://www.w3.org/1999/xhtml\"><table class=\"hl7__eu__lab__report\"><tr><th>Test</th><th>17-Jun-2025</th><th>Reference&#xA0;Range</th><th>Unit</th></tr><tr><td>Sodium [Moles/volume] in Blood</td><td>139.0</td><td>135 - 145</td><td></td><td>mmol/L</td></tr></table></div>"
        },
        "status": "final",
        "subject": {
          "reference": "urn:uuid:80e6d13e-dd8e-4137-aaad-d8117e55ca1a",
          "display": "Meaghan Neary"
        },
        "effectiveDateTime": "2025-06-16T22:11:04Z",
        "specimen": {
          "reference": "urn:uuid:672eee85-bda3-4c3d-8bfb-b8c30332b3d8"
        }
      }
    },
    {
      "fullUrl": "urn:uuid:e700edb9-b420-4fa8-a40c-d80953923bd9",
      "resource": {
        "resourceType": "Observation",
        "id": "e700edb9-b420-4fa8-a40c-d80953923bd9",
        "meta": {
          "profile": [
            "http://hl7.eu/fhir/laboratory/StructureDefinition/Observation-resultslab-eu-lab"
          ]
        },
        "performer": [
          {
            "display": "The Central European Lab"
          }
        ],
        "category": [
          {
            "coding": [
              {
                "system": "http://terminology.hl7.org/CodeSystem/observation-category",
                "code": "laboratory"
              }
            ]
          }
        ],
        "code": {
          "coding": [
            {
              "code": "6298-4",
              "system": "http://loinc.org",
              "display": "Potassium [Moles/volume] in Blood"
            }
          ],
          "text": "Potassium [Moles/volume] in Blood"
        },
        "valueQuantity": {
          "system": "http://unitsofmeasure.org",
          "value": 5,
          "unit": "mmol/L",
          "code": "mmol/L"
        },
        "referenceRange": [
          {
            "low": {
              "value": 3.5,
              "code": "mmol/L",
              "system": "http://unitsofmeasure.org"
            }
          },
          {
            "high": {
              "value": 5.1,
              "code": "mmol/L",
              "system": "http://unitsofmeasure.org"
            }
          }
        ],
        "text": {
          "status": "generated",
          "div": "<div xmlns=\"http://www.w3.org/1999/xhtml\"><table class=\"hl7__eu__lab__report\"><tr><th>Test</th><th>17-Jun-2025</th><th>Reference&#xA0;Range</th><th>Unit</th></tr><tr><td>Potassium [Moles/volume] in Blood</td><td>5.0</td><td>3.5 - 5.1</td><td></td><td>mmol/L</td></tr></table></div>"
        },
        "status": "final",
        "subject": {
          "reference": "urn:uuid:80e6d13e-dd8e-4137-aaad-d8117e55ca1a",
          "display": "Meaghan Neary"
        },
        "effectiveDateTime": "2025-06-16T22:11:04Z",
        "specimen": {
          "reference": "urn:uuid:672eee85-bda3-4c3d-8bfb-b8c30332b3d8"
        }
      }
    },
    {
      "fullUrl": "urn:uuid:e59ebf71-d2bf-41d5-9a7e-1c77c158b40a",
      "resource": {
        "resourceType": "Observation",
        "id": "e59ebf71-d2bf-41d5-9a7e-1c77c158b40a",
        "meta": {
          "profile": [
            "http://hl7.eu/fhir/laboratory/StructureDefinition/Observation-resultslab-eu-lab"
          ]
        },
        "performer": [
          {
            "display": "The Central European Lab"
          }
        ],
        "category": [
          {
            "coding": [
              {
                "system": "http://terminology.hl7.org/CodeSystem/observation-category",
                "code": "laboratory"
              }
            ]
          }
        ],
        "code": {
          "coding": [
            {
              "code": "2069-3",
              "system": "http://loinc.org",
              "display": "Chloride [Moles/volume] in Blood"
            }
          ],
          "text": "Chloride [Moles/volume] in Blood"
        },
        "valueQuantity": {
          "system": "http://unitsofmeasure.org",
          "value": 102.5,
          "unit": "mmol/L",
          "code": "mmol/L"
        },
        "referenceRange": [
          {
            "low": {
              "value": 98,
              "code": "mmol/L",
              "system": "http://unitsofmeasure.org"
            }
          },
          {
            "high": {
              "value": 108,
              "code": "mmol/L",
              "system": "http://unitsofmeasure.org"
            }
          }
        ],
        "text": {
          "status": "generated",
          "div": "<div xmlns=\"http://www.w3.org/1999/xhtml\"><table class=\"hl7__eu__lab__report\"><tr><th>Test</th><th>17-Jun-2025</th><th>Reference&#xA0;Range</th><th>Unit</th></tr><tr><td>Chloride [Moles/volume] in Blood</td><td>102.5</td><td>98 - 108</td><td></td><td>mmol/L</td></tr></table></div>"
        },
        "status": "final",
        "subject": {
          "reference": "urn:uuid:80e6d13e-dd8e-4137-aaad-d8117e55ca1a",
          "display": "Meaghan Neary"
        },
        "effectiveDateTime": "2025-06-16T22:11:04Z",
        "specimen": {
          "reference": "urn:uuid:672eee85-bda3-4c3d-8bfb-b8c30332b3d8"
        }
      }
    },
    {
      "fullUrl": "urn:uuid:ca575b88-cbdc-4f94-a809-5194e5df3b63",
      "resource": {
        "resourceType": "Observation",
        "id": "ca575b88-cbdc-4f94-a809-5194e5df3b63",
        "meta": {
          "profile": [
            "http://hl7.eu/fhir/laboratory/StructureDefinition/Observation-resultslab-eu-lab"
          ]
        },
        "performer": [
          {
            "display": "The Central European Lab"
          }
        ],
        "category": [
          {
            "coding": [
              {
                "system": "http://terminology.hl7.org/CodeSystem/observation-category",
                "code": "laboratory"
              }
            ]
          }
        ],
        "code": {
          "coding": [
            {
              "code": "20565-8",
              "system": "http://loinc.org",
              "display": "Carbon dioxide, total [Moles/volume] in Blood"
            }
          ],
          "text": "Carbon dioxide, total [Moles/volume] in Blood"
        },
        "valueQuantity": {
          "system": "http://unitsofmeasure.org",
          "value": 26.7,
          "unit": "mmol/L",
          "code": "mmol/L"
        },
        "referenceRange": [
          {
            "low": {
              "value": 22,
              "code": "mmol/L",
              "system": "http://unitsofmeasure.org"
            }
          },
          {
            "high": {
              "value": 29,
              "code": "mmol/L",
              "system": "http://unitsofmeasure.org"
            }
          }
        ],
        "text": {
          "status": "generated",
          "div": "<div xmlns=\"http://www.w3.org/1999/xhtml\"><table class=\"hl7__eu__lab__report\"><tr><th>Test</th><th>17-Jun-2025</th><th>Reference&#xA0;Range</th><th>Unit</th></tr><tr><td>Carbon dioxide, total [Moles/volume] in Blood</td><td>26.7</td><td>22 - 29</td><td></td><td>mmol/L</td></tr></table></div>"
        },
        "status": "final",
        "subject": {
          "reference": "urn:uuid:80e6d13e-dd8e-4137-aaad-d8117e55ca1a",
          "display": "Meaghan Neary"
        },
        "effectiveDateTime": "2025-06-16T22:11:04Z",
        "specimen": {
          "reference": "urn:uuid:672eee85-bda3-4c3d-8bfb-b8c30332b3d8"
        }
      }
    },
    {
      "fullUrl": "urn:uuid:50824a3e-d796-4b4f-8d46-07ed76114dd0",
      "resource": {
        "resourceType": "Device",
        "id": "50824a3e-d796-4b4f-8d46-07ed76114dd0",
        "deviceName": [
          {
            "name": "SYNDERAI Synthetic Generator",
            "type": "manufacturer-name"
          }
        ],
        "version": [
          {
            "value": "5.0"
          }
        ],
        "text": {
          "status": "generated",
          "div": "<div xmlns=\"http://www.w3.org/1999/xhtml\">SYNDERAI Synthetic Generator v5.0</div>"
        },
        "status": "active\"",
        "distinctIdentifier": "synderai-generator-50",
        "manufacturer": "SYNDERAI Project"
      }
    },
    {
      "fullUrl": "urn:uuid:d39907c8-b68e-492e-8f9d-2d67c0214866",
      "resource": {
        "resourceType": "Provenance",
        "id": "d39907c8-b68e-492e-8f9d-2d67c0214866",
        "target": [
          {
            "reference": "Patient/80e6d13e-dd8e-4137-aaad-d8117e55ca1a"
          },
          {
            "reference": "Bundle/475ec675-5fdb-4b95-9826-fd1a1a4acf88"
          },
          {
            "reference": "Composition/25014c58-33e7-4d74-b36f-e66abe57a94b"
          },
          {
            "reference": "PractitionerRole/37fd29ab-00b7-4edc-a5e0-b179ad9163c5"
          },
          {
            "reference": "Practitioner/4c98adf0-0434-4207-ac0f-75ecd808943b"
          },
          {
            "reference": "PractitionerRole/c1db21f5-f991-4958-a29c-38a86547ff4c"
          },
          {
            "reference": "Organization/e941d7ba-eee2-495b-bcb3-808212fb241b"
          }
        ],
        "activity": {
          "text": "Synthetic Example Data Generation"
        },
        "policy": [
          "https://synderai.net/synderai-synthetic-data-policy"
        ],
        "agent": [
          {
            "type": {
              "text": "author"
            },
            "who": {
              "reference": "Device/50824a3e-d796-4b4f-8d46-07ed76114dd0"
            }
          }
        ],
        "reason": [
          {
            "text": "Interoperability Testing and Training (non-clinical use)"
          }
        ],
        "text": {
          "status": "generated",
          "div": "<div xmlns=\"http://www.w3.org/1999/xhtml\">Provenance for SYNDERAI Synthetic Example Data Resource</div>"
        },
        "recorded": "2025-06-17T00:11:04Z"
      }
    },
    {
      "fullUrl": "urn:uuid:37fd29ab-00b7-4edc-a5e0-b179ad9163c5",
      "resource": {
        "resourceType": "PractitionerRole",
        "id": "37fd29ab-00b7-4edc-a5e0-b179ad9163c5",
        "meta": {
          "profile": [
            "http://hl7.eu/fhir/base/StructureDefinition/practitionerRole-eu"
          ]
        },
        "text": {
          "status": "generated",
          "div": "<div xmlns=\"http://www.w3.org/1999/xhtml\">Laboratory Role Id: 37fd29ab-00b7-4edc-a5e0-b179ad9163c5</div>"
        },
        "practitioner": {
          "reference": "urn:uuid:4c98adf0-0434-4207-ac0f-75ecd808943b"
        }
      }
    },
    {
      "fullUrl": "urn:uuid:4c98adf0-0434-4207-ac0f-75ecd808943b",
      "resource": {
        "resourceType": "Practitioner",
        "id": "4c98adf0-0434-4207-ac0f-75ecd808943b",
        "meta": {
          "profile": [
            "http://hl7.eu/fhir/base/StructureDefinition/practitioner-eu"
          ]
        },
        "identifier": [
          {
            "assigner": {
              "display": "HL7 Europe"
            },
            "system": "urn:oid:2.16.840.1.113883.2.51.999",
            "value": "f54252f0-f495-4b8d-bbbf-e4b4ec50d8e8"
          }
        ],
        "name": [
          {
            "prefix": [
              "dr"
            ],
            "given": [
              "Ex"
            ],
            "family": "Ample"
          }
        ],
        "address": [
          {
            "line": [
              "Laboratoire Central Europenne",
              "Boulevard du Jardin Botanique 32"
            ],
            "postalCode": "1000",
            "city": "Brussels",
            "country": "Belgium"
          }
        ],
        "text": {
          "status": "generated",
          "div": "<div xmlns=\"http://www.w3.org/1999/xhtml\">Laboratory: Laboratoire Central Europenne, 1000 Brussels, Belgium</div>"
        }
      }
    }
  ],
  "type": "document",
  "timestamp": "2025-06-17T00:11:04Z"
}
