{
  "resourceType": "Bundle",
  "id": "68a27eca-bab2-41ba-b6f6-2d0798a1457c",
  "meta": {
    "profile": [
      "http://hl7.eu/fhir/laboratory/StructureDefinition/Bundle-eu-lab"
    ]
  },
  "identifier": {
    "assigner": {
      "display": "HL7 Europe"
    },
    "system": "urn:oid:2.16.840.1.113883.2.51.999",
    "value": "3708b5d5-ad93-4918-84e1-7c041a08ac9b"
  },
  "entry": [
    {
      "fullUrl": "urn:uuid:e5aab757-7cdb-4313-9ff2-ce1dd8634714",
      "resource": {
        "resourceType": "Composition",
        "id": "e5aab757-7cdb-4313-9ff2-ce1dd8634714",
        "meta": {
          "profile": [
            "http://hl7.eu/fhir/laboratory/StructureDefinition/Composition-eu-lab"
          ]
        },
        "identifier": {
          "assigner": {
            "display": "HL7 Europe"
          },
          "system": "urn:oid:2.16.840.1.113883.2.51.999",
          "value": "b70a1532-8379-4f9a-9406-e1efbd87058a"
        },
        "author": [
          {
            "reference": "urn:uuid:ef7c0488-7ec4-456d-bf10-fa7521eb79e2"
          }
        ],
        "category": [
          {
            "coding": [
              {
                "code": "26436-6",
                "system": "http://loinc.org",
                "display": "Laboratory studies (set)"
              }
            ]
          }
        ],
        "type": {
          "coding": [
            {
              "code": "11502-2",
              "system": "http://loinc.org",
              "display": "Laboratory report"
            }
          ],
          "text": "Laboratory Report"
        },
        "section": [
          {
            "code": {
              "coding": [
                {
                  "code": "26436-6",
                  "system": "http://loinc.org",
                  "display": "Laboratory studies (set)"
                }
              ],
              "text": "Laboratory studies"
            },
            "section": [
              {
                "code": {
                  "coding": [
                    {
                      "code": "$18719-5",
                      "system": "http://loinc.org",
                      "display": "Chemistry studies (set)"
                    }
                  ],
                  "text": "Chemistry"
                },
                "entry": [
                  {
                    "reference": "urn:uuid:8df82132-88b2-4f27-b1ed-1a84a1c8892a"
                  }
                ],
                "text": {
                  "status": "generated",
                  "div": "<div xmlns=\"http://www.w3.org/1999/xhtml\"><h3>Chemistry</h3><table class=\"hl7__eu__lab__report\"><thead><tr><th>Test</th><th>20-JUN-2017</th><th>Reference&#xA0;Range</th><th>Unit</th></tr></thead><tbody><tr><td>Ketones [Presence] in Urine by Test strip</td><td>Urine ketone test negative</td><td></td><td></td></tr></tbody></table></div>"
                },
                "title": "Chemistry"
              },
              {
                "code": {
                  "coding": [
                    {
                      "code": "$18729-4",
                      "system": "http://loinc.org",
                      "display": "Urinalysis studies (set)"
                    }
                  ],
                  "text": "Urinalysis"
                },
                "entry": [
                  {
                    "reference": "urn:uuid:94ed9875-4ae9-4cb4-91b2-b59d74686697"
                  },
                  {
                    "reference": "urn:uuid:a20cd4d9-63a3-4a55-b8c9-aba942df532a"
                  },
                  {
                    "reference": "urn:uuid:6f5d7b9e-a53e-4a6f-9081-fa22cb0e138d"
                  },
                  {
                    "reference": "urn:uuid:728344d3-d869-4d16-9680-d0bf251d5152"
                  },
                  {
                    "reference": "urn:uuid:ebad2df1-030b-43cd-82a9-fd51fca55d90"
                  },
                  {
                    "reference": "urn:uuid:37202824-a6f7-4ecc-95b1-93f0e40891f3"
                  },
                  {
                    "reference": "urn:uuid:0fd931dd-e1a8-4f8b-b1ae-2eeba225da0b"
                  },
                  {
                    "reference": "urn:uuid:9f82f807-6809-4dba-be36-9039faba8558"
                  },
                  {
                    "reference": "urn:uuid:525df257-8136-4c2e-ae85-15fbd8f4f395"
                  },
                  {
                    "reference": "urn:uuid:b42a8294-aa3d-4fed-8a53-7ce4becccf46"
                  },
                  {
                    "reference": "urn:uuid:b4ab3f2c-dbd3-4ffd-a494-fa4f18628af7"
                  },
                  {
                    "reference": "urn:uuid:b8c33037-2110-46e3-a14b-b03cff8e597f"
                  },
                  {
                    "reference": "urn:uuid:e5fe8a5b-5888-41f7-9340-f9b4aaf35232"
                  }
                ],
                "text": {
                  "status": "generated",
                  "div": "<div xmlns=\"http://www.w3.org/1999/xhtml\"><h3>Urinalysis</h3><table class=\"hl7__eu__lab__report\"><thead><tr><th>Test</th><th>20-JUN-2017</th><th>Reference&#xA0;Range</th><th>Unit</th></tr></thead><tbody><tr><td>Glucose [Mass/volume] in Urine by Test strip</td><td><strong>5.4 H</strong></td><td>0 - 0.8</td><td>mg/dL</td></tr><tr><td>Specific gravity of Urine by Test strip</td><td><strong>1.0 L</strong></td><td>1.005 - 1.03</td><td>{nominal}</td></tr><tr><td>pH of Urine by Test strip</td><td>5.1</td><td>4.6 - 7</td><td>pH</td></tr><tr><td>Protein [Mass/volume] in Urine by Test strip</td><td>10.8</td><td>0 - 150</td><td>mg/dL</td></tr><tr><td>Nitrite [Presence] in Urine by Test strip</td><td>Urine nitrite positive</td><td></td><td></td></tr><tr><td>Hemoglobin [Presence] in Urine by Test strip</td><td>Urine blood test = +</td><td></td><td></td></tr><tr><td>Leukocyte esterase [Presence] in Urine by Test strip</td><td>Urine leukocyte test</td><td></td><td></td></tr><tr><td>Leukocytes [#/area] in Urine sediment by Microscopy high power field</td><td><strong>24.3 H</strong></td><td>0 - 20</td><td>/[HPF]</td></tr><tr><td>Erythrocytes [#/area] in Urine sediment by Microscopy high power field</td><td>2.4</td><td>0 - 5</td><td>/[HPF]</td></tr><tr><td>Epithelial cells [#/area] in Urine sediment by Microscopy high power field</td><td>1.5</td><td>0 - 5</td><td>/[HPF]</td></tr><tr><td>Casts [Presence] in Urine sediment by Light microscopy</td><td>Urine microscopy: no casts</td><td></td><td></td></tr><tr><td>Mucus [Presence] in Urine sediment by Light microscopy</td><td>Mucus in urine</td><td></td><td></td></tr><tr><td>Bacteria [#/area] in Urine sediment by Microscopy high power field</td><td>Finding of presence of bacteria</td><td></td><td></td></tr></tbody></table></div>"
                },
                "title": "Urinalysis"
              },
              {
                "code": {
                  "coding": [
                    {
                      "code": "$18725-2",
                      "system": "http://loinc.org",
                      "display": "Microbiology studies"
                    }
                  ],
                  "text": "Microbiology"
                },
                "entry": [
                  {
                    "reference": "urn:uuid:1ca332ba-385d-4ed9-a3d7-347b090e39db"
                  }
                ],
                "text": {
                  "status": "generated",
                  "div": "<div xmlns=\"http://www.w3.org/1999/xhtml\"><h3>Microbiology</h3><table class=\"hl7__eu__lab__report\"><thead><tr><th>Test</th><th>20-JUN-2017</th><th>Reference&#xA0;Range</th><th>Unit</th></tr></thead><tbody><tr><td>Bacteria identified in Urine by Culture</td><td></td><td></td><td></td></tr></tbody></table></div>"
                },
                "title": "Microbiology"
              }
            ],
            "title": "Laboratory Report"
          },
          {
            "text": {
              "status": "generated",
              "div": "<div xmlns=\"http://www.w3.org/1999/xhtml\"><h3>Annotation</h3><table class=\"hl7__eu__lab__report\"><tr><th>Conclusion and Recommendations based on this report and previous findings known to us</th></tr><tr><td>The urine findings indicate a urinary tract infection (UTI) with Escherichia coli, evidenced by positive nitrites, leukocyte esterase, elevated leukocytes, presence of bacteria, and &gt;100,000 CFU/mL E. coli. Hematuria and mild proteinuria are present. Glucosuria is noted and may warrant further evaluation for hyperglycemia or diabetes. No casts detected. Recommend clinical correlation and appropriate antimicrobial therapy.</td></tr></table></div>"
            },
            "code": {
              "coding": [
                {
                  "system": "http://loinc.org",
                  "code": "48767-8",
                  "display": "Annotation comment"
                }
              ]
            },
            "title": "Annotation comment"
          }
        ],
        "status": "final",
        "subject": {
          "reference": "urn:uuid:5227d3c4-3da3-45bf-9671-827e9f500cd9",
          "display": "Elias Höfig"
        },
        "date": "2017-06-20T13:15:09Z",
        "title": "Laboratory Report",
        "confidentiality": "N"
      }
    },
    {
      "fullUrl": "urn:uuid:eae1faf0-c37d-4aa8-8a93-a78f817f7b11",
      "resource": {
        "resourceType": "DiagnosticReport",
        "id": "eae1faf0-c37d-4aa8-8a93-a78f817f7b11",
        "meta": {
          "profile": [
            "http://hl7.eu/fhir/laboratory/StructureDefinition/DiagnosticReport-eu-lab"
          ]
        },
        "identifier": [
          {
            "assigner": {
              "display": "HL7 Europe"
            },
            "system": "urn:oid:2.16.840.1.113883.2.51.999",
            "value": "e3c1438f-5513-4cf7-9dfe-f82898c7a44a"
          }
        ],
        "extension": [
          {
            "url": "http://hl7.org/fhir/5.0/StructureDefinition/extension-DiagnosticReport.composition",
            "valueReference": {
              "reference": "urn:uuid:b70a1532-8379-4f9a-9406-e1efbd87058a"
            }
          }
        ],
        "category": [
          {
            "coding": [
              {
                "code": "26436-6",
                "system": "http://loinc.org",
                "display": "Laboratory studies (set)"
              }
            ]
          }
        ],
        "specimen": [
          {
            "reference": "urn:uuid:bfa407ed-c746-4039-9938-5b8be2b59271"
          },
          {
            "reference": "urn:uuid:80a80222-cf40-4b92-a28b-417fa9ffd520"
          }
        ],
        "result": [
          {
            "reference": "urn:uuid:94ed9875-4ae9-4cb4-91b2-b59d74686697"
          },
          {
            "reference": "urn:uuid:8df82132-88b2-4f27-b1ed-1a84a1c8892a"
          },
          {
            "reference": "urn:uuid:a20cd4d9-63a3-4a55-b8c9-aba942df532a"
          },
          {
            "reference": "urn:uuid:6f5d7b9e-a53e-4a6f-9081-fa22cb0e138d"
          },
          {
            "reference": "urn:uuid:728344d3-d869-4d16-9680-d0bf251d5152"
          },
          {
            "reference": "urn:uuid:ebad2df1-030b-43cd-82a9-fd51fca55d90"
          },
          {
            "reference": "urn:uuid:37202824-a6f7-4ecc-95b1-93f0e40891f3"
          },
          {
            "reference": "urn:uuid:0fd931dd-e1a8-4f8b-b1ae-2eeba225da0b"
          },
          {
            "reference": "urn:uuid:9f82f807-6809-4dba-be36-9039faba8558"
          },
          {
            "reference": "urn:uuid:525df257-8136-4c2e-ae85-15fbd8f4f395"
          },
          {
            "reference": "urn:uuid:b42a8294-aa3d-4fed-8a53-7ce4becccf46"
          },
          {
            "reference": "urn:uuid:b4ab3f2c-dbd3-4ffd-a494-fa4f18628af7"
          },
          {
            "reference": "urn:uuid:b8c33037-2110-46e3-a14b-b03cff8e597f"
          },
          {
            "reference": "urn:uuid:e5fe8a5b-5888-41f7-9340-f9b4aaf35232"
          },
          {
            "reference": "urn:uuid:1ca332ba-385d-4ed9-a3d7-347b090e39db"
          }
        ],
        "status": "registered",
        "code": {
          "coding": [
            {
              "code": "11502-2",
              "system": "http://loinc.org",
              "display": "Laboratory report"
            }
          ]
        },
        "subject": {
          "reference": "urn:uuid:5227d3c4-3da3-45bf-9671-827e9f500cd9",
          "display": "Elias Höfig"
        }
      }
    },
    {
      "fullUrl": "urn:uuid:5227d3c4-3da3-45bf-9671-827e9f500cd9",
      "resource": {
        "resourceType": "Patient",
        "id": "5227d3c4-3da3-45bf-9671-827e9f500cd9",
        "meta": {
          "security": [
            {
              "system": "http://terminology.hl7.org/CodeSystem/v3-ActReason",
              "code": "HTEST"
            },
            {
              "system": "http://terminology.hl7.org/CodeSystem/v3-ActReason",
              "code": "TRAIN"
            }
          ],
          "tag": [
            {
              "system": "https://synderai.net/fhir/CodeSystem/tags",
              "code": "synthetic",
              "display": "SYNDERAI Synthetic data"
            }
          ],
          "profile": [
            "http://hl7.eu/fhir/base/StructureDefinition/patient-eu-core"
          ]
        },
        "identifier": [
          {
            "type": {
              "coding": [
                {
                  "code": "PT",
                  "system": "http://terminology.hl7.org/CodeSystem/v2-0203"
                }
              ]
            },
            "system": "http://ec.europa.eu/identifier/eci",
            "value": "7833-401919-3"
          },
          {
            "type": {
              "coding": [
                {
                  "code": "MR",
                  "system": "http://terminology.hl7.org/CodeSystem/v2-0203"
                }
              ]
            },
            "system": "http://local.setting.eu/identifier",
            "value": "55b3d71c-a283-2178-4db6-d251ed0e1404"
          }
        ],
        "name": [
          {
            "family": "Höfig"
          },
          {
            "given": [
              "Elias"
            ]
          },
          {
            "text": "Elias Höfig"
          }
        ],
        "address": [
          {
            "line": [
              "Pauline-Schwital-Allee 6-2"
            ],
            "use": "home",
            "type": "physical",
            "postalCode": "39326",
            "city": "Wolmirstedt",
            "country": "Germany"
          }
        ],
        "telecom": [
          {
            "system": "phone",
            "value": "+49 (0) 4602 154908"
          }
        ],
        "extension": [
          {
            "url": "http://hl7.org/fhir/StructureDefinition/patient-nationality",
            "valueCodeableConcept": {
              "coding": [
                {
                  "code": "DE",
                  "system": "http://hl7.org/fhir/ValueSet/country"
                }
              ]
            }
          }
        ],
        "text": {
          "status": "generated",
          "div": "<div xmlns=\"http://www.w3.org/1999/xhtml\"><table class=\"hl7__ips\"><tr><td>Elias Höfig</td><td>male</td><td>19-May-1974</td></tr></table></div>"
        },
        "gender": "male",
        "birthDate": "1974-05-19"
      }
    },
    {
      "fullUrl": "urn:uuid:fd41df6d-448e-4625-93cf-1c233cca2005",
      "resource": {
        "resourceType": "ServiceRequest",
        "id": "fd41df6d-448e-4625-93cf-1c233cca2005",
        "meta": {
          "profile": [
            "http://hl7.eu/fhir/laboratory/StructureDefinition/ServiceRequest-eu-lab"
          ]
        },
        "identifier": [
          {
            "system": "http://example.org",
            "value": "c968dc98-2631-4e9f-8c44-0294f3d0b115"
          }
        ],
        "specimen": [
          {
            "reference": "urn:uuid:bfa407ed-c746-4039-9938-5b8be2b59271"
          },
          {
            "reference": "urn:uuid:80a80222-cf40-4b92-a28b-417fa9ffd520"
          }
        ],
        "status": "active",
        "intent": "order",
        "code": {
          "coding": [
            {
              "code": "108252007",
              "system": "http://snomed.info/sct",
              "display": "Laboratory procedure"
            }
          ]
        },
        "subject": {
          "reference": "urn:uuid:5227d3c4-3da3-45bf-9671-827e9f500cd9",
          "display": "Elias Höfig"
        },
        "requester": {
          "reference": "urn:uuid:d3fc5f46-4d6a-4d14-9ca5-728ec64dd133"
        }
      }
    },
    {
      "fullUrl": "urn:uuid:d3fc5f46-4d6a-4d14-9ca5-728ec64dd133",
      "resource": {
        "resourceType": "PractitionerRole",
        "id": "d3fc5f46-4d6a-4d14-9ca5-728ec64dd133",
        "meta": {
          "profile": [
            "http://hl7.eu/fhir/base/StructureDefinition/practitionerRole-eu"
          ]
        },
        "text": {
          "status": "generated",
          "div": "<div xmlns=\"http://www.w3.org/1999/xhtml\">Provider Role Id: d3fc5f46-4d6a-4d14-9ca5-728ec64dd133</div>"
        },
        "organization": {
          "reference": "urn:uuid:23a80264-cb19-47cb-ba49-4631b02e5f47"
        }
      }
    },
    {
      "fullUrl": "urn:uuid:23a80264-cb19-47cb-ba49-4631b02e5f47",
      "resource": {
        "resourceType": "Organization",
        "id": "23a80264-cb19-47cb-ba49-4631b02e5f47",
        "meta": {
          "profile": [
            "http://hl7.eu/fhir/base/StructureDefinition/organization-eu"
          ]
        },
        "identifier": [
          {
            "assigner": {
              "display": "HL7 Europe"
            },
            "system": "urn:oid:2.16.840.1.113883.2.51.999",
            "value": "62bf5e71-e2d8-409a-88a1-1ab3af03c3ae"
          }
        ],
        "address": [
          {
            "line": [
              "Birkenallee 34"
            ],
            "city": "Magdeburg",
            "postalCode": "39130",
            "country": "Germany"
          }
        ],
        "text": {
          "status": "generated",
          "div": "<div xmlns=\"http://www.w3.org/1999/xhtml\">Provider Organization: Klinikum Magdeburg</div>"
        },
        "name": "Klinikum Magdeburg"
      }
    },
    {
      "fullUrl": "urn:uuid:bfa407ed-c746-4039-9938-5b8be2b59271",
      "resource": {
        "resourceType": "Specimen",
        "id": "bfa407ed-c746-4039-9938-5b8be2b59271",
        "meta": {
          "profile": [
            "http://hl7.eu/fhir/laboratory/StructureDefinition/Specimen-eu-lab"
          ]
        },
        "collection": {
          "collectedDateTime": "2017-06-20"
        },
        "text": {
          "status": "generated",
          "div": "<div xmlns=\"http://www.w3.org/1999/xhtml\"><table class=\"hl7__eu__lab__report\"><tr><th>Specimen</th><th>Collection Date</th></tr><tr><td>Urine specimen</td><td><span class=\"nb\">20-Jun-2017</span></td></tr></table></div>"
        },
        "type": {
          "coding": [
            {
              "code": "122575003",
              "system": "http://snomed.info/sct",
              "display": "Urine specimen"
            }
          ]
        }
      }
    },
    {
      "fullUrl": "urn:uuid:80a80222-cf40-4b92-a28b-417fa9ffd520",
      "resource": {
        "resourceType": "Specimen",
        "id": "80a80222-cf40-4b92-a28b-417fa9ffd520",
        "meta": {
          "profile": [
            "http://hl7.eu/fhir/laboratory/StructureDefinition/Specimen-eu-lab"
          ]
        },
        "collection": {
          "collectedDateTime": "2017-06-20"
        },
        "text": {
          "status": "generated",
          "div": "<div xmlns=\"http://www.w3.org/1999/xhtml\"><table class=\"hl7__eu__lab__report\"><tr><th>Specimen</th><th>Collection Date</th></tr><tr><td>Urine sediment specimen (specimen)</td><td><span class=\"nb\">20-Jun-2017</span></td></tr></table></div>"
        },
        "type": {
          "coding": [
            {
              "code": "122567009",
              "system": "http://snomed.info/sct",
              "display": "Urine sediment specimen (specimen)"
            }
          ]
        }
      }
    },
    {
      "fullUrl": "urn:uuid:94ed9875-4ae9-4cb4-91b2-b59d74686697",
      "resource": {
        "resourceType": "Observation",
        "id": "94ed9875-4ae9-4cb4-91b2-b59d74686697",
        "meta": {
          "profile": [
            "http://hl7.eu/fhir/laboratory/StructureDefinition/Observation-resultslab-eu-lab"
          ]
        },
        "performer": [
          {
            "display": "The Central European Lab"
          }
        ],
        "category": [
          {
            "coding": [
              {
                "system": "http://terminology.hl7.org/CodeSystem/observation-category",
                "code": "laboratory"
              }
            ]
          }
        ],
        "code": {
          "coding": [
            {
              "code": "5792-7",
              "system": "http://loinc.org",
              "display": "Glucose [Mass/volume] in Urine by Test strip"
            }
          ],
          "text": "Glucose [Mass/volume] in Urine by Test strip"
        },
        "valueQuantity": {
          "system": "http://unitsofmeasure.org",
          "value": 5.4,
          "unit": "mg/dL",
          "code": "mg/dL"
        },
        "referenceRange": [
          {
            "low": {
              "value": 0,
              "code": "mg/dL",
              "system": "http://unitsofmeasure.org"
            }
          },
          {
            "high": {
              "value": 0.8,
              "code": "mg/dL",
              "system": "http://unitsofmeasure.org"
            }
          }
        ],
        "interpretation": [
          {
            "coding": [
              {
                "code": "H",
                "system": "http://terminology.hl7.org/CodeSystem/v3-ObservationInterpretation",
                "display": "High"
              }
            ]
          }
        ],
        "text": {
          "status": "generated",
          "div": "<div xmlns=\"http://www.w3.org/1999/xhtml\"><table class=\"hl7__eu__lab__report\"><tr><th>Test</th><th>20-Jun-2017</th><th>Reference&#xA0;Range</th><th>Unit</th></tr><tr><td>Glucose [Mass/volume] in Urine by Test strip</td><td>5.4</td><td>0 - 0.8</td><td>H</td><td>mg/dL</td></tr></table></div>"
        },
        "status": "final",
        "subject": {
          "reference": "urn:uuid:5227d3c4-3da3-45bf-9671-827e9f500cd9",
          "display": "Elias Höfig"
        },
        "effectiveDateTime": "2017-06-20T11:15:09Z",
        "specimen": {
          "reference": "urn:uuid:bfa407ed-c746-4039-9938-5b8be2b59271"
        }
      }
    },
    {
      "fullUrl": "urn:uuid:8df82132-88b2-4f27-b1ed-1a84a1c8892a",
      "resource": {
        "resourceType": "Observation",
        "id": "8df82132-88b2-4f27-b1ed-1a84a1c8892a",
        "meta": {
          "profile": [
            "http://hl7.eu/fhir/laboratory/StructureDefinition/Observation-resultslab-eu-lab"
          ]
        },
        "performer": [
          {
            "display": "The Central European Lab"
          }
        ],
        "category": [
          {
            "coding": [
              {
                "system": "http://terminology.hl7.org/CodeSystem/observation-category",
                "code": "laboratory"
              }
            ]
          }
        ],
        "code": {
          "coding": [
            {
              "code": "2514-8",
              "system": "http://loinc.org",
              "display": "Ketones [Presence] in Urine by Test strip"
            }
          ],
          "text": "Ketones [Presence] in Urine by Test strip"
        },
        "text": {
          "status": "generated",
          "div": "<div xmlns=\"http://www.w3.org/1999/xhtml\"><table class=\"hl7__eu__lab__report\"><tr><th>Test</th><th>20-Jun-2017</th><th>Reference&#xA0;Range</th><th>Unit</th></tr><tr><td>Ketones [Presence] in Urine by Test strip</td></tr></table></div>"
        },
        "status": "final",
        "subject": {
          "reference": "urn:uuid:5227d3c4-3da3-45bf-9671-827e9f500cd9",
          "display": "Elias Höfig"
        },
        "effectiveDateTime": "2017-06-20T11:15:09Z",
        "specimen": {
          "reference": "urn:uuid:bfa407ed-c746-4039-9938-5b8be2b59271"
        }
      }
    },
    {
      "fullUrl": "urn:uuid:a20cd4d9-63a3-4a55-b8c9-aba942df532a",
      "resource": {
        "resourceType": "Observation",
        "id": "a20cd4d9-63a3-4a55-b8c9-aba942df532a",
        "meta": {
          "profile": [
            "http://hl7.eu/fhir/laboratory/StructureDefinition/Observation-resultslab-eu-lab"
          ]
        },
        "performer": [
          {
            "display": "The Central European Lab"
          }
        ],
        "category": [
          {
            "coding": [
              {
                "system": "http://terminology.hl7.org/CodeSystem/observation-category",
                "code": "laboratory"
              }
            ]
          }
        ],
        "code": {
          "coding": [
            {
              "code": "5811-5",
              "system": "http://loinc.org",
              "display": "Specific gravity of Urine by Test strip"
            }
          ],
          "text": "Specific gravity of Urine by Test strip"
        },
        "valueQuantity": {
          "system": "http://unitsofmeasure.org",
          "value": 1,
          "unit": "{nominal}",
          "code": "{nominal}"
        },
        "referenceRange": [
          {
            "low": {
              "value": 1.005,
              "code": "g/mL",
              "system": "http://unitsofmeasure.org"
            }
          },
          {
            "high": {
              "value": 1.03,
              "code": "g/mL",
              "system": "http://unitsofmeasure.org"
            }
          }
        ],
        "interpretation": [
          {
            "coding": [
              {
                "code": "L",
                "system": "http://terminology.hl7.org/CodeSystem/v3-ObservationInterpretation",
                "display": "Low"
              }
            ]
          }
        ],
        "text": {
          "status": "generated",
          "div": "<div xmlns=\"http://www.w3.org/1999/xhtml\"><table class=\"hl7__eu__lab__report\"><tr><th>Test</th><th>20-Jun-2017</th><th>Reference&#xA0;Range</th><th>Unit</th></tr><tr><td>Specific gravity of Urine by Test strip</td><td>1.0</td><td>1.005 - 1.03</td><td>L</td><td>{nominal}</td></tr></table></div>"
        },
        "status": "final",
        "subject": {
          "reference": "urn:uuid:5227d3c4-3da3-45bf-9671-827e9f500cd9",
          "display": "Elias Höfig"
        },
        "effectiveDateTime": "2017-06-20T11:15:09Z",
        "specimen": {
          "reference": "urn:uuid:bfa407ed-c746-4039-9938-5b8be2b59271"
        }
      }
    },
    {
      "fullUrl": "urn:uuid:6f5d7b9e-a53e-4a6f-9081-fa22cb0e138d",
      "resource": {
        "resourceType": "Observation",
        "id": "6f5d7b9e-a53e-4a6f-9081-fa22cb0e138d",
        "meta": {
          "profile": [
            "http://hl7.eu/fhir/laboratory/StructureDefinition/Observation-resultslab-eu-lab"
          ]
        },
        "performer": [
          {
            "display": "The Central European Lab"
          }
        ],
        "category": [
          {
            "coding": [
              {
                "system": "http://terminology.hl7.org/CodeSystem/observation-category",
                "code": "laboratory"
              }
            ]
          }
        ],
        "code": {
          "coding": [
            {
              "code": "5803-2",
              "system": "http://loinc.org",
              "display": "pH of Urine by Test strip"
            }
          ],
          "text": "pH of Urine by Test strip"
        },
        "valueQuantity": {
          "system": "http://unitsofmeasure.org",
          "value": 5.1,
          "unit": "pH",
          "code": "pH"
        },
        "referenceRange": [
          {
            "low": {
              "value": 4.6,
              "code": "pH",
              "system": "http://unitsofmeasure.org"
            }
          },
          {
            "high": {
              "value": 7,
              "code": "pH",
              "system": "http://unitsofmeasure.org"
            }
          }
        ],
        "text": {
          "status": "generated",
          "div": "<div xmlns=\"http://www.w3.org/1999/xhtml\"><table class=\"hl7__eu__lab__report\"><tr><th>Test</th><th>20-Jun-2017</th><th>Reference&#xA0;Range</th><th>Unit</th></tr><tr><td>pH of Urine by Test strip</td><td>5.1</td><td>4.6 - 7</td><td></td><td>pH</td></tr></table></div>"
        },
        "status": "final",
        "subject": {
          "reference": "urn:uuid:5227d3c4-3da3-45bf-9671-827e9f500cd9",
          "display": "Elias Höfig"
        },
        "effectiveDateTime": "2017-06-20T11:15:09Z",
        "specimen": {
          "reference": "urn:uuid:bfa407ed-c746-4039-9938-5b8be2b59271"
        }
      }
    },
    {
      "fullUrl": "urn:uuid:728344d3-d869-4d16-9680-d0bf251d5152",
      "resource": {
        "resourceType": "Observation",
        "id": "728344d3-d869-4d16-9680-d0bf251d5152",
        "meta": {
          "profile": [
            "http://hl7.eu/fhir/laboratory/StructureDefinition/Observation-resultslab-eu-lab"
          ]
        },
        "performer": [
          {
            "display": "The Central European Lab"
          }
        ],
        "category": [
          {
            "coding": [
              {
                "system": "http://terminology.hl7.org/CodeSystem/observation-category",
                "code": "laboratory"
              }
            ]
          }
        ],
        "code": {
          "coding": [
            {
              "code": "5804-0",
              "system": "http://loinc.org",
              "display": "Protein [Mass/volume] in Urine by Test strip"
            }
          ],
          "text": "Protein [Mass/volume] in Urine by Test strip"
        },
        "valueQuantity": {
          "system": "http://unitsofmeasure.org",
          "value": 10.8,
          "unit": "mg/dL",
          "code": "mg/dL"
        },
        "referenceRange": [
          {
            "low": {
              "value": 0,
              "code": "mg/dL",
              "system": "http://unitsofmeasure.org"
            }
          },
          {
            "high": {
              "value": 150,
              "code": "mg/dL",
              "system": "http://unitsofmeasure.org"
            }
          }
        ],
        "text": {
          "status": "generated",
          "div": "<div xmlns=\"http://www.w3.org/1999/xhtml\"><table class=\"hl7__eu__lab__report\"><tr><th>Test</th><th>20-Jun-2017</th><th>Reference&#xA0;Range</th><th>Unit</th></tr><tr><td>Protein [Mass/volume] in Urine by Test strip</td><td>10.8</td><td>0 - 150</td><td></td><td>mg/dL</td></tr></table></div>"
        },
        "status": "final",
        "subject": {
          "reference": "urn:uuid:5227d3c4-3da3-45bf-9671-827e9f500cd9",
          "display": "Elias Höfig"
        },
        "effectiveDateTime": "2017-06-20T11:15:09Z",
        "specimen": {
          "reference": "urn:uuid:bfa407ed-c746-4039-9938-5b8be2b59271"
        }
      }
    },
    {
      "fullUrl": "urn:uuid:ebad2df1-030b-43cd-82a9-fd51fca55d90",
      "resource": {
        "resourceType": "Observation",
        "id": "ebad2df1-030b-43cd-82a9-fd51fca55d90",
        "meta": {
          "profile": [
            "http://hl7.eu/fhir/laboratory/StructureDefinition/Observation-resultslab-eu-lab"
          ]
        },
        "performer": [
          {
            "display": "The Central European Lab"
          }
        ],
        "category": [
          {
            "coding": [
              {
                "system": "http://terminology.hl7.org/CodeSystem/observation-category",
                "code": "laboratory"
              }
            ]
          }
        ],
        "code": {
          "coding": [
            {
              "code": "5802-4",
              "system": "http://loinc.org",
              "display": "Nitrite [Presence] in Urine by Test strip"
            }
          ],
          "text": "Nitrite [Presence] in Urine by Test strip"
        },
        "text": {
          "status": "generated",
          "div": "<div xmlns=\"http://www.w3.org/1999/xhtml\"><table class=\"hl7__eu__lab__report\"><tr><th>Test</th><th>20-Jun-2017</th><th>Reference&#xA0;Range</th><th>Unit</th></tr><tr><td>Nitrite [Presence] in Urine by Test strip</td></tr></table></div>"
        },
        "status": "final",
        "subject": {
          "reference": "urn:uuid:5227d3c4-3da3-45bf-9671-827e9f500cd9",
          "display": "Elias Höfig"
        },
        "effectiveDateTime": "2017-06-20T11:15:09Z",
        "specimen": {
          "reference": "urn:uuid:bfa407ed-c746-4039-9938-5b8be2b59271"
        }
      }
    },
    {
      "fullUrl": "urn:uuid:37202824-a6f7-4ecc-95b1-93f0e40891f3",
      "resource": {
        "resourceType": "Observation",
        "id": "37202824-a6f7-4ecc-95b1-93f0e40891f3",
        "meta": {
          "profile": [
            "http://hl7.eu/fhir/laboratory/StructureDefinition/Observation-resultslab-eu-lab"
          ]
        },
        "performer": [
          {
            "display": "The Central European Lab"
          }
        ],
        "category": [
          {
            "coding": [
              {
                "system": "http://terminology.hl7.org/CodeSystem/observation-category",
                "code": "laboratory"
              }
            ]
          }
        ],
        "code": {
          "coding": [
            {
              "code": "5794-3",
              "system": "http://loinc.org",
              "display": "Hemoglobin [Presence] in Urine by Test strip"
            }
          ],
          "text": "Hemoglobin [Presence] in Urine by Test strip"
        },
        "text": {
          "status": "generated",
          "div": "<div xmlns=\"http://www.w3.org/1999/xhtml\"><table class=\"hl7__eu__lab__report\"><tr><th>Test</th><th>20-Jun-2017</th><th>Reference&#xA0;Range</th><th>Unit</th></tr><tr><td>Hemoglobin [Presence] in Urine by Test strip</td></tr></table></div>"
        },
        "status": "final",
        "subject": {
          "reference": "urn:uuid:5227d3c4-3da3-45bf-9671-827e9f500cd9",
          "display": "Elias Höfig"
        },
        "effectiveDateTime": "2017-06-20T11:15:09Z",
        "specimen": {
          "reference": "urn:uuid:bfa407ed-c746-4039-9938-5b8be2b59271"
        }
      }
    },
    {
      "fullUrl": "urn:uuid:0fd931dd-e1a8-4f8b-b1ae-2eeba225da0b",
      "resource": {
        "resourceType": "Observation",
        "id": "0fd931dd-e1a8-4f8b-b1ae-2eeba225da0b",
        "meta": {
          "profile": [
            "http://hl7.eu/fhir/laboratory/StructureDefinition/Observation-resultslab-eu-lab"
          ]
        },
        "performer": [
          {
            "display": "The Central European Lab"
          }
        ],
        "category": [
          {
            "coding": [
              {
                "system": "http://terminology.hl7.org/CodeSystem/observation-category",
                "code": "laboratory"
              }
            ]
          }
        ],
        "code": {
          "coding": [
            {
              "code": "5799-2",
              "system": "http://loinc.org",
              "display": "Leukocyte esterase [Presence] in Urine by Test strip"
            }
          ],
          "text": "Leukocyte esterase [Presence] in Urine by Test strip"
        },
        "text": {
          "status": "generated",
          "div": "<div xmlns=\"http://www.w3.org/1999/xhtml\"><table class=\"hl7__eu__lab__report\"><tr><th>Test</th><th>20-Jun-2017</th><th>Reference&#xA0;Range</th><th>Unit</th></tr><tr><td>Leukocyte esterase [Presence] in Urine by Test strip</td></tr></table></div>"
        },
        "status": "final",
        "subject": {
          "reference": "urn:uuid:5227d3c4-3da3-45bf-9671-827e9f500cd9",
          "display": "Elias Höfig"
        },
        "effectiveDateTime": "2017-06-20T11:15:09Z",
        "specimen": {
          "reference": "urn:uuid:bfa407ed-c746-4039-9938-5b8be2b59271"
        }
      }
    },
    {
      "fullUrl": "urn:uuid:9f82f807-6809-4dba-be36-9039faba8558",
      "resource": {
        "resourceType": "Observation",
        "id": "9f82f807-6809-4dba-be36-9039faba8558",
        "meta": {
          "profile": [
            "http://hl7.eu/fhir/laboratory/StructureDefinition/Observation-resultslab-eu-lab"
          ]
        },
        "performer": [
          {
            "display": "The Central European Lab"
          }
        ],
        "category": [
          {
            "coding": [
              {
                "system": "http://terminology.hl7.org/CodeSystem/observation-category",
                "code": "laboratory"
              }
            ]
          }
        ],
        "code": {
          "coding": [
            {
              "code": "5821-4",
              "system": "http://loinc.org",
              "display": "Leukocytes [#/area] in Urine sediment by Microscopy high power field"
            }
          ],
          "text": "Leukocytes [#/area] in Urine sediment by Microscopy high power field"
        },
        "valueQuantity": {
          "system": "http://unitsofmeasure.org",
          "value": 24.3,
          "unit": "/[HPF]",
          "code": "/[HPF]"
        },
        "referenceRange": [
          {
            "low": {
              "value": 0,
              "code": "#/area",
              "system": "http://unitsofmeasure.org"
            }
          },
          {
            "high": {
              "value": 20,
              "code": "#/area",
              "system": "http://unitsofmeasure.org"
            }
          }
        ],
        "interpretation": [
          {
            "coding": [
              {
                "code": "H",
                "system": "http://terminology.hl7.org/CodeSystem/v3-ObservationInterpretation",
                "display": "High"
              }
            ]
          }
        ],
        "text": {
          "status": "generated",
          "div": "<div xmlns=\"http://www.w3.org/1999/xhtml\"><table class=\"hl7__eu__lab__report\"><tr><th>Test</th><th>20-Jun-2017</th><th>Reference&#xA0;Range</th><th>Unit</th></tr><tr><td>Leukocytes [#/area] in Urine sediment by Microscopy high power field</td><td>24.3</td><td>0 - 20</td><td>H</td><td>/[HPF]</td></tr></table></div>"
        },
        "status": "final",
        "subject": {
          "reference": "urn:uuid:5227d3c4-3da3-45bf-9671-827e9f500cd9",
          "display": "Elias Höfig"
        },
        "effectiveDateTime": "2017-06-20T11:15:09Z",
        "specimen": {
          "reference": "urn:uuid:80a80222-cf40-4b92-a28b-417fa9ffd520"
        }
      }
    },
    {
      "fullUrl": "urn:uuid:525df257-8136-4c2e-ae85-15fbd8f4f395",
      "resource": {
        "resourceType": "Observation",
        "id": "525df257-8136-4c2e-ae85-15fbd8f4f395",
        "meta": {
          "profile": [
            "http://hl7.eu/fhir/laboratory/StructureDefinition/Observation-resultslab-eu-lab"
          ]
        },
        "performer": [
          {
            "display": "The Central European Lab"
          }
        ],
        "category": [
          {
            "coding": [
              {
                "system": "http://terminology.hl7.org/CodeSystem/observation-category",
                "code": "laboratory"
              }
            ]
          }
        ],
        "code": {
          "coding": [
            {
              "code": "13945-1",
              "system": "http://loinc.org",
              "display": "Erythrocytes [#/area] in Urine sediment by Microscopy high power field"
            }
          ],
          "text": "Erythrocytes [#/area] in Urine sediment by Microscopy high power field"
        },
        "valueQuantity": {
          "system": "http://unitsofmeasure.org",
          "value": 2.4,
          "unit": "/[HPF]",
          "code": "/[HPF]"
        },
        "referenceRange": [
          {
            "low": {
              "value": 0,
              "code": "#/area",
              "system": "http://unitsofmeasure.org"
            }
          },
          {
            "high": {
              "value": 5,
              "code": "#/area",
              "system": "http://unitsofmeasure.org"
            }
          }
        ],
        "text": {
          "status": "generated",
          "div": "<div xmlns=\"http://www.w3.org/1999/xhtml\"><table class=\"hl7__eu__lab__report\"><tr><th>Test</th><th>20-Jun-2017</th><th>Reference&#xA0;Range</th><th>Unit</th></tr><tr><td>Erythrocytes [#/area] in Urine sediment by Microscopy high power field</td><td>2.4</td><td>0 - 5</td><td></td><td>/[HPF]</td></tr></table></div>"
        },
        "status": "final",
        "subject": {
          "reference": "urn:uuid:5227d3c4-3da3-45bf-9671-827e9f500cd9",
          "display": "Elias Höfig"
        },
        "effectiveDateTime": "2017-06-20T11:15:09Z",
        "specimen": {
          "reference": "urn:uuid:80a80222-cf40-4b92-a28b-417fa9ffd520"
        }
      }
    },
    {
      "fullUrl": "urn:uuid:b42a8294-aa3d-4fed-8a53-7ce4becccf46",
      "resource": {
        "resourceType": "Observation",
        "id": "b42a8294-aa3d-4fed-8a53-7ce4becccf46",
        "meta": {
          "profile": [
            "http://hl7.eu/fhir/laboratory/StructureDefinition/Observation-resultslab-eu-lab"
          ]
        },
        "performer": [
          {
            "display": "The Central European Lab"
          }
        ],
        "category": [
          {
            "coding": [
              {
                "system": "http://terminology.hl7.org/CodeSystem/observation-category",
                "code": "laboratory"
              }
            ]
          }
        ],
        "code": {
          "coding": [
            {
              "code": "5787-7",
              "system": "http://loinc.org",
              "display": "Epithelial cells [#/area] in Urine sediment by Microscopy high power field"
            }
          ],
          "text": "Epithelial cells [#/area] in Urine sediment by Microscopy high power field"
        },
        "valueQuantity": {
          "system": "http://unitsofmeasure.org",
          "value": 1.5,
          "unit": "/[HPF]",
          "code": "/[HPF]"
        },
        "referenceRange": [
          {
            "low": {
              "value": 0,
              "code": "[#/area]",
              "system": "http://unitsofmeasure.org"
            }
          },
          {
            "high": {
              "value": 5,
              "code": "[#/area]",
              "system": "http://unitsofmeasure.org"
            }
          }
        ],
        "text": {
          "status": "generated",
          "div": "<div xmlns=\"http://www.w3.org/1999/xhtml\"><table class=\"hl7__eu__lab__report\"><tr><th>Test</th><th>20-Jun-2017</th><th>Reference&#xA0;Range</th><th>Unit</th></tr><tr><td>Epithelial cells [#/area] in Urine sediment by Microscopy high power field</td><td>1.5</td><td>0 - 5</td><td></td><td>/[HPF]</td></tr></table></div>"
        },
        "status": "final",
        "subject": {
          "reference": "urn:uuid:5227d3c4-3da3-45bf-9671-827e9f500cd9",
          "display": "Elias Höfig"
        },
        "effectiveDateTime": "2017-06-20T11:15:09Z",
        "specimen": {
          "reference": "urn:uuid:80a80222-cf40-4b92-a28b-417fa9ffd520"
        }
      }
    },
    {
      "fullUrl": "urn:uuid:b4ab3f2c-dbd3-4ffd-a494-fa4f18628af7",
      "resource": {
        "resourceType": "Observation",
        "id": "b4ab3f2c-dbd3-4ffd-a494-fa4f18628af7",
        "meta": {
          "profile": [
            "http://hl7.eu/fhir/laboratory/StructureDefinition/Observation-resultslab-eu-lab"
          ]
        },
        "performer": [
          {
            "display": "The Central European Lab"
          }
        ],
        "category": [
          {
            "coding": [
              {
                "system": "http://terminology.hl7.org/CodeSystem/observation-category",
                "code": "laboratory"
              }
            ]
          }
        ],
        "code": {
          "coding": [
            {
              "code": "24124-0",
              "system": "http://loinc.org",
              "display": "Casts [Presence] in Urine sediment by Light microscopy"
            }
          ],
          "text": "Casts [Presence] in Urine sediment by Light microscopy"
        },
        "text": {
          "status": "generated",
          "div": "<div xmlns=\"http://www.w3.org/1999/xhtml\"><table class=\"hl7__eu__lab__report\"><tr><th>Test</th><th>20-Jun-2017</th><th>Reference&#xA0;Range</th><th>Unit</th></tr><tr><td>Casts [Presence] in Urine sediment by Light microscopy</td></tr></table></div>"
        },
        "status": "final",
        "subject": {
          "reference": "urn:uuid:5227d3c4-3da3-45bf-9671-827e9f500cd9",
          "display": "Elias Höfig"
        },
        "effectiveDateTime": "2017-06-20T11:15:09Z",
        "specimen": {
          "reference": "urn:uuid:80a80222-cf40-4b92-a28b-417fa9ffd520"
        }
      }
    },
    {
      "fullUrl": "urn:uuid:b8c33037-2110-46e3-a14b-b03cff8e597f",
      "resource": {
        "resourceType": "Observation",
        "id": "b8c33037-2110-46e3-a14b-b03cff8e597f",
        "meta": {
          "profile": [
            "http://hl7.eu/fhir/laboratory/StructureDefinition/Observation-resultslab-eu-lab"
          ]
        },
        "performer": [
          {
            "display": "The Central European Lab"
          }
        ],
        "category": [
          {
            "coding": [
              {
                "system": "http://terminology.hl7.org/CodeSystem/observation-category",
                "code": "laboratory"
              }
            ]
          }
        ],
        "code": {
          "coding": [
            {
              "code": "8247-9",
              "system": "http://loinc.org",
              "display": "Mucus [Presence] in Urine sediment by Light microscopy"
            }
          ],
          "text": "Mucus [Presence] in Urine sediment by Light microscopy"
        },
        "text": {
          "status": "generated",
          "div": "<div xmlns=\"http://www.w3.org/1999/xhtml\"><table class=\"hl7__eu__lab__report\"><tr><th>Test</th><th>20-Jun-2017</th><th>Reference&#xA0;Range</th><th>Unit</th></tr><tr><td>Mucus [Presence] in Urine sediment by Light microscopy</td></tr></table></div>"
        },
        "status": "final",
        "subject": {
          "reference": "urn:uuid:5227d3c4-3da3-45bf-9671-827e9f500cd9",
          "display": "Elias Höfig"
        },
        "effectiveDateTime": "2017-06-20T11:15:09Z",
        "specimen": {
          "reference": "urn:uuid:80a80222-cf40-4b92-a28b-417fa9ffd520"
        }
      }
    },
    {
      "fullUrl": "urn:uuid:e5fe8a5b-5888-41f7-9340-f9b4aaf35232",
      "resource": {
        "resourceType": "Observation",
        "id": "e5fe8a5b-5888-41f7-9340-f9b4aaf35232",
        "meta": {
          "profile": [
            "http://hl7.eu/fhir/laboratory/StructureDefinition/Observation-resultslab-eu-lab"
          ]
        },
        "performer": [
          {
            "display": "The Central European Lab"
          }
        ],
        "category": [
          {
            "coding": [
              {
                "system": "http://terminology.hl7.org/CodeSystem/observation-category",
                "code": "laboratory"
              }
            ]
          }
        ],
        "code": {
          "coding": [
            {
              "code": "5769-5",
              "system": "http://loinc.org",
              "display": "Bacteria [#/area] in Urine sediment by Microscopy high power field"
            }
          ],
          "text": "Bacteria [#/area] in Urine sediment by Microscopy high power field"
        },
        "text": {
          "status": "generated",
          "div": "<div xmlns=\"http://www.w3.org/1999/xhtml\"><table class=\"hl7__eu__lab__report\"><tr><th>Test</th><th>20-Jun-2017</th><th>Reference&#xA0;Range</th><th>Unit</th></tr><tr><td>Bacteria [#/area] in Urine sediment by Microscopy high power field</td></tr></table></div>"
        },
        "status": "final",
        "subject": {
          "reference": "urn:uuid:5227d3c4-3da3-45bf-9671-827e9f500cd9",
          "display": "Elias Höfig"
        },
        "effectiveDateTime": "2017-06-20T11:15:09Z",
        "specimen": {
          "reference": "urn:uuid:80a80222-cf40-4b92-a28b-417fa9ffd520"
        }
      }
    },
    {
      "fullUrl": "urn:uuid:1ca332ba-385d-4ed9-a3d7-347b090e39db",
      "resource": {
        "resourceType": "Observation",
        "id": "1ca332ba-385d-4ed9-a3d7-347b090e39db",
        "meta": {
          "profile": [
            "http://hl7.eu/fhir/laboratory/StructureDefinition/Observation-resultslab-eu-lab"
          ]
        },
        "performer": [
          {
            "display": "The Central European Lab"
          }
        ],
        "category": [
          {
            "coding": [
              {
                "system": "http://terminology.hl7.org/CodeSystem/observation-category",
                "code": "laboratory"
              }
            ]
          }
        ],
        "code": {
          "coding": [
            {
              "code": "630-4",
              "system": "http://loinc.org",
              "display": "Bacteria identified in Urine by Culture"
            }
          ],
          "text": "Bacteria identified in Urine by Culture"
        },
        "text": {
          "status": "generated",
          "div": "<div xmlns=\"http://www.w3.org/1999/xhtml\"><table class=\"hl7__eu__lab__report\"><tr><th>Test</th><th>20-Jun-2017</th><th>Reference&#xA0;Range</th><th>Unit</th></tr><tr><td>Bacteria identified in Urine by Culture</td></tr></table></div>"
        },
        "status": "final",
        "subject": {
          "reference": "urn:uuid:5227d3c4-3da3-45bf-9671-827e9f500cd9",
          "display": "Elias Höfig"
        },
        "effectiveDateTime": "2017-06-20T11:15:09Z",
        "specimen": {
          "reference": "urn:uuid:bfa407ed-c746-4039-9938-5b8be2b59271"
        }
      }
    },
    {
      "fullUrl": "urn:uuid:d385dcc0-eda3-41bf-b389-d5db8e13c85d",
      "resource": {
        "resourceType": "Device",
        "id": "d385dcc0-eda3-41bf-b389-d5db8e13c85d",
        "deviceName": [
          {
            "name": "SYNDERAI Synthetic Generator",
            "type": "manufacturer-name"
          }
        ],
        "version": [
          {
            "value": "5.0"
          }
        ],
        "text": {
          "status": "generated",
          "div": "<div xmlns=\"http://www.w3.org/1999/xhtml\">SYNDERAI Synthetic Generator v5.0</div>"
        },
        "status": "active\"",
        "distinctIdentifier": "synderai-generator-50",
        "manufacturer": "SYNDERAI Project"
      }
    },
    {
      "fullUrl": "urn:uuid:7bf3bb09-4823-42c1-8147-9e51f3a96ab7",
      "resource": {
        "resourceType": "Provenance",
        "id": "7bf3bb09-4823-42c1-8147-9e51f3a96ab7",
        "target": [
          {
            "reference": "Patient/5227d3c4-3da3-45bf-9671-827e9f500cd9"
          },
          {
            "reference": "Bundle/68a27eca-bab2-41ba-b6f6-2d0798a1457c"
          },
          {
            "reference": "Composition/e5aab757-7cdb-4313-9ff2-ce1dd8634714"
          },
          {
            "reference": "PractitionerRole/ef7c0488-7ec4-456d-bf10-fa7521eb79e2"
          },
          {
            "reference": "Practitioner/52c0576a-0af8-4ea0-b0dd-216649972b5a"
          },
          {
            "reference": "PractitionerRole/d3fc5f46-4d6a-4d14-9ca5-728ec64dd133"
          },
          {
            "reference": "Organization/23a80264-cb19-47cb-ba49-4631b02e5f47"
          }
        ],
        "activity": {
          "text": "Synthetic Example Data Generation"
        },
        "policy": [
          "https://synderai.net/synderai-synthetic-data-policy"
        ],
        "agent": [
          {
            "type": {
              "text": "author"
            },
            "who": {
              "reference": "Device/d385dcc0-eda3-41bf-b389-d5db8e13c85d"
            }
          }
        ],
        "reason": [
          {
            "text": "Interoperability Testing and Training (non-clinical use)"
          }
        ],
        "text": {
          "status": "generated",
          "div": "<div xmlns=\"http://www.w3.org/1999/xhtml\">Provenance for SYNDERAI Synthetic Example Data Resource</div>"
        },
        "recorded": "2017-06-20T13:15:09Z"
      }
    },
    {
      "fullUrl": "urn:uuid:ef7c0488-7ec4-456d-bf10-fa7521eb79e2",
      "resource": {
        "resourceType": "PractitionerRole",
        "id": "ef7c0488-7ec4-456d-bf10-fa7521eb79e2",
        "meta": {
          "profile": [
            "http://hl7.eu/fhir/base/StructureDefinition/practitionerRole-eu"
          ]
        },
        "text": {
          "status": "generated",
          "div": "<div xmlns=\"http://www.w3.org/1999/xhtml\">Laboratory Role Id: ef7c0488-7ec4-456d-bf10-fa7521eb79e2</div>"
        },
        "practitioner": {
          "reference": "urn:uuid:52c0576a-0af8-4ea0-b0dd-216649972b5a"
        }
      }
    },
    {
      "fullUrl": "urn:uuid:52c0576a-0af8-4ea0-b0dd-216649972b5a",
      "resource": {
        "resourceType": "Practitioner",
        "id": "52c0576a-0af8-4ea0-b0dd-216649972b5a",
        "meta": {
          "profile": [
            "http://hl7.eu/fhir/base/StructureDefinition/practitioner-eu"
          ]
        },
        "identifier": [
          {
            "assigner": {
              "display": "HL7 Europe"
            },
            "system": "urn:oid:2.16.840.1.113883.2.51.999",
            "value": "5f54ea0c-6266-4506-9b1e-7636a9544245"
          }
        ],
        "name": [
          {
            "prefix": [
              "dr"
            ],
            "given": [
              "Ex"
            ],
            "family": "Ample"
          }
        ],
        "address": [
          {
            "line": [
              "Laboratoire Central Européenne",
              "Boulevard du Jardin Botanique 32"
            ],
            "postalCode": "1000",
            "city": "Brussels",
            "country": "Belgium"
          }
        ],
        "text": {
          "status": "generated",
          "div": "<div xmlns=\"http://www.w3.org/1999/xhtml\">Laboratory: Laboratoire Central Européenne, 1000 Brussels, Belgium</div>"
        }
      }
    }
  ],
  "type": "document",
  "timestamp": "2017-06-20T13:15:09Z"
}
