<Bundle xmlns="http://hl7.org/fhir">
   <id value="510b7e05-4bc7-4a47-94ec-e882bd67f860"/>
   <meta>
      <profile value="http://hl7.eu/fhir/laboratory/StructureDefinition/Bundle-eu-lab"/>
   </meta>
   <identifier>
      <system value="urn:oid:2.16.840.1.113883.2.51.999"/>
      <value value="e614a571-2855-49f7-9648-e98e72861355"/>
      <assigner>
         <display value="HL7 Europe"/>
      </assigner>
   </identifier>
   <type value="document"/>
   <timestamp value="2024-11-19T13:32:46Z"/>
   <entry>
      <fullUrl value="urn:uuid:f5740929-9060-443f-9962-ef862010bc5d"/>
      <resource>
         <Composition>
            <id value="f5740929-9060-443f-9962-ef862010bc5d"/>
            <meta>
               <profile value="http://hl7.eu/fhir/laboratory/StructureDefinition/Composition-eu-lab"/>
            </meta>
            <identifier>
               <system value="urn:oid:2.16.840.1.113883.2.51.999"/>
               <value value="f0942de2-6082-430e-aa22-bfa8ec7c066f"/>
               <assigner>
                  <display value="HL7 Europe"/>
               </assigner>
            </identifier>
            <status value="final"/>
            <type>
               <coding>
                  <system value="http://loinc.org"/>
                  <code value="11502-2"/>
                  <display value="Laboratory report"/>
               </coding>
               <text value="Laboratory Report"/>
            </type>
            <category>
               <coding>
                  <system value="http://loinc.org"/>
                  <code value="26436-6"/>
                  <display value="Laboratory studies (set)"/>
               </coding>
            </category>
            <subject>
               <reference value="urn:uuid:25c05be0-4118-4c41-b241-c6c3f6c3a0d5"/>
               <display value="Leonhard Köhler"/>
            </subject>
            <date value="2024-11-19T13:32:46Z"/>
            <author>
               <reference value="urn:uuid:ce85b130-bfed-4483-8223-7b926e9e8d07"/>
            </author>
            <title value="Laboratory Report"/>
            <confidentiality value="N"/>
            <section>
               <title value="Laboratory Report"/>
               <code>
                  <coding>
                     <system value="http://loinc.org"/>
                     <code value="26436-6"/>
                     <display value="Laboratory studies (set)"/>
                  </coding>
                  <text value="Laboratory studies"/>
               </code>
               <section>
                  <title value="Chemistry"/>
                  <code>
                     <coding>
                        <system value="http://loinc.org"/>
                        <code value="$18719-5"/>
                        <display value="Chemistry studies (set)"/>
                     </coding>
                     <text value="Chemistry"/>
                  </code>
                  <text>
                     <status value="generated"/>
                     <div xmlns="http://www.w3.org/1999/xhtml">
                        <h3>Chemistry</h3>
                        <table class="hl7__eu__lab__report">
                           <thead>
                              <tr>
                                 <th>Test</th>
                                 <th>19-NOV-2024</th>
                                 <th>Reference Range</th>
                                 <th>Unit</th>
                              </tr>
                           </thead>
                           <tbody>
                              <tr>
                                 <td>Ketones [Presence] in Urine by Test strip</td>
                                 <td>Urine ketone test negative</td>
                                 <td/>
                                 <td/>
                              </tr>
                           </tbody>
                        </table>
                     </div>
                  </text>
                  <entry>
                     <reference value="urn:uuid:9abf9667-823a-42a3-a951-5c09db716b70"/>
                  </entry>
               </section>
               <section>
                  <title value="Urinalysis"/>
                  <code>
                     <coding>
                        <system value="http://loinc.org"/>
                        <code value="$18729-4"/>
                        <display value="Urinalysis studies (set)"/>
                     </coding>
                     <text value="Urinalysis"/>
                  </code>
                  <text>
                     <status value="generated"/>
                     <div xmlns="http://www.w3.org/1999/xhtml">
                        <h3>Urinalysis</h3>
                        <table class="hl7__eu__lab__report">
                           <thead>
                              <tr>
                                 <th>Test</th>
                                 <th>19-NOV-2024</th>
                                 <th>Reference Range</th>
                                 <th>Unit</th>
                              </tr>
                           </thead>
                           <tbody>
                              <tr>
                                 <td>Glucose [Mass/volume] in Urine by Test strip</td>
                                 <td>
                                    <strong>2.9 H</strong>
                                 </td>
                                 <td>0 - 0.8</td>
                                 <td>mg/dL</td>
                              </tr>
                              <tr>
                                 <td>Specific gravity of Urine by Test strip</td>
                                 <td>
                                    <strong>1.0 L</strong>
                                 </td>
                                 <td>1.005 - 1.03</td>
                                 <td>{nominal}</td>
                              </tr>
                              <tr>
                                 <td>pH of Urine by Test strip</td>
                                 <td>6.6</td>
                                 <td>4.5 - 7.5</td>
                                 <td>pH</td>
                              </tr>
                              <tr>
                                 <td>Protein [Mass/volume] in Urine by Test strip</td>
                                 <td>
                                    <strong>10.5 L</strong>
                                 </td>
                                 <td>14 - 20</td>
                                 <td>mg/dL</td>
                              </tr>
                              <tr>
                                 <td>Nitrite [Presence] in Urine by Test strip</td>
                                 <td>Urine nitrite positive</td>
                                 <td/>
                                 <td/>
                              </tr>
                              <tr>
                                 <td>Hemoglobin [Presence] in Urine by Test strip</td>
                                 <td>Urine blood test = +</td>
                                 <td/>
                                 <td/>
                              </tr>
                              <tr>
                                 <td>Leukocyte esterase [Presence] in Urine by Test strip</td>
                                 <td>Urine leukocyte test</td>
                                 <td/>
                                 <td/>
                              </tr>
                              <tr>
                                 <td>Leukocytes [#/area] in Urine sediment by Microscopy high power field</td>
                                 <td>
                                    <strong>44.4 H</strong>
                                 </td>
                                 <td>0 - 5</td>
                                 <td>/[HPF]</td>
                              </tr>
                              <tr>
                                 <td>Erythrocytes [#/area] in Urine sediment by Microscopy high power field</td>
                                 <td>2.0</td>
                                 <td>0 - 5</td>
                                 <td>/[HPF]</td>
                              </tr>
                              <tr>
                                 <td>Epithelial cells [#/area] in Urine sediment by Microscopy high power field</td>
                                 <td>0.5</td>
                                 <td>0 - 5</td>
                                 <td>/[HPF]</td>
                              </tr>
                              <tr>
                                 <td>Casts [Presence] in Urine sediment by Light microscopy</td>
                                 <td>Urine microscopy: no casts</td>
                                 <td/>
                                 <td/>
                              </tr>
                              <tr>
                                 <td>Mucus [Presence] in Urine sediment by Light microscopy</td>
                                 <td>Mucus in urine</td>
                                 <td/>
                                 <td/>
                              </tr>
                              <tr>
                                 <td>Bacteria [#/area] in Urine sediment by Microscopy high power field</td>
                                 <td>Finding of presence of bacteria</td>
                                 <td/>
                                 <td/>
                              </tr>
                           </tbody>
                        </table>
                     </div>
                  </text>
                  <entry>
                     <reference value="urn:uuid:cf765776-d91c-43c6-b02b-9dfea5225c42"/>
                  </entry>
                  <entry>
                     <reference value="urn:uuid:d0a0613d-db36-41a6-b4eb-24314db182ee"/>
                  </entry>
                  <entry>
                     <reference value="urn:uuid:c2933421-3241-4760-8212-d3480a2635a2"/>
                  </entry>
                  <entry>
                     <reference value="urn:uuid:5a042e3a-bece-45f1-8e00-f23852c04332"/>
                  </entry>
                  <entry>
                     <reference value="urn:uuid:3186ff19-4636-4ee7-b8c9-a14c03240afa"/>
                  </entry>
                  <entry>
                     <reference value="urn:uuid:634b3caf-105a-47ff-aa83-d493e37035a0"/>
                  </entry>
                  <entry>
                     <reference value="urn:uuid:ec8f0715-b8db-4cf6-813e-01bb2de00a1b"/>
                  </entry>
                  <entry>
                     <reference value="urn:uuid:7655e47a-6eeb-4485-968a-3dd0d3c18972"/>
                  </entry>
                  <entry>
                     <reference value="urn:uuid:6e3f44a1-c5e3-4859-b3d4-667da9db9f53"/>
                  </entry>
                  <entry>
                     <reference value="urn:uuid:f26c3262-5d41-4d4c-a563-c9e8d516d815"/>
                  </entry>
                  <entry>
                     <reference value="urn:uuid:6539f8f7-5069-4134-b7e1-3d45e9dbd489"/>
                  </entry>
                  <entry>
                     <reference value="urn:uuid:4e5d5b8a-cd5d-45b4-b96c-2b5c8fe5b2e9"/>
                  </entry>
                  <entry>
                     <reference value="urn:uuid:34bdcb79-48da-49d7-a5aa-6a76f246e6cc"/>
                  </entry>
               </section>
               <section>
                  <title value="Microbiology"/>
                  <code>
                     <coding>
                        <system value="http://loinc.org"/>
                        <code value="$18725-2"/>
                        <display value="Microbiology studies"/>
                     </coding>
                     <text value="Microbiology"/>
                  </code>
                  <text>
                     <status value="generated"/>
                     <div xmlns="http://www.w3.org/1999/xhtml">
                        <h3>Microbiology</h3>
                        <table class="hl7__eu__lab__report">
                           <thead>
                              <tr>
                                 <th>Test</th>
                                 <th>19-NOV-2024</th>
                                 <th>Reference Range</th>
                                 <th>Unit</th>
                              </tr>
                           </thead>
                           <tbody>
                              <tr>
                                 <td>Bacteria identified in Urine by Culture</td>
                                 <td/>
                                 <td/>
                                 <td/>
                              </tr>
                           </tbody>
                        </table>
                     </div>
                  </text>
                  <entry>
                     <reference value="urn:uuid:700ffc12-fcc8-4bab-bfef-c204f3df0e44"/>
                  </entry>
               </section>
            </section>
            <section>
               <title value="Annotation comment"/>
               <code>
                  <coding>
                     <system value="http://loinc.org"/>
                     <code value="48767-8"/>
                     <display value="Annotation comment"/>
                  </coding>
               </code>
               <text>
                  <status value="generated"/>
                  <div xmlns="http://www.w3.org/1999/xhtml">
                     <h3>Annotation</h3>
                     <table class="hl7__eu__lab__report">
                        <tr>
                           <th>Conclusion and Recommendations based on this report and previous findings known to us</th>
                        </tr>
                        <tr>
                           <td>The findings indicate a urinary tract infection (UTI) with significant pyuria, bacteriuria, positive nitrites, and leukocyte esterase, as well as &gt;100,000 CFU/mL E. coli in culture. Mild hematuria is present. Glucosuria is noted without ketonuria. Low urine specific gravity may suggest dilute urine. No casts detected. Clinical correlation and appropriate antimicrobial therapy are recommended.</td>
                        </tr>
                     </table>
                  </div>
               </text>
            </section>
         </Composition>
      </resource>
   </entry>
   <entry>
      <fullUrl value="urn:uuid:0fa44f51-fd9e-44a9-b011-53033f63497b"/>
      <resource>
         <DiagnosticReport>
            <id value="0fa44f51-fd9e-44a9-b011-53033f63497b"/>
            <meta>
               <profile value="http://hl7.eu/fhir/laboratory/StructureDefinition/DiagnosticReport-eu-lab"/>
            </meta>
            <extension url="http://hl7.org/fhir/5.0/StructureDefinition/extension-DiagnosticReport.composition">
               <valueReference>
                  <reference value="urn:uuid:f0942de2-6082-430e-aa22-bfa8ec7c066f"/>
               </valueReference>
            </extension>
            <identifier>
               <system value="urn:oid:2.16.840.1.113883.2.51.999"/>
               <value value="4ccf02b3-bd52-4fc1-90cc-37d05b4f29f3"/>
               <assigner>
                  <display value="HL7 Europe"/>
               </assigner>
            </identifier>
            <status value="registered"/>
            <category>
               <coding>
                  <system value="http://loinc.org"/>
                  <code value="26436-6"/>
                  <display value="Laboratory studies (set)"/>
               </coding>
            </category>
            <code>
               <coding>
                  <system value="http://loinc.org"/>
                  <code value="11502-2"/>
                  <display value="Laboratory report"/>
               </coding>
            </code>
            <subject>
               <reference value="urn:uuid:25c05be0-4118-4c41-b241-c6c3f6c3a0d5"/>
               <display value="Leonhard Köhler"/>
            </subject>
            <specimen>
               <reference value="urn:uuid:d278d688-ab15-4467-9298-b78f3fc679d4"/>
            </specimen>
            <specimen>
               <reference value="urn:uuid:d9477da5-6876-49c3-816e-64c29f3a1a3e"/>
            </specimen>
            <result>
               <reference value="urn:uuid:cf765776-d91c-43c6-b02b-9dfea5225c42"/>
            </result>
            <result>
               <reference value="urn:uuid:9abf9667-823a-42a3-a951-5c09db716b70"/>
            </result>
            <result>
               <reference value="urn:uuid:d0a0613d-db36-41a6-b4eb-24314db182ee"/>
            </result>
            <result>
               <reference value="urn:uuid:c2933421-3241-4760-8212-d3480a2635a2"/>
            </result>
            <result>
               <reference value="urn:uuid:5a042e3a-bece-45f1-8e00-f23852c04332"/>
            </result>
            <result>
               <reference value="urn:uuid:3186ff19-4636-4ee7-b8c9-a14c03240afa"/>
            </result>
            <result>
               <reference value="urn:uuid:634b3caf-105a-47ff-aa83-d493e37035a0"/>
            </result>
            <result>
               <reference value="urn:uuid:ec8f0715-b8db-4cf6-813e-01bb2de00a1b"/>
            </result>
            <result>
               <reference value="urn:uuid:7655e47a-6eeb-4485-968a-3dd0d3c18972"/>
            </result>
            <result>
               <reference value="urn:uuid:6e3f44a1-c5e3-4859-b3d4-667da9db9f53"/>
            </result>
            <result>
               <reference value="urn:uuid:f26c3262-5d41-4d4c-a563-c9e8d516d815"/>
            </result>
            <result>
               <reference value="urn:uuid:6539f8f7-5069-4134-b7e1-3d45e9dbd489"/>
            </result>
            <result>
               <reference value="urn:uuid:4e5d5b8a-cd5d-45b4-b96c-2b5c8fe5b2e9"/>
            </result>
            <result>
               <reference value="urn:uuid:34bdcb79-48da-49d7-a5aa-6a76f246e6cc"/>
            </result>
            <result>
               <reference value="urn:uuid:700ffc12-fcc8-4bab-bfef-c204f3df0e44"/>
            </result>
         </DiagnosticReport>
      </resource>
   </entry>
   <entry>
      <fullUrl value="urn:uuid:25c05be0-4118-4c41-b241-c6c3f6c3a0d5"/>
      <resource>
         <Patient>
            <id value="25c05be0-4118-4c41-b241-c6c3f6c3a0d5"/>
            <meta>
               <profile value="http://hl7.eu/fhir/base/StructureDefinition/patient-eu-core"/>
               <security>
                  <system value="http://terminology.hl7.org/CodeSystem/v3-ActReason"/>
                  <code value="HTEST"/>
               </security>
               <security>
                  <system value="http://terminology.hl7.org/CodeSystem/v3-ActReason"/>
                  <code value="TRAIN"/>
               </security>
               <tag>
                  <system value="https://synderai.net/fhir/CodeSystem/tags"/>
                  <code value="synthetic"/>
                  <display value="SYNDERAI Synthetic data"/>
               </tag>
            </meta>
            <text>
               <status value="generated"/>
               <div xmlns="http://www.w3.org/1999/xhtml">
                  <table class="hl7__ips">
                     <tr>
                        <td>Leonhard Köhler</td>
                        <td>male</td>
                        <td>19-Dec-1949</td>
                     </tr>
                  </table>
               </div>
            </text>
            <extension url="http://hl7.org/fhir/StructureDefinition/patient-nationality">
               <valueCodeableConcept>
                  <coding>
                     <system value="http://hl7.org/fhir/ValueSet/country"/>
                     <code value="DE"/>
                  </coding>
               </valueCodeableConcept>
            </extension>
            <identifier>
               <type>
                  <coding>
                     <system value="http://terminology.hl7.org/CodeSystem/v2-0203"/>
                     <code value="PT"/>
                  </coding>
               </type>
               <system value="http://ec.europa.eu/identifier/eci"/>
               <value value="5321-442678-4"/>
            </identifier>
            <identifier>
               <type>
                  <coding>
                     <system value="http://terminology.hl7.org/CodeSystem/v2-0203"/>
                     <code value="MR"/>
                  </coding>
               </type>
               <system value="http://local.setting.eu/identifier"/>
               <value value="ffa9f0d8-c016-d46c-e666-000f53715b47"/>
            </identifier>
            <name>
               <family value="Köhler"/>
            </name>
            <name>
               <given value="Leonhard"/>
            </name>
            <name>
               <text value="Leonhard Köhler"/>
            </name>
            <telecom>
               <system value="phone"/>
               <value value="00028839855"/>
            </telecom>
            <gender value="male"/>
            <birthDate value="1949-12-19"/>
            <address>
               <use value="home"/>
               <type value="physical"/>
               <line value="Henckweg 97/34"/>
               <city value="Füssen"/>
               <postalCode value="87629"/>
               <country value="Germany"/>
            </address>
         </Patient>
      </resource>
   </entry>
   <entry>
      <fullUrl value="urn:uuid:dcf63bfe-1d53-4d8a-bda0-3363dd859f30"/>
      <resource>
         <ServiceRequest>
            <id value="dcf63bfe-1d53-4d8a-bda0-3363dd859f30"/>
            <meta>
               <profile value="http://hl7.eu/fhir/laboratory/StructureDefinition/ServiceRequest-eu-lab"/>
            </meta>
            <identifier>
               <system value="http://example.org"/>
               <value value="60914f18-efee-4f52-8f3a-c296bb82b2a0"/>
            </identifier>
            <status value="active"/>
            <intent value="order"/>
            <code>
               <coding>
                  <system value="http://snomed.info/sct"/>
                  <code value="108252007"/>
                  <display value="Laboratory procedure"/>
               </coding>
            </code>
            <subject>
               <reference value="urn:uuid:25c05be0-4118-4c41-b241-c6c3f6c3a0d5"/>
               <display value="Leonhard Köhler"/>
            </subject>
            <requester>
               <reference value="urn:uuid:11ad70e9-a028-4d0b-8499-99e10d9c2195"/>
            </requester>
            <reasonCode>
               <coding>
                  <system value="http://snomed.info/sct"/>
                  <code value="55822004"/>
                  <display value="Hyperlipidemia"/>
               </coding>
            </reasonCode>
            <reasonCode>
               <coding>
                  <system value="http://snomed.info/sct"/>
                  <code value="414545008"/>
                  <display value="Ischemic heart disease"/>
               </coding>
            </reasonCode>
            <reasonCode>
               <coding>
                  <system value="http://snomed.info/sct"/>
                  <code value="59621000"/>
                  <display value="Essential hypertension"/>
               </coding>
            </reasonCode>
            <reasonCode>
               <coding>
                  <system value="http://snomed.info/sct"/>
                  <code value="239873007"/>
                  <display value="Osteoarthritis of knee"/>
               </coding>
            </reasonCode>
            <reasonCode>
               <coding>
                  <system value="http://snomed.info/sct"/>
                  <code value="271737000"/>
                  <display value="Anemia"/>
               </coding>
            </reasonCode>
            <reasonCode>
               <coding>
                  <system value="http://snomed.info/sct"/>
                  <code value="15777000"/>
                  <display value="Prediabetes"/>
               </coding>
            </reasonCode>
            <specimen>
               <reference value="urn:uuid:d278d688-ab15-4467-9298-b78f3fc679d4"/>
            </specimen>
            <specimen>
               <reference value="urn:uuid:d9477da5-6876-49c3-816e-64c29f3a1a3e"/>
            </specimen>
         </ServiceRequest>
      </resource>
   </entry>
   <entry>
      <fullUrl value="urn:uuid:11ad70e9-a028-4d0b-8499-99e10d9c2195"/>
      <resource>
         <PractitionerRole>
            <id value="11ad70e9-a028-4d0b-8499-99e10d9c2195"/>
            <meta>
               <profile value="http://hl7.eu/fhir/base/StructureDefinition/practitionerRole-eu"/>
            </meta>
            <text>
               <status value="generated"/>
               <div xmlns="http://www.w3.org/1999/xhtml">Provider Role Id: 11ad70e9-a028-4d0b-8499-99e10d9c2195</div>
            </text>
            <organization>
               <reference value="urn:uuid:92d3ab8a-cf72-40df-93ea-5de7420a7fd7"/>
            </organization>
         </PractitionerRole>
      </resource>
   </entry>
   <entry>
      <fullUrl value="urn:uuid:92d3ab8a-cf72-40df-93ea-5de7420a7fd7"/>
      <resource>
         <Organization>
            <id value="92d3ab8a-cf72-40df-93ea-5de7420a7fd7"/>
            <meta>
               <profile value="http://hl7.eu/fhir/base/StructureDefinition/organization-eu"/>
            </meta>
            <text>
               <status value="generated"/>
               <div xmlns="http://www.w3.org/1999/xhtml">Provider Organization: hier ist kein Ärztehaus</div>
            </text>
            <identifier>
               <system value="urn:oid:2.16.840.1.113883.2.51.999"/>
               <value value="5cee7955-db1f-449e-ad4c-609e4b59db84"/>
               <assigner>
                  <display value="HL7 Europe"/>
               </assigner>
            </identifier>
            <name value="hier ist kein Ärztehaus"/>
            <address>
               <line value="Feistlestraße 2"/>
               <city value="Füssen"/>
               <postalCode value="87629"/>
               <country value="Germany"/>
            </address>
         </Organization>
      </resource>
   </entry>
   <entry>
      <fullUrl value="urn:uuid:d278d688-ab15-4467-9298-b78f3fc679d4"/>
      <resource>
         <Specimen>
            <id value="d278d688-ab15-4467-9298-b78f3fc679d4"/>
            <meta>
               <profile value="http://hl7.eu/fhir/laboratory/StructureDefinition/Specimen-eu-lab"/>
            </meta>
            <text>
               <status value="generated"/>
               <div xmlns="http://www.w3.org/1999/xhtml">
                  <table class="hl7__eu__lab__report">
                     <tr>
                        <th>Specimen</th>
                        <th>Collection Date</th>
                     </tr>
                     <tr>
                        <td>Urine specimen</td>
                        <td>
                           <span class="nb">19-Nov-2024</span>
                        </td>
                     </tr>
                  </table>
               </div>
            </text>
            <type>
               <coding>
                  <system value="http://snomed.info/sct"/>
                  <code value="122575003"/>
                  <display value="Urine specimen"/>
               </coding>
            </type>
            <collection>
               <collectedDateTime value="2024-11-19"/>
            </collection>
         </Specimen>
      </resource>
   </entry>
   <entry>
      <fullUrl value="urn:uuid:d9477da5-6876-49c3-816e-64c29f3a1a3e"/>
      <resource>
         <Specimen>
            <id value="d9477da5-6876-49c3-816e-64c29f3a1a3e"/>
            <meta>
               <profile value="http://hl7.eu/fhir/laboratory/StructureDefinition/Specimen-eu-lab"/>
            </meta>
            <text>
               <status value="generated"/>
               <div xmlns="http://www.w3.org/1999/xhtml">
                  <table class="hl7__eu__lab__report">
                     <tr>
                        <th>Specimen</th>
                        <th>Collection Date</th>
                     </tr>
                     <tr>
                        <td>Urine sediment specimen (specimen)</td>
                        <td>
                           <span class="nb">19-Nov-2024</span>
                        </td>
                     </tr>
                  </table>
               </div>
            </text>
            <type>
               <coding>
                  <system value="http://snomed.info/sct"/>
                  <code value="122567009"/>
                  <display value="Urine sediment specimen (specimen)"/>
               </coding>
            </type>
            <collection>
               <collectedDateTime value="2024-11-19"/>
            </collection>
         </Specimen>
      </resource>
   </entry>
   <entry>
      <fullUrl value="urn:uuid:cf765776-d91c-43c6-b02b-9dfea5225c42"/>
      <resource>
         <Observation>
            <id value="cf765776-d91c-43c6-b02b-9dfea5225c42"/>
            <meta>
               <profile value="http://hl7.eu/fhir/laboratory/StructureDefinition/Observation-resultslab-eu-lab"/>
            </meta>
            <text>
               <status value="generated"/>
               <div xmlns="http://www.w3.org/1999/xhtml">
                  <table class="hl7__eu__lab__report">
                     <tr>
                        <th>Test</th>
                        <th>19-Nov-2024</th>
                        <th>Reference Range</th>
                        <th>Unit</th>
                     </tr>
                     <tr>
                        <td>Glucose [Mass/volume] in Urine by Test strip</td>
                        <td>2.9</td>
                        <td>0 - 0.8</td>
                        <td>H</td>
                        <td>mg/dL</td>
                     </tr>
                  </table>
               </div>
            </text>
            <status value="final"/>
            <category>
               <coding>
                  <system value="http://terminology.hl7.org/CodeSystem/observation-category"/>
                  <code value="laboratory"/>
               </coding>
            </category>
            <code>
               <coding>
                  <system value="http://loinc.org"/>
                  <code value="5792-7"/>
                  <display value="Glucose [Mass/volume] in Urine by Test strip"/>
               </coding>
               <text value="Glucose [Mass/volume] in Urine by Test strip"/>
            </code>
            <subject>
               <reference value="urn:uuid:25c05be0-4118-4c41-b241-c6c3f6c3a0d5"/>
               <display value="Leonhard Köhler"/>
            </subject>
            <effectiveDateTime value="2024-11-19T12:32:46Z"/>
            <performer>
               <display value="The Central European Lab"/>
            </performer>
            <valueQuantity>
               <value value="2.9"/>
               <unit value="mg/dL"/>
               <system value="http://unitsofmeasure.org"/>
               <code value="mg/dL"/>
            </valueQuantity>
            <interpretation>
               <coding>
                  <system value="http://terminology.hl7.org/CodeSystem/v3-ObservationInterpretation"/>
                  <code value="H"/>
                  <display value="High"/>
               </coding>
            </interpretation>
            <specimen>
               <reference value="urn:uuid:d278d688-ab15-4467-9298-b78f3fc679d4"/>
            </specimen>
            <referenceRange>
               <low>
                  <value value="0"/>
                  <system value="http://unitsofmeasure.org"/>
                  <code value="mg/dL"/>
               </low>
            </referenceRange>
            <referenceRange>
               <high>
                  <value value="0.8"/>
                  <system value="http://unitsofmeasure.org"/>
                  <code value="mg/dL"/>
               </high>
            </referenceRange>
         </Observation>
      </resource>
   </entry>
   <entry>
      <fullUrl value="urn:uuid:9abf9667-823a-42a3-a951-5c09db716b70"/>
      <resource>
         <Observation>
            <id value="9abf9667-823a-42a3-a951-5c09db716b70"/>
            <meta>
               <profile value="http://hl7.eu/fhir/laboratory/StructureDefinition/Observation-resultslab-eu-lab"/>
            </meta>
            <text>
               <status value="generated"/>
               <div xmlns="http://www.w3.org/1999/xhtml">
                  <table class="hl7__eu__lab__report">
                     <tr>
                        <th>Test</th>
                        <th>19-Nov-2024</th>
                        <th>Reference Range</th>
                        <th>Unit</th>
                     </tr>
                     <tr>
                        <td>Ketones [Presence] in Urine by Test strip</td>
                     </tr>
                  </table>
               </div>
            </text>
            <status value="final"/>
            <category>
               <coding>
                  <system value="http://terminology.hl7.org/CodeSystem/observation-category"/>
                  <code value="laboratory"/>
               </coding>
            </category>
            <code>
               <coding>
                  <system value="http://loinc.org"/>
                  <code value="2514-8"/>
                  <display value="Ketones [Presence] in Urine by Test strip"/>
               </coding>
               <text value="Ketones [Presence] in Urine by Test strip"/>
            </code>
            <subject>
               <reference value="urn:uuid:25c05be0-4118-4c41-b241-c6c3f6c3a0d5"/>
               <display value="Leonhard Köhler"/>
            </subject>
            <effectiveDateTime value="2024-11-19T12:32:46Z"/>
            <performer>
               <display value="The Central European Lab"/>
            </performer>
            <specimen>
               <reference value="urn:uuid:d278d688-ab15-4467-9298-b78f3fc679d4"/>
            </specimen>
         </Observation>
      </resource>
   </entry>
   <entry>
      <fullUrl value="urn:uuid:d0a0613d-db36-41a6-b4eb-24314db182ee"/>
      <resource>
         <Observation>
            <id value="d0a0613d-db36-41a6-b4eb-24314db182ee"/>
            <meta>
               <profile value="http://hl7.eu/fhir/laboratory/StructureDefinition/Observation-resultslab-eu-lab"/>
            </meta>
            <text>
               <status value="generated"/>
               <div xmlns="http://www.w3.org/1999/xhtml">
                  <table class="hl7__eu__lab__report">
                     <tr>
                        <th>Test</th>
                        <th>19-Nov-2024</th>
                        <th>Reference Range</th>
                        <th>Unit</th>
                     </tr>
                     <tr>
                        <td>Specific gravity of Urine by Test strip</td>
                        <td>1.0</td>
                        <td>1.005 - 1.03</td>
                        <td>L</td>
                        <td>{nominal}</td>
                     </tr>
                  </table>
               </div>
            </text>
            <status value="final"/>
            <category>
               <coding>
                  <system value="http://terminology.hl7.org/CodeSystem/observation-category"/>
                  <code value="laboratory"/>
               </coding>
            </category>
            <code>
               <coding>
                  <system value="http://loinc.org"/>
                  <code value="5811-5"/>
                  <display value="Specific gravity of Urine by Test strip"/>
               </coding>
               <text value="Specific gravity of Urine by Test strip"/>
            </code>
            <subject>
               <reference value="urn:uuid:25c05be0-4118-4c41-b241-c6c3f6c3a0d5"/>
               <display value="Leonhard Köhler"/>
            </subject>
            <effectiveDateTime value="2024-11-19T12:32:46Z"/>
            <performer>
               <display value="The Central European Lab"/>
            </performer>
            <valueQuantity>
               <value value="1"/>
               <unit value="{nominal}"/>
               <system value="http://unitsofmeasure.org"/>
               <code value="{nominal}"/>
            </valueQuantity>
            <interpretation>
               <coding>
                  <system value="http://terminology.hl7.org/CodeSystem/v3-ObservationInterpretation"/>
                  <code value="L"/>
                  <display value="Low"/>
               </coding>
            </interpretation>
            <specimen>
               <reference value="urn:uuid:d278d688-ab15-4467-9298-b78f3fc679d4"/>
            </specimen>
            <referenceRange>
               <low>
                  <value value="1.005"/>
                  <system value="http://unitsofmeasure.org"/>
                  <code value="g/mL"/>
               </low>
            </referenceRange>
            <referenceRange>
               <high>
                  <value value="1.03"/>
                  <system value="http://unitsofmeasure.org"/>
                  <code value="g/mL"/>
               </high>
            </referenceRange>
         </Observation>
      </resource>
   </entry>
   <entry>
      <fullUrl value="urn:uuid:c2933421-3241-4760-8212-d3480a2635a2"/>
      <resource>
         <Observation>
            <id value="c2933421-3241-4760-8212-d3480a2635a2"/>
            <meta>
               <profile value="http://hl7.eu/fhir/laboratory/StructureDefinition/Observation-resultslab-eu-lab"/>
            </meta>
            <text>
               <status value="generated"/>
               <div xmlns="http://www.w3.org/1999/xhtml">
                  <table class="hl7__eu__lab__report">
                     <tr>
                        <th>Test</th>
                        <th>19-Nov-2024</th>
                        <th>Reference Range</th>
                        <th>Unit</th>
                     </tr>
                     <tr>
                        <td>pH of Urine by Test strip</td>
                        <td>6.6</td>
                        <td>4.5 - 7.5</td>
                        <td/>
                        <td>pH</td>
                     </tr>
                  </table>
               </div>
            </text>
            <status value="final"/>
            <category>
               <coding>
                  <system value="http://terminology.hl7.org/CodeSystem/observation-category"/>
                  <code value="laboratory"/>
               </coding>
            </category>
            <code>
               <coding>
                  <system value="http://loinc.org"/>
                  <code value="5803-2"/>
                  <display value="pH of Urine by Test strip"/>
               </coding>
               <text value="pH of Urine by Test strip"/>
            </code>
            <subject>
               <reference value="urn:uuid:25c05be0-4118-4c41-b241-c6c3f6c3a0d5"/>
               <display value="Leonhard Köhler"/>
            </subject>
            <effectiveDateTime value="2024-11-19T12:32:46Z"/>
            <performer>
               <display value="The Central European Lab"/>
            </performer>
            <valueQuantity>
               <value value="6.6"/>
               <unit value="pH"/>
               <system value="http://unitsofmeasure.org"/>
               <code value="pH"/>
            </valueQuantity>
            <specimen>
               <reference value="urn:uuid:d278d688-ab15-4467-9298-b78f3fc679d4"/>
            </specimen>
            <referenceRange>
               <low>
                  <value value="4.5"/>
                  <system value="http://unitsofmeasure.org"/>
                  <code value="pH"/>
               </low>
            </referenceRange>
            <referenceRange>
               <high>
                  <value value="7.5"/>
                  <system value="http://unitsofmeasure.org"/>
                  <code value="pH"/>
               </high>
            </referenceRange>
         </Observation>
      </resource>
   </entry>
   <entry>
      <fullUrl value="urn:uuid:5a042e3a-bece-45f1-8e00-f23852c04332"/>
      <resource>
         <Observation>
            <id value="5a042e3a-bece-45f1-8e00-f23852c04332"/>
            <meta>
               <profile value="http://hl7.eu/fhir/laboratory/StructureDefinition/Observation-resultslab-eu-lab"/>
            </meta>
            <text>
               <status value="generated"/>
               <div xmlns="http://www.w3.org/1999/xhtml">
                  <table class="hl7__eu__lab__report">
                     <tr>
                        <th>Test</th>
                        <th>19-Nov-2024</th>
                        <th>Reference Range</th>
                        <th>Unit</th>
                     </tr>
                     <tr>
                        <td>Protein [Mass/volume] in Urine by Test strip</td>
                        <td>10.5</td>
                        <td>14 - 20</td>
                        <td>L</td>
                        <td>mg/dL</td>
                     </tr>
                  </table>
               </div>
            </text>
            <status value="final"/>
            <category>
               <coding>
                  <system value="http://terminology.hl7.org/CodeSystem/observation-category"/>
                  <code value="laboratory"/>
               </coding>
            </category>
            <code>
               <coding>
                  <system value="http://loinc.org"/>
                  <code value="5804-0"/>
                  <display value="Protein [Mass/volume] in Urine by Test strip"/>
               </coding>
               <text value="Protein [Mass/volume] in Urine by Test strip"/>
            </code>
            <subject>
               <reference value="urn:uuid:25c05be0-4118-4c41-b241-c6c3f6c3a0d5"/>
               <display value="Leonhard Köhler"/>
            </subject>
            <effectiveDateTime value="2024-11-19T12:32:46Z"/>
            <performer>
               <display value="The Central European Lab"/>
            </performer>
            <valueQuantity>
               <value value="10.5"/>
               <unit value="mg/dL"/>
               <system value="http://unitsofmeasure.org"/>
               <code value="mg/dL"/>
            </valueQuantity>
            <interpretation>
               <coding>
                  <system value="http://terminology.hl7.org/CodeSystem/v3-ObservationInterpretation"/>
                  <code value="L"/>
                  <display value="Low"/>
               </coding>
            </interpretation>
            <specimen>
               <reference value="urn:uuid:d278d688-ab15-4467-9298-b78f3fc679d4"/>
            </specimen>
            <referenceRange>
               <low>
                  <value value="14"/>
                  <system value="http://unitsofmeasure.org"/>
                  <code value="mg/dL"/>
               </low>
            </referenceRange>
            <referenceRange>
               <high>
                  <value value="20"/>
                  <system value="http://unitsofmeasure.org"/>
                  <code value="mg/dL"/>
               </high>
            </referenceRange>
         </Observation>
      </resource>
   </entry>
   <entry>
      <fullUrl value="urn:uuid:3186ff19-4636-4ee7-b8c9-a14c03240afa"/>
      <resource>
         <Observation>
            <id value="3186ff19-4636-4ee7-b8c9-a14c03240afa"/>
            <meta>
               <profile value="http://hl7.eu/fhir/laboratory/StructureDefinition/Observation-resultslab-eu-lab"/>
            </meta>
            <text>
               <status value="generated"/>
               <div xmlns="http://www.w3.org/1999/xhtml">
                  <table class="hl7__eu__lab__report">
                     <tr>
                        <th>Test</th>
                        <th>19-Nov-2024</th>
                        <th>Reference Range</th>
                        <th>Unit</th>
                     </tr>
                     <tr>
                        <td>Nitrite [Presence] in Urine by Test strip</td>
                     </tr>
                  </table>
               </div>
            </text>
            <status value="final"/>
            <category>
               <coding>
                  <system value="http://terminology.hl7.org/CodeSystem/observation-category"/>
                  <code value="laboratory"/>
               </coding>
            </category>
            <code>
               <coding>
                  <system value="http://loinc.org"/>
                  <code value="5802-4"/>
                  <display value="Nitrite [Presence] in Urine by Test strip"/>
               </coding>
               <text value="Nitrite [Presence] in Urine by Test strip"/>
            </code>
            <subject>
               <reference value="urn:uuid:25c05be0-4118-4c41-b241-c6c3f6c3a0d5"/>
               <display value="Leonhard Köhler"/>
            </subject>
            <effectiveDateTime value="2024-11-19T12:32:46Z"/>
            <performer>
               <display value="The Central European Lab"/>
            </performer>
            <specimen>
               <reference value="urn:uuid:d278d688-ab15-4467-9298-b78f3fc679d4"/>
            </specimen>
         </Observation>
      </resource>
   </entry>
   <entry>
      <fullUrl value="urn:uuid:634b3caf-105a-47ff-aa83-d493e37035a0"/>
      <resource>
         <Observation>
            <id value="634b3caf-105a-47ff-aa83-d493e37035a0"/>
            <meta>
               <profile value="http://hl7.eu/fhir/laboratory/StructureDefinition/Observation-resultslab-eu-lab"/>
            </meta>
            <text>
               <status value="generated"/>
               <div xmlns="http://www.w3.org/1999/xhtml">
                  <table class="hl7__eu__lab__report">
                     <tr>
                        <th>Test</th>
                        <th>19-Nov-2024</th>
                        <th>Reference Range</th>
                        <th>Unit</th>
                     </tr>
                     <tr>
                        <td>Hemoglobin [Presence] in Urine by Test strip</td>
                     </tr>
                  </table>
               </div>
            </text>
            <status value="final"/>
            <category>
               <coding>
                  <system value="http://terminology.hl7.org/CodeSystem/observation-category"/>
                  <code value="laboratory"/>
               </coding>
            </category>
            <code>
               <coding>
                  <system value="http://loinc.org"/>
                  <code value="5794-3"/>
                  <display value="Hemoglobin [Presence] in Urine by Test strip"/>
               </coding>
               <text value="Hemoglobin [Presence] in Urine by Test strip"/>
            </code>
            <subject>
               <reference value="urn:uuid:25c05be0-4118-4c41-b241-c6c3f6c3a0d5"/>
               <display value="Leonhard Köhler"/>
            </subject>
            <effectiveDateTime value="2024-11-19T12:32:46Z"/>
            <performer>
               <display value="The Central European Lab"/>
            </performer>
            <specimen>
               <reference value="urn:uuid:d278d688-ab15-4467-9298-b78f3fc679d4"/>
            </specimen>
         </Observation>
      </resource>
   </entry>
   <entry>
      <fullUrl value="urn:uuid:ec8f0715-b8db-4cf6-813e-01bb2de00a1b"/>
      <resource>
         <Observation>
            <id value="ec8f0715-b8db-4cf6-813e-01bb2de00a1b"/>
            <meta>
               <profile value="http://hl7.eu/fhir/laboratory/StructureDefinition/Observation-resultslab-eu-lab"/>
            </meta>
            <text>
               <status value="generated"/>
               <div xmlns="http://www.w3.org/1999/xhtml">
                  <table class="hl7__eu__lab__report">
                     <tr>
                        <th>Test</th>
                        <th>19-Nov-2024</th>
                        <th>Reference Range</th>
                        <th>Unit</th>
                     </tr>
                     <tr>
                        <td>Leukocyte esterase [Presence] in Urine by Test strip</td>
                     </tr>
                  </table>
               </div>
            </text>
            <status value="final"/>
            <category>
               <coding>
                  <system value="http://terminology.hl7.org/CodeSystem/observation-category"/>
                  <code value="laboratory"/>
               </coding>
            </category>
            <code>
               <coding>
                  <system value="http://loinc.org"/>
                  <code value="5799-2"/>
                  <display value="Leukocyte esterase [Presence] in Urine by Test strip"/>
               </coding>
               <text value="Leukocyte esterase [Presence] in Urine by Test strip"/>
            </code>
            <subject>
               <reference value="urn:uuid:25c05be0-4118-4c41-b241-c6c3f6c3a0d5"/>
               <display value="Leonhard Köhler"/>
            </subject>
            <effectiveDateTime value="2024-11-19T12:32:46Z"/>
            <performer>
               <display value="The Central European Lab"/>
            </performer>
            <specimen>
               <reference value="urn:uuid:d278d688-ab15-4467-9298-b78f3fc679d4"/>
            </specimen>
         </Observation>
      </resource>
   </entry>
   <entry>
      <fullUrl value="urn:uuid:7655e47a-6eeb-4485-968a-3dd0d3c18972"/>
      <resource>
         <Observation>
            <id value="7655e47a-6eeb-4485-968a-3dd0d3c18972"/>
            <meta>
               <profile value="http://hl7.eu/fhir/laboratory/StructureDefinition/Observation-resultslab-eu-lab"/>
            </meta>
            <text>
               <status value="generated"/>
               <div xmlns="http://www.w3.org/1999/xhtml">
                  <table class="hl7__eu__lab__report">
                     <tr>
                        <th>Test</th>
                        <th>19-Nov-2024</th>
                        <th>Reference Range</th>
                        <th>Unit</th>
                     </tr>
                     <tr>
                        <td>Leukocytes [#/area] in Urine sediment by Microscopy high power field</td>
                        <td>44.4</td>
                        <td>0 - 5</td>
                        <td>H</td>
                        <td>/[HPF]</td>
                     </tr>
                  </table>
               </div>
            </text>
            <status value="final"/>
            <category>
               <coding>
                  <system value="http://terminology.hl7.org/CodeSystem/observation-category"/>
                  <code value="laboratory"/>
               </coding>
            </category>
            <code>
               <coding>
                  <system value="http://loinc.org"/>
                  <code value="5821-4"/>
                  <display value="Leukocytes [#/area] in Urine sediment by Microscopy high power field"/>
               </coding>
               <text value="Leukocytes [#/area] in Urine sediment by Microscopy high power field"/>
            </code>
            <subject>
               <reference value="urn:uuid:25c05be0-4118-4c41-b241-c6c3f6c3a0d5"/>
               <display value="Leonhard Köhler"/>
            </subject>
            <effectiveDateTime value="2024-11-19T12:32:46Z"/>
            <performer>
               <display value="The Central European Lab"/>
            </performer>
            <valueQuantity>
               <value value="44.4"/>
               <unit value="/[HPF]"/>
               <system value="http://unitsofmeasure.org"/>
               <code value="/[HPF]"/>
            </valueQuantity>
            <interpretation>
               <coding>
                  <system value="http://terminology.hl7.org/CodeSystem/v3-ObservationInterpretation"/>
                  <code value="H"/>
                  <display value="High"/>
               </coding>
            </interpretation>
            <specimen>
               <reference value="urn:uuid:d9477da5-6876-49c3-816e-64c29f3a1a3e"/>
            </specimen>
            <referenceRange>
               <low>
                  <value value="0"/>
                  <system value="http://unitsofmeasure.org"/>
                  <code value="#/area"/>
               </low>
            </referenceRange>
            <referenceRange>
               <high>
                  <value value="5"/>
                  <system value="http://unitsofmeasure.org"/>
                  <code value="#/area"/>
               </high>
            </referenceRange>
         </Observation>
      </resource>
   </entry>
   <entry>
      <fullUrl value="urn:uuid:6e3f44a1-c5e3-4859-b3d4-667da9db9f53"/>
      <resource>
         <Observation>
            <id value="6e3f44a1-c5e3-4859-b3d4-667da9db9f53"/>
            <meta>
               <profile value="http://hl7.eu/fhir/laboratory/StructureDefinition/Observation-resultslab-eu-lab"/>
            </meta>
            <text>
               <status value="generated"/>
               <div xmlns="http://www.w3.org/1999/xhtml">
                  <table class="hl7__eu__lab__report">
                     <tr>
                        <th>Test</th>
                        <th>19-Nov-2024</th>
                        <th>Reference Range</th>
                        <th>Unit</th>
                     </tr>
                     <tr>
                        <td>Erythrocytes [#/area] in Urine sediment by Microscopy high power field</td>
                        <td>2.0</td>
                        <td>0 - 5</td>
                        <td/>
                        <td>/[HPF]</td>
                     </tr>
                  </table>
               </div>
            </text>
            <status value="final"/>
            <category>
               <coding>
                  <system value="http://terminology.hl7.org/CodeSystem/observation-category"/>
                  <code value="laboratory"/>
               </coding>
            </category>
            <code>
               <coding>
                  <system value="http://loinc.org"/>
                  <code value="13945-1"/>
                  <display value="Erythrocytes [#/area] in Urine sediment by Microscopy high power field"/>
               </coding>
               <text value="Erythrocytes [#/area] in Urine sediment by Microscopy high power field"/>
            </code>
            <subject>
               <reference value="urn:uuid:25c05be0-4118-4c41-b241-c6c3f6c3a0d5"/>
               <display value="Leonhard Köhler"/>
            </subject>
            <effectiveDateTime value="2024-11-19T12:32:46Z"/>
            <performer>
               <display value="The Central European Lab"/>
            </performer>
            <valueQuantity>
               <value value="2"/>
               <unit value="/[HPF]"/>
               <system value="http://unitsofmeasure.org"/>
               <code value="/[HPF]"/>
            </valueQuantity>
            <specimen>
               <reference value="urn:uuid:d9477da5-6876-49c3-816e-64c29f3a1a3e"/>
            </specimen>
            <referenceRange>
               <low>
                  <value value="0"/>
                  <system value="http://unitsofmeasure.org"/>
                  <code value="[#/area]"/>
               </low>
            </referenceRange>
            <referenceRange>
               <high>
                  <value value="5"/>
                  <system value="http://unitsofmeasure.org"/>
                  <code value="[#/area]"/>
               </high>
            </referenceRange>
         </Observation>
      </resource>
   </entry>
   <entry>
      <fullUrl value="urn:uuid:f26c3262-5d41-4d4c-a563-c9e8d516d815"/>
      <resource>
         <Observation>
            <id value="f26c3262-5d41-4d4c-a563-c9e8d516d815"/>
            <meta>
               <profile value="http://hl7.eu/fhir/laboratory/StructureDefinition/Observation-resultslab-eu-lab"/>
            </meta>
            <text>
               <status value="generated"/>
               <div xmlns="http://www.w3.org/1999/xhtml">
                  <table class="hl7__eu__lab__report">
                     <tr>
                        <th>Test</th>
                        <th>19-Nov-2024</th>
                        <th>Reference Range</th>
                        <th>Unit</th>
                     </tr>
                     <tr>
                        <td>Epithelial cells [#/area] in Urine sediment by Microscopy high power field</td>
                        <td>0.5</td>
                        <td>0 - 5</td>
                        <td/>
                        <td>/[HPF]</td>
                     </tr>
                  </table>
               </div>
            </text>
            <status value="final"/>
            <category>
               <coding>
                  <system value="http://terminology.hl7.org/CodeSystem/observation-category"/>
                  <code value="laboratory"/>
               </coding>
            </category>
            <code>
               <coding>
                  <system value="http://loinc.org"/>
                  <code value="5787-7"/>
                  <display value="Epithelial cells [#/area] in Urine sediment by Microscopy high power field"/>
               </coding>
               <text value="Epithelial cells [#/area] in Urine sediment by Microscopy high power field"/>
            </code>
            <subject>
               <reference value="urn:uuid:25c05be0-4118-4c41-b241-c6c3f6c3a0d5"/>
               <display value="Leonhard Köhler"/>
            </subject>
            <effectiveDateTime value="2024-11-19T12:32:46Z"/>
            <performer>
               <display value="The Central European Lab"/>
            </performer>
            <valueQuantity>
               <value value="0.5"/>
               <unit value="/[HPF]"/>
               <system value="http://unitsofmeasure.org"/>
               <code value="/[HPF]"/>
            </valueQuantity>
            <specimen>
               <reference value="urn:uuid:d9477da5-6876-49c3-816e-64c29f3a1a3e"/>
            </specimen>
            <referenceRange>
               <low>
                  <value value="0"/>
                  <system value="http://unitsofmeasure.org"/>
                  <code value="#/area"/>
               </low>
            </referenceRange>
            <referenceRange>
               <high>
                  <value value="5"/>
                  <system value="http://unitsofmeasure.org"/>
                  <code value="#/area"/>
               </high>
            </referenceRange>
         </Observation>
      </resource>
   </entry>
   <entry>
      <fullUrl value="urn:uuid:6539f8f7-5069-4134-b7e1-3d45e9dbd489"/>
      <resource>
         <Observation>
            <id value="6539f8f7-5069-4134-b7e1-3d45e9dbd489"/>
            <meta>
               <profile value="http://hl7.eu/fhir/laboratory/StructureDefinition/Observation-resultslab-eu-lab"/>
            </meta>
            <text>
               <status value="generated"/>
               <div xmlns="http://www.w3.org/1999/xhtml">
                  <table class="hl7__eu__lab__report">
                     <tr>
                        <th>Test</th>
                        <th>19-Nov-2024</th>
                        <th>Reference Range</th>
                        <th>Unit</th>
                     </tr>
                     <tr>
                        <td>Casts [Presence] in Urine sediment by Light microscopy</td>
                     </tr>
                  </table>
               </div>
            </text>
            <status value="final"/>
            <category>
               <coding>
                  <system value="http://terminology.hl7.org/CodeSystem/observation-category"/>
                  <code value="laboratory"/>
               </coding>
            </category>
            <code>
               <coding>
                  <system value="http://loinc.org"/>
                  <code value="24124-0"/>
                  <display value="Casts [Presence] in Urine sediment by Light microscopy"/>
               </coding>
               <text value="Casts [Presence] in Urine sediment by Light microscopy"/>
            </code>
            <subject>
               <reference value="urn:uuid:25c05be0-4118-4c41-b241-c6c3f6c3a0d5"/>
               <display value="Leonhard Köhler"/>
            </subject>
            <effectiveDateTime value="2024-11-19T12:32:46Z"/>
            <performer>
               <display value="The Central European Lab"/>
            </performer>
            <specimen>
               <reference value="urn:uuid:d9477da5-6876-49c3-816e-64c29f3a1a3e"/>
            </specimen>
         </Observation>
      </resource>
   </entry>
   <entry>
      <fullUrl value="urn:uuid:4e5d5b8a-cd5d-45b4-b96c-2b5c8fe5b2e9"/>
      <resource>
         <Observation>
            <id value="4e5d5b8a-cd5d-45b4-b96c-2b5c8fe5b2e9"/>
            <meta>
               <profile value="http://hl7.eu/fhir/laboratory/StructureDefinition/Observation-resultslab-eu-lab"/>
            </meta>
            <text>
               <status value="generated"/>
               <div xmlns="http://www.w3.org/1999/xhtml">
                  <table class="hl7__eu__lab__report">
                     <tr>
                        <th>Test</th>
                        <th>19-Nov-2024</th>
                        <th>Reference Range</th>
                        <th>Unit</th>
                     </tr>
                     <tr>
                        <td>Mucus [Presence] in Urine sediment by Light microscopy</td>
                     </tr>
                  </table>
               </div>
            </text>
            <status value="final"/>
            <category>
               <coding>
                  <system value="http://terminology.hl7.org/CodeSystem/observation-category"/>
                  <code value="laboratory"/>
               </coding>
            </category>
            <code>
               <coding>
                  <system value="http://loinc.org"/>
                  <code value="8247-9"/>
                  <display value="Mucus [Presence] in Urine sediment by Light microscopy"/>
               </coding>
               <text value="Mucus [Presence] in Urine sediment by Light microscopy"/>
            </code>
            <subject>
               <reference value="urn:uuid:25c05be0-4118-4c41-b241-c6c3f6c3a0d5"/>
               <display value="Leonhard Köhler"/>
            </subject>
            <effectiveDateTime value="2024-11-19T12:32:46Z"/>
            <performer>
               <display value="The Central European Lab"/>
            </performer>
            <specimen>
               <reference value="urn:uuid:d9477da5-6876-49c3-816e-64c29f3a1a3e"/>
            </specimen>
         </Observation>
      </resource>
   </entry>
   <entry>
      <fullUrl value="urn:uuid:34bdcb79-48da-49d7-a5aa-6a76f246e6cc"/>
      <resource>
         <Observation>
            <id value="34bdcb79-48da-49d7-a5aa-6a76f246e6cc"/>
            <meta>
               <profile value="http://hl7.eu/fhir/laboratory/StructureDefinition/Observation-resultslab-eu-lab"/>
            </meta>
            <text>
               <status value="generated"/>
               <div xmlns="http://www.w3.org/1999/xhtml">
                  <table class="hl7__eu__lab__report">
                     <tr>
                        <th>Test</th>
                        <th>19-Nov-2024</th>
                        <th>Reference Range</th>
                        <th>Unit</th>
                     </tr>
                     <tr>
                        <td>Bacteria [#/area] in Urine sediment by Microscopy high power field</td>
                     </tr>
                  </table>
               </div>
            </text>
            <status value="final"/>
            <category>
               <coding>
                  <system value="http://terminology.hl7.org/CodeSystem/observation-category"/>
                  <code value="laboratory"/>
               </coding>
            </category>
            <code>
               <coding>
                  <system value="http://loinc.org"/>
                  <code value="5769-5"/>
                  <display value="Bacteria [#/area] in Urine sediment by Microscopy high power field"/>
               </coding>
               <text value="Bacteria [#/area] in Urine sediment by Microscopy high power field"/>
            </code>
            <subject>
               <reference value="urn:uuid:25c05be0-4118-4c41-b241-c6c3f6c3a0d5"/>
               <display value="Leonhard Köhler"/>
            </subject>
            <effectiveDateTime value="2024-11-19T12:32:46Z"/>
            <performer>
               <display value="The Central European Lab"/>
            </performer>
            <specimen>
               <reference value="urn:uuid:d9477da5-6876-49c3-816e-64c29f3a1a3e"/>
            </specimen>
         </Observation>
      </resource>
   </entry>
   <entry>
      <fullUrl value="urn:uuid:700ffc12-fcc8-4bab-bfef-c204f3df0e44"/>
      <resource>
         <Observation>
            <id value="700ffc12-fcc8-4bab-bfef-c204f3df0e44"/>
            <meta>
               <profile value="http://hl7.eu/fhir/laboratory/StructureDefinition/Observation-resultslab-eu-lab"/>
            </meta>
            <text>
               <status value="generated"/>
               <div xmlns="http://www.w3.org/1999/xhtml">
                  <table class="hl7__eu__lab__report">
                     <tr>
                        <th>Test</th>
                        <th>19-Nov-2024</th>
                        <th>Reference Range</th>
                        <th>Unit</th>
                     </tr>
                     <tr>
                        <td>Bacteria identified in Urine by Culture</td>
                     </tr>
                  </table>
               </div>
            </text>
            <status value="final"/>
            <category>
               <coding>
                  <system value="http://terminology.hl7.org/CodeSystem/observation-category"/>
                  <code value="laboratory"/>
               </coding>
            </category>
            <code>
               <coding>
                  <system value="http://loinc.org"/>
                  <code value="630-4"/>
                  <display value="Bacteria identified in Urine by Culture"/>
               </coding>
               <text value="Bacteria identified in Urine by Culture"/>
            </code>
            <subject>
               <reference value="urn:uuid:25c05be0-4118-4c41-b241-c6c3f6c3a0d5"/>
               <display value="Leonhard Köhler"/>
            </subject>
            <effectiveDateTime value="2024-11-19T12:32:46Z"/>
            <performer>
               <display value="The Central European Lab"/>
            </performer>
            <specimen>
               <reference value="urn:uuid:d278d688-ab15-4467-9298-b78f3fc679d4"/>
            </specimen>
         </Observation>
      </resource>
   </entry>
   <entry>
      <fullUrl value="urn:uuid:62376b91-4107-464c-8732-4d708df5a060"/>
      <resource>
         <Device>
            <id value="62376b91-4107-464c-8732-4d708df5a060"/>
            <text>
               <status value="generated"/>
               <div xmlns="http://www.w3.org/1999/xhtml">SYNDERAI Synthetic Generator v5.0</div>
            </text>
            <status value="active&#34;"/>
            <distinctIdentifier value="synderai-generator-50"/>
            <manufacturer value="SYNDERAI Project"/>
            <deviceName>
               <name value="SYNDERAI Synthetic Generator"/>
               <type value="manufacturer-name"/>
            </deviceName>
            <version>
               <value value="5.0"/>
            </version>
         </Device>
      </resource>
   </entry>
   <entry>
      <fullUrl value="urn:uuid:8ccea6f6-41d4-4a15-ac0b-8e4d870c8172"/>
      <resource>
         <Provenance>
            <id value="8ccea6f6-41d4-4a15-ac0b-8e4d870c8172"/>
            <text>
               <status value="generated"/>
               <div xmlns="http://www.w3.org/1999/xhtml">Provenance for SYNDERAI Synthetic Example Data Resource</div>
            </text>
            <target>
               <reference value="Patient/25c05be0-4118-4c41-b241-c6c3f6c3a0d5"/>
            </target>
            <target>
               <reference value="Bundle/510b7e05-4bc7-4a47-94ec-e882bd67f860"/>
            </target>
            <target>
               <reference value="Composition/f5740929-9060-443f-9962-ef862010bc5d"/>
            </target>
            <target>
               <reference value="PractitionerRole/ce85b130-bfed-4483-8223-7b926e9e8d07"/>
            </target>
            <target>
               <reference value="Practitioner/be6984d5-efc5-4608-a719-0958c383a198"/>
            </target>
            <target>
               <reference value="PractitionerRole/11ad70e9-a028-4d0b-8499-99e10d9c2195"/>
            </target>
            <target>
               <reference value="Organization/92d3ab8a-cf72-40df-93ea-5de7420a7fd7"/>
            </target>
            <recorded value="2024-11-19T13:32:46Z"/>
            <policy value="https://synderai.net/synderai-synthetic-data-policy"/>
            <reason>
               <text value="Interoperability Testing and Training (non-clinical use)"/>
            </reason>
            <activity>
               <text value="Synthetic Example Data Generation"/>
            </activity>
            <agent>
               <type>
                  <text value="author"/>
               </type>
               <who>
                  <reference value="Device/62376b91-4107-464c-8732-4d708df5a060"/>
               </who>
            </agent>
         </Provenance>
      </resource>
   </entry>
   <entry>
      <fullUrl value="urn:uuid:ce85b130-bfed-4483-8223-7b926e9e8d07"/>
      <resource>
         <PractitionerRole>
            <id value="ce85b130-bfed-4483-8223-7b926e9e8d07"/>
            <meta>
               <profile value="http://hl7.eu/fhir/base/StructureDefinition/practitionerRole-eu"/>
            </meta>
            <text>
               <status value="generated"/>
               <div xmlns="http://www.w3.org/1999/xhtml">Laboratory Role Id: ce85b130-bfed-4483-8223-7b926e9e8d07</div>
            </text>
            <practitioner>
               <reference value="urn:uuid:be6984d5-efc5-4608-a719-0958c383a198"/>
            </practitioner>
         </PractitionerRole>
      </resource>
   </entry>
   <entry>
      <fullUrl value="urn:uuid:be6984d5-efc5-4608-a719-0958c383a198"/>
      <resource>
         <Practitioner>
            <id value="be6984d5-efc5-4608-a719-0958c383a198"/>
            <meta>
               <profile value="http://hl7.eu/fhir/base/StructureDefinition/practitioner-eu"/>
            </meta>
            <text>
               <status value="generated"/>
               <div xmlns="http://www.w3.org/1999/xhtml">Laboratory: Laboratoire Central Européenne, 1000 Brussels, Belgium</div>
            </text>
            <identifier>
               <system value="urn:oid:2.16.840.1.113883.2.51.999"/>
               <value value="bc53236c-0fb5-45d7-964c-e9f2ad60c65d"/>
               <assigner>
                  <display value="HL7 Europe"/>
               </assigner>
            </identifier>
            <name>
               <family value="Ample"/>
               <given value="Ex"/>
               <prefix value="dr"/>
            </name>
            <address>
               <line value="Laboratoire Central Européenne"/>
               <line value="Boulevard du Jardin Botanique 32"/>
               <city value="Brussels"/>
               <postalCode value="1000"/>
               <country value="Belgium"/>
            </address>
         </Practitioner>
      </resource>
   </entry>
</Bundle>