{
  "resourceType": "Bundle",
  "id": "f44524fc-5df9-4dc7-b3c4-0b15193c1e59",
  "meta": {
    "profile": [
      "http://hl7.eu/fhir/laboratory/StructureDefinition/Bundle-eu-lab"
    ]
  },
  "identifier": {
    "assigner": {
      "display": "HL7 Europe"
    },
    "system": "urn:oid:2.16.840.1.113883.2.51.999",
    "value": "6d0068a6-70b0-402f-b538-b33150b77a48"
  },
  "entry": [
    {
      "fullUrl": "urn:uuid:d6134a10-bf11-497b-b1fa-d4dec6564ad4",
      "resource": {
        "resourceType": "Composition",
        "id": "d6134a10-bf11-497b-b1fa-d4dec6564ad4",
        "meta": {
          "profile": [
            "http://hl7.eu/fhir/laboratory/StructureDefinition/Composition-eu-lab"
          ]
        },
        "identifier": {
          "assigner": {
            "display": "HL7 Europe"
          },
          "system": "urn:oid:2.16.840.1.113883.2.51.999",
          "value": "c065db4a-0d48-4e8c-9fa7-7d8b2e75c9e5"
        },
        "author": [
          {
            "reference": "urn:uuid:4ca0753c-6467-4d71-8246-8a2728e6c6e3"
          }
        ],
        "category": [
          {
            "coding": [
              {
                "code": "26436-6",
                "system": "http://loinc.org",
                "display": "Laboratory studies (set)"
              }
            ]
          }
        ],
        "type": {
          "coding": [
            {
              "code": "11502-2",
              "system": "http://loinc.org",
              "display": "Laboratory report"
            }
          ],
          "text": "Laboratory Report"
        },
        "section": [
          {
            "code": {
              "coding": [
                {
                  "code": "26436-6",
                  "system": "http://loinc.org",
                  "display": "Laboratory studies (set)"
                }
              ],
              "text": "Laboratory studies"
            },
            "section": [
              {
                "code": {
                  "coding": [
                    {
                      "code": "$18719-5",
                      "system": "http://loinc.org",
                      "display": "Chemistry studies (set)"
                    }
                  ],
                  "text": "Chemistry"
                },
                "entry": [
                  {
                    "reference": "urn:uuid:1e253d47-22cf-458a-b45f-850206462bd4"
                  },
                  {
                    "reference": "urn:uuid:69b830f6-53e8-4c4e-84f2-b223e0828dc0"
                  },
                  {
                    "reference": "urn:uuid:00f12522-1172-45d8-9548-d409cb4e3e02"
                  },
                  {
                    "reference": "urn:uuid:438932a3-007e-4f08-837f-104b7dcf7ea0"
                  },
                  {
                    "reference": "urn:uuid:bd35613a-f5ef-47a1-a216-587f85fe5192"
                  },
                  {
                    "reference": "urn:uuid:a8d586f9-11fa-4187-8f0f-0f4c4ed0c6e4"
                  },
                  {
                    "reference": "urn:uuid:014e3335-b86b-4c29-bad5-f7d0c2f074c7"
                  },
                  {
                    "reference": "urn:uuid:b7743628-66b5-4ef9-b6f7-11223a035dab"
                  },
                  {
                    "reference": "urn:uuid:d8219737-d9f7-4833-b603-ab099b76cfd7"
                  },
                  {
                    "reference": "urn:uuid:d2475691-7753-415c-bca4-8f6a1b123cef"
                  },
                  {
                    "reference": "urn:uuid:5079d715-2e96-407e-80b6-4afed0536e90"
                  },
                  {
                    "reference": "urn:uuid:90e5b39a-16f8-42e8-a617-b0677f652505"
                  },
                  {
                    "reference": "urn:uuid:f27202f7-4b9f-4dd6-a2b4-0330358e7f91"
                  },
                  {
                    "reference": "urn:uuid:e016ee2b-d867-4335-aa6e-3377d9449153"
                  },
                  {
                    "reference": "urn:uuid:24b88648-d895-4d3e-b3f5-e233373323bd"
                  },
                  {
                    "reference": "urn:uuid:9401162b-db0a-411c-a5ea-9291f545cefa"
                  },
                  {
                    "reference": "urn:uuid:8707d95c-5b76-4553-99c9-b13462e4c82c"
                  },
                  {
                    "reference": "urn:uuid:81da3400-1d02-4ffb-ac2d-c3fcf058f228"
                  }
                ],
                "text": {
                  "status": "generated",
                  "div": "<div xmlns=\"http://www.w3.org/1999/xhtml\"><h3>Chemistry</h3><table class=\"hl7__eu__lab__report\"><thead><tr><th>Test</th><th>09-JAN-2022</th><th>Reference&#xA0;Range</th><th>Unit</th></tr></thead><tbody><tr><td>Glucose [Mass/volume] in Serum or Plasma</td><td>76.2</td><td>70 - 99</td><td>mg/dL</td></tr><tr><td>Urea nitrogen [Mass/volume] in Serum or Plasma</td><td>17.9</td><td>7 - 20</td><td>mg/dL</td></tr><tr><td>Creatinine [Mass/volume] in Serum or Plasma</td><td><strong>1.6 H</strong></td><td>0.6 - 1.3</td><td>mg/dL</td></tr><tr><td>Calcium [Mass/volume] in Serum or Plasma</td><td>9.6</td><td>8.6 - 10.4</td><td>mg/dL</td></tr><tr><td>Sodium [Moles/volume] in Serum or Plasma</td><td>136.2</td><td>135 - 145</td><td>mmol/L</td></tr><tr><td>Potassium [Moles/volume] in Serum or Plasma</td><td><strong>5.1 H</strong></td><td>3.5 - 5</td><td>mmol/L</td></tr><tr><td>Chloride [Moles/volume] in Serum or Plasma</td><td>103.5</td><td>98 - 106</td><td>mmol/L</td></tr><tr><td>Carbon dioxide, total [Moles/volume] in Serum or Plasma</td><td><strong>21.0 L</strong></td><td>22 - 29</td><td>mmol/L</td></tr><tr><td>Ketones [Presence] in Urine by Test strip</td><td>Urine ketone test = trace</td><td></td><td></td></tr><tr><td>Hemoglobin A1c/Hemoglobin.total in Blood</td><td><strong>3.3 L</strong></td><td>4 - 6</td><td>%</td></tr><tr><td>Glucose [Mass/volume] in Blood</td><td>76.2</td><td>70 - 140</td><td>mg/dL</td></tr><tr><td>Urea nitrogen [Mass/volume] in Blood</td><td>17.9</td><td>7 - 25</td><td>mg/dL</td></tr><tr><td>Creatinine [Mass/volume] in Blood</td><td><strong>1.2 H</strong></td><td>0.6 - 1.1</td><td>mg/dL</td></tr><tr><td>Calcium [Mass/volume] in Blood</td><td>9.6</td><td>8.6 - 10.4</td><td>mg/dL</td></tr><tr><td>Sodium [Moles/volume] in Blood</td><td>136.2</td><td>135 - 145</td><td>mmol/L</td></tr><tr><td>Potassium [Moles/volume] in Blood</td><td>5.1</td><td>3.5 - 5.1</td><td>mmol/L</td></tr><tr><td>Chloride [Moles/volume] in Blood</td><td>103.5</td><td>98 - 110</td><td>mmol/L</td></tr><tr><td>Carbon dioxide, total [Moles/volume] in Blood</td><td><strong>21.0 L</strong></td><td>22 - 29</td><td>mmol/L</td></tr></tbody></table></div>"
                },
                "title": "Chemistry"
              },
              {
                "code": {
                  "coding": [
                    {
                      "code": "$18729-4",
                      "system": "http://loinc.org",
                      "display": "Urinalysis studies (set)"
                    }
                  ],
                  "text": "Urinalysis"
                },
                "entry": [
                  {
                    "reference": "urn:uuid:9c32fa52-c946-4a0f-ac17-4c8ffc6fceae"
                  },
                  {
                    "reference": "urn:uuid:5122c9ff-2355-41c2-ba00-3a62ea45ed50"
                  },
                  {
                    "reference": "urn:uuid:120da216-2ab7-497e-b2ed-1f36709af95f"
                  },
                  {
                    "reference": "urn:uuid:e168937e-62ce-4cfd-9f9f-f4e7d69f2b1b"
                  },
                  {
                    "reference": "urn:uuid:fb2fea77-14a0-47e5-b184-b7a296e366b4"
                  },
                  {
                    "reference": "urn:uuid:3baa765c-e55d-4db7-b032-5f354010c95c"
                  },
                  {
                    "reference": "urn:uuid:6e12eee7-734b-4eb4-a3ae-bcc653f80f27"
                  },
                  {
                    "reference": "urn:uuid:f22322b6-7078-4745-9761-688555a536db"
                  },
                  {
                    "reference": "urn:uuid:44505caf-4fc3-481c-9035-445369e6ccff"
                  },
                  {
                    "reference": "urn:uuid:b011f183-cefb-41a3-bf3a-2cd1ea9084c6"
                  },
                  {
                    "reference": "urn:uuid:2882e302-fb87-4c9e-a9dd-f27f7fd57595"
                  },
                  {
                    "reference": "urn:uuid:46b96ce4-221e-4a7f-9855-6e9cec43c9d7"
                  }
                ],
                "text": {
                  "status": "generated",
                  "div": "<div xmlns=\"http://www.w3.org/1999/xhtml\"><h3>Urinalysis</h3><table class=\"hl7__eu__lab__report\"><thead><tr><th>Test</th><th>09-JAN-2022</th><th>Reference&#xA0;Range</th><th>Unit</th></tr></thead><tbody><tr><td>Glucose [Mass/volume] in Urine by Test strip</td><td><strong>0.9 H</strong></td><td>0 - 0.8</td><td>mg/dL</td></tr><tr><td>Glucose [Presence] in Urine by Test strip</td><td>++</td><td></td><td></td></tr><tr><td>Bilirubin.total [Mass/volume] in Urine by Test strip</td><td><strong>1.3 H</strong></td><td>0 - 1</td><td>mg/dL</td></tr><tr><td>Bilirubin.total [Presence] in Urine by Test strip</td><td>Finding of bilirubin in urine</td><td></td><td></td></tr><tr><td>Ketones [Mass/volume] in Urine by Test strip</td><td><strong>19.3 H</strong></td><td>0 - 4</td><td>mg/dL</td></tr><tr><td>Specific gravity of Urine by Test strip</td><td><strong>1.0 L</strong></td><td>1.005 - 1.03</td><td>{nominal}</td></tr><tr><td>pH of Urine by Test strip</td><td>5.8</td><td>4.5 - 7</td><td>pH</td></tr><tr><td>Protein [Mass/volume] in Urine by Test strip</td><td>134.9</td><td>0 - 145</td><td>mg/dL</td></tr><tr><td>Protein [Presence] in Urine by Test strip</td><td>Urine protein test = +</td><td></td><td></td></tr><tr><td>Nitrite [Presence] in Urine by Test strip</td><td>Urine nitrite negative</td><td></td><td></td></tr><tr><td>Hemoglobin [Presence] in Urine by Test strip</td><td>Urine blood test = negative</td><td></td><td></td></tr><tr><td>Leukocyte esterase [Presence] in Urine by Test strip</td><td>Urine leukocyte test negative</td><td></td><td></td></tr></tbody></table></div>"
                },
                "title": "Urinalysis"
              },
              {
                "code": {
                  "coding": [
                    {
                      "code": "$LP7846-1",
                      "system": "http://loinc.org",
                      "display": "Specimen information"
                    }
                  ],
                  "text": "Specimen information"
                },
                "entry": [
                  {
                    "reference": "urn:uuid:18affae4-ecb6-4c39-8b46-d481a3211409"
                  },
                  {
                    "reference": "urn:uuid:54163c09-3646-4d14-bbaa-78036c08c408"
                  },
                  {
                    "reference": "urn:uuid:24e86394-29aa-41b3-b3d6-fcd2f53a414d"
                  },
                  {
                    "reference": "urn:uuid:4bce25fb-b1af-4ec6-a258-c1837786de75"
                  }
                ],
                "text": {
                  "status": "generated",
                  "div": "<div xmlns=\"http://www.w3.org/1999/xhtml\"><h3>Specimen information</h3><table class=\"hl7__eu__lab__report\"><thead><tr><th>Test</th><th>09-JAN-2022</th><th>Specimen</th><th></th></tr></thead><tbody><tr><td>Appearance of Urine</td><td>Cloudy urine</td><td>Urine</td><td></td></tr><tr><td>Odor of Urine</td><td>Urine smell ammoniacal</td><td>Urine</td><td></td></tr><tr><td>Clarity of Urine</td><td>Translucent</td><td>Urine</td><td></td></tr><tr><td>Color of Urine</td><td>Brown color</td><td>Urine</td><td></td></tr></tbody></table></div>"
                },
                "title": "Specimen information"
              }
            ],
            "title": "Laboratory Report"
          },
          {
            "text": {
              "status": "generated",
              "div": "<div xmlns=\"http://www.w3.org/1999/xhtml\"><h3>Annotation</h3><table class=\"hl7__eu__lab__report\"><tr><th>Conclusion and Recommendations based on this report and previous findings known to us</th></tr><tr><td>The patient shows mildly elevated creatinine and potassium, and low total CO₂, suggesting possible mild renal impairment and metabolic acidosis. Urinalysis reveals glucosuria, ketonuria, bilirubinuria, low specific gravity, and abnormal urine color/appearance, but no infection markers. HbA1c is low, arguing against chronic hyperglycemia. Findings may indicate acute metabolic disturbance (e.g., starvation, dehydration, or renal dysfunction) rather than diabetes. Clinical correlation and further renal and metabolic assessment are recommended.</td></tr></table></div>"
            },
            "code": {
              "coding": [
                {
                  "system": "http://loinc.org",
                  "code": "48767-8",
                  "display": "Annotation comment"
                }
              ]
            },
            "title": "Annotation comment"
          }
        ],
        "status": "final",
        "subject": {
          "reference": "urn:uuid:bd8f54a4-8434-443c-be50-7b66d5130675",
          "display": "Iva Kratochvílová"
        },
        "date": "2022-01-09T17:10:29Z",
        "title": "Laboratory Report",
        "confidentiality": "N"
      }
    },
    {
      "fullUrl": "urn:uuid:39f2e716-06ff-440e-b5bc-d50adc7bc0c2",
      "resource": {
        "resourceType": "DiagnosticReport",
        "id": "39f2e716-06ff-440e-b5bc-d50adc7bc0c2",
        "meta": {
          "profile": [
            "http://hl7.eu/fhir/laboratory/StructureDefinition/DiagnosticReport-eu-lab"
          ]
        },
        "identifier": [
          {
            "assigner": {
              "display": "HL7 Europe"
            },
            "system": "urn:oid:2.16.840.1.113883.2.51.999",
            "value": "a492d5aa-5313-45a9-b884-601391eebf29"
          }
        ],
        "extension": [
          {
            "url": "http://hl7.org/fhir/5.0/StructureDefinition/extension-DiagnosticReport.composition",
            "valueReference": {
              "reference": "urn:uuid:c065db4a-0d48-4e8c-9fa7-7d8b2e75c9e5"
            }
          }
        ],
        "category": [
          {
            "coding": [
              {
                "code": "26436-6",
                "system": "http://loinc.org",
                "display": "Laboratory studies (set)"
              }
            ]
          }
        ],
        "specimen": [
          {
            "reference": "urn:uuid:a19c3720-c856-4e34-85f7-e1fef10506f4"
          },
          {
            "reference": "urn:uuid:046ecabe-01b1-4fbb-96e5-fc8ee98e4845"
          },
          {
            "reference": "urn:uuid:6b848eef-0527-474e-b470-5ad0009a6324"
          }
        ],
        "result": [
          {
            "reference": "urn:uuid:1e253d47-22cf-458a-b45f-850206462bd4"
          },
          {
            "reference": "urn:uuid:69b830f6-53e8-4c4e-84f2-b223e0828dc0"
          },
          {
            "reference": "urn:uuid:00f12522-1172-45d8-9548-d409cb4e3e02"
          },
          {
            "reference": "urn:uuid:438932a3-007e-4f08-837f-104b7dcf7ea0"
          },
          {
            "reference": "urn:uuid:bd35613a-f5ef-47a1-a216-587f85fe5192"
          },
          {
            "reference": "urn:uuid:a8d586f9-11fa-4187-8f0f-0f4c4ed0c6e4"
          },
          {
            "reference": "urn:uuid:014e3335-b86b-4c29-bad5-f7d0c2f074c7"
          },
          {
            "reference": "urn:uuid:b7743628-66b5-4ef9-b6f7-11223a035dab"
          },
          {
            "reference": "urn:uuid:18affae4-ecb6-4c39-8b46-d481a3211409"
          },
          {
            "reference": "urn:uuid:54163c09-3646-4d14-bbaa-78036c08c408"
          },
          {
            "reference": "urn:uuid:24e86394-29aa-41b3-b3d6-fcd2f53a414d"
          },
          {
            "reference": "urn:uuid:4bce25fb-b1af-4ec6-a258-c1837786de75"
          },
          {
            "reference": "urn:uuid:9c32fa52-c946-4a0f-ac17-4c8ffc6fceae"
          },
          {
            "reference": "urn:uuid:5122c9ff-2355-41c2-ba00-3a62ea45ed50"
          },
          {
            "reference": "urn:uuid:120da216-2ab7-497e-b2ed-1f36709af95f"
          },
          {
            "reference": "urn:uuid:e168937e-62ce-4cfd-9f9f-f4e7d69f2b1b"
          },
          {
            "reference": "urn:uuid:fb2fea77-14a0-47e5-b184-b7a296e366b4"
          },
          {
            "reference": "urn:uuid:d8219737-d9f7-4833-b603-ab099b76cfd7"
          },
          {
            "reference": "urn:uuid:3baa765c-e55d-4db7-b032-5f354010c95c"
          },
          {
            "reference": "urn:uuid:6e12eee7-734b-4eb4-a3ae-bcc653f80f27"
          },
          {
            "reference": "urn:uuid:f22322b6-7078-4745-9761-688555a536db"
          },
          {
            "reference": "urn:uuid:44505caf-4fc3-481c-9035-445369e6ccff"
          },
          {
            "reference": "urn:uuid:b011f183-cefb-41a3-bf3a-2cd1ea9084c6"
          },
          {
            "reference": "urn:uuid:2882e302-fb87-4c9e-a9dd-f27f7fd57595"
          },
          {
            "reference": "urn:uuid:46b96ce4-221e-4a7f-9855-6e9cec43c9d7"
          },
          {
            "reference": "urn:uuid:d2475691-7753-415c-bca4-8f6a1b123cef"
          },
          {
            "reference": "urn:uuid:5079d715-2e96-407e-80b6-4afed0536e90"
          },
          {
            "reference": "urn:uuid:90e5b39a-16f8-42e8-a617-b0677f652505"
          },
          {
            "reference": "urn:uuid:f27202f7-4b9f-4dd6-a2b4-0330358e7f91"
          },
          {
            "reference": "urn:uuid:e016ee2b-d867-4335-aa6e-3377d9449153"
          },
          {
            "reference": "urn:uuid:24b88648-d895-4d3e-b3f5-e233373323bd"
          },
          {
            "reference": "urn:uuid:9401162b-db0a-411c-a5ea-9291f545cefa"
          },
          {
            "reference": "urn:uuid:8707d95c-5b76-4553-99c9-b13462e4c82c"
          },
          {
            "reference": "urn:uuid:81da3400-1d02-4ffb-ac2d-c3fcf058f228"
          }
        ],
        "status": "registered",
        "code": {
          "coding": [
            {
              "code": "11502-2",
              "system": "http://loinc.org",
              "display": "Laboratory report"
            }
          ]
        },
        "subject": {
          "reference": "urn:uuid:bd8f54a4-8434-443c-be50-7b66d5130675",
          "display": "Iva Kratochvílová"
        }
      }
    },
    {
      "fullUrl": "urn:uuid:bd8f54a4-8434-443c-be50-7b66d5130675",
      "resource": {
        "resourceType": "Patient",
        "id": "bd8f54a4-8434-443c-be50-7b66d5130675",
        "meta": {
          "security": [
            {
              "system": "http://terminology.hl7.org/CodeSystem/v3-ActReason",
              "code": "HTEST"
            },
            {
              "system": "http://terminology.hl7.org/CodeSystem/v3-ActReason",
              "code": "TRAIN"
            }
          ],
          "tag": [
            {
              "system": "https://synderai.net/fhir/CodeSystem/tags",
              "code": "synthetic",
              "display": "SYNDERAI Synthetic data"
            }
          ],
          "profile": [
            "http://hl7.eu/fhir/base/StructureDefinition/patient-eu-core"
          ]
        },
        "identifier": [
          {
            "type": {
              "coding": [
                {
                  "code": "PT",
                  "system": "http://terminology.hl7.org/CodeSystem/v2-0203"
                }
              ]
            },
            "system": "http://ec.europa.eu/identifier/eci",
            "value": "4380-389488-0"
          },
          {
            "type": {
              "coding": [
                {
                  "code": "MR",
                  "system": "http://terminology.hl7.org/CodeSystem/v2-0203"
                }
              ]
            },
            "system": "http://local.setting.eu/identifier",
            "value": "f8f9ebdc-03dd-2fc0-819c-affa4ffd7f67"
          }
        ],
        "name": [
          {
            "family": "Kratochvílová"
          },
          {
            "given": [
              "Iva"
            ]
          },
          {
            "text": "Iva Kratochvílová"
          }
        ],
        "address": [
          {
            "line": [
              "Žofie Podlipské 4"
            ],
            "use": "home",
            "type": "physical",
            "postalCode": "27324",
            "city": "Postoloprty",
            "country": "Czechia"
          }
        ],
        "telecom": [
          {
            "system": "phone",
            "value": "00420 607 985 072"
          }
        ],
        "extension": [
          {
            "url": "http://hl7.org/fhir/StructureDefinition/patient-nationality",
            "valueCodeableConcept": {
              "coding": [
                {
                  "code": "CZ",
                  "system": "http://hl7.org/fhir/ValueSet/country"
                }
              ]
            }
          }
        ],
        "text": {
          "status": "generated",
          "div": "<div xmlns=\"http://www.w3.org/1999/xhtml\"><table class=\"hl7__ips\"><tr><td>Iva Kratochvílová</td><td>female</td><td>17-Sep-1964</td></tr></table></div>"
        },
        "gender": "female",
        "birthDate": "1964-09-17"
      }
    },
    {
      "fullUrl": "urn:uuid:d68d582a-4abc-48b6-b105-5eef6296023b",
      "resource": {
        "resourceType": "ServiceRequest",
        "id": "d68d582a-4abc-48b6-b105-5eef6296023b",
        "meta": {
          "profile": [
            "http://hl7.eu/fhir/laboratory/StructureDefinition/ServiceRequest-eu-lab"
          ]
        },
        "identifier": [
          {
            "system": "http://example.org",
            "value": "c8b63980-3569-4405-af25-262db861edc4"
          }
        ],
        "specimen": [
          {
            "reference": "urn:uuid:a19c3720-c856-4e34-85f7-e1fef10506f4"
          },
          {
            "reference": "urn:uuid:046ecabe-01b1-4fbb-96e5-fc8ee98e4845"
          },
          {
            "reference": "urn:uuid:6b848eef-0527-474e-b470-5ad0009a6324"
          }
        ],
        "reasonCode": [
          {
            "coding": [
              {
                "code": "431856006",
                "system": "http://snomed.info/sct",
                "display": "Chronic kidney disease stage 2"
              }
            ]
          },
          {
            "coding": [
              {
                "code": "431855005",
                "system": "http://snomed.info/sct",
                "display": "Chronic kidney disease stage 1"
              }
            ]
          },
          {
            "coding": [
              {
                "code": "237602007",
                "system": "http://snomed.info/sct",
                "display": "Metabolic syndrome X"
              }
            ]
          },
          {
            "coding": [
              {
                "code": "91302008",
                "system": "http://snomed.info/sct",
                "display": "Sepsis"
              }
            ]
          },
          {
            "coding": [
              {
                "code": "271737000",
                "system": "http://snomed.info/sct",
                "display": "Anemia"
              }
            ]
          },
          {
            "coding": [
              {
                "code": "15777000",
                "system": "http://snomed.info/sct",
                "display": "Prediabetes"
              }
            ]
          },
          {
            "coding": [
              {
                "code": "157141000119108",
                "system": "http://snomed.info/sct",
                "display": "Proteinuria due to type 2 diabetes mellitus"
              }
            ]
          },
          {
            "coding": [
              {
                "code": "90781000119102",
                "system": "http://snomed.info/sct",
                "display": "Microalbuminuria due to type 2 diabetes mellitus"
              }
            ]
          },
          {
            "coding": [
              {
                "code": "239872002",
                "system": "http://snomed.info/sct",
                "display": "Osteoarthritis of hip"
              }
            ]
          },
          {
            "coding": [
              {
                "code": "40055000",
                "system": "http://snomed.info/sct",
                "display": "Chronic sinusitis"
              }
            ]
          },
          {
            "coding": [
              {
                "code": "127013003",
                "system": "http://snomed.info/sct",
                "display": "Disorder of kidney due to diabetes mellitus"
              }
            ]
          },
          {
            "coding": [
              {
                "code": "59621000",
                "system": "http://snomed.info/sct",
                "display": "Essential hypertension"
              }
            ]
          }
        ],
        "status": "active",
        "intent": "order",
        "code": {
          "coding": [
            {
              "code": "108252007",
              "system": "http://snomed.info/sct",
              "display": "Laboratory procedure"
            }
          ]
        },
        "subject": {
          "reference": "urn:uuid:bd8f54a4-8434-443c-be50-7b66d5130675",
          "display": "Iva Kratochvílová"
        },
        "requester": {
          "reference": "urn:uuid:e4a4f3af-5685-45e6-9178-6f354d5b23df"
        }
      }
    },
    {
      "fullUrl": "urn:uuid:e4a4f3af-5685-45e6-9178-6f354d5b23df",
      "resource": {
        "resourceType": "PractitionerRole",
        "id": "e4a4f3af-5685-45e6-9178-6f354d5b23df",
        "meta": {
          "profile": [
            "http://hl7.eu/fhir/base/StructureDefinition/practitionerRole-eu"
          ]
        },
        "text": {
          "status": "generated",
          "div": "<div xmlns=\"http://www.w3.org/1999/xhtml\">Provider Role Id: e4a4f3af-5685-45e6-9178-6f354d5b23df</div>"
        },
        "organization": {
          "reference": "urn:uuid:5c9d92b7-b838-40e0-822b-64610ae352b0"
        }
      }
    },
    {
      "fullUrl": "urn:uuid:5c9d92b7-b838-40e0-822b-64610ae352b0",
      "resource": {
        "resourceType": "Organization",
        "id": "5c9d92b7-b838-40e0-822b-64610ae352b0",
        "meta": {
          "profile": [
            "http://hl7.eu/fhir/base/StructureDefinition/organization-eu"
          ]
        },
        "identifier": [
          {
            "assigner": {
              "display": "HL7 Europe"
            },
            "system": "urn:oid:2.16.840.1.113883.2.51.999",
            "value": "1f09e575-eb2a-4cd0-ba38-83b6b5527d15"
          }
        ],
        "address": [
          {
            "city": "Kadaň",
            "postalCode": "432 01",
            "country": "Czechia"
          }
        ],
        "text": {
          "status": "generated",
          "div": "<div xmlns=\"http://www.w3.org/1999/xhtml\">Provider Organization: Nemocnice s poliklinikou Kadaň</div>"
        },
        "name": "Nemocnice s poliklinikou Kadaň"
      }
    },
    {
      "fullUrl": "urn:uuid:a19c3720-c856-4e34-85f7-e1fef10506f4",
      "resource": {
        "resourceType": "Specimen",
        "id": "a19c3720-c856-4e34-85f7-e1fef10506f4",
        "meta": {
          "profile": [
            "http://hl7.eu/fhir/laboratory/StructureDefinition/Specimen-eu-lab"
          ]
        },
        "collection": {
          "collectedDateTime": "2022-01-09"
        },
        "text": {
          "status": "generated",
          "div": "<div xmlns=\"http://www.w3.org/1999/xhtml\"><table class=\"hl7__eu__lab__report\"><tr><th>Specimen</th><th>Collection Date</th></tr><tr><td>Acellular blood (serum or plasma) specimen</td><td><span class=\"nb\">09-Jan-2022</span></td></tr></table></div>"
        },
        "type": {
          "coding": [
            {
              "code": "122592007",
              "system": "http://snomed.info/sct",
              "display": "Acellular blood (serum or plasma) specimen"
            }
          ]
        }
      }
    },
    {
      "fullUrl": "urn:uuid:046ecabe-01b1-4fbb-96e5-fc8ee98e4845",
      "resource": {
        "resourceType": "Specimen",
        "id": "046ecabe-01b1-4fbb-96e5-fc8ee98e4845",
        "meta": {
          "profile": [
            "http://hl7.eu/fhir/laboratory/StructureDefinition/Specimen-eu-lab"
          ]
        },
        "collection": {
          "collectedDateTime": "2022-01-09"
        },
        "text": {
          "status": "generated",
          "div": "<div xmlns=\"http://www.w3.org/1999/xhtml\"><table class=\"hl7__eu__lab__report\"><tr><th>Specimen</th><th>Collection Date</th></tr><tr><td>Urine specimen</td><td><span class=\"nb\">09-Jan-2022</span></td></tr></table></div>"
        },
        "type": {
          "coding": [
            {
              "code": "122575003",
              "system": "http://snomed.info/sct",
              "display": "Urine specimen"
            }
          ]
        }
      }
    },
    {
      "fullUrl": "urn:uuid:6b848eef-0527-474e-b470-5ad0009a6324",
      "resource": {
        "resourceType": "Specimen",
        "id": "6b848eef-0527-474e-b470-5ad0009a6324",
        "meta": {
          "profile": [
            "http://hl7.eu/fhir/laboratory/StructureDefinition/Specimen-eu-lab"
          ]
        },
        "collection": {
          "collectedDateTime": "2022-01-09"
        },
        "text": {
          "status": "generated",
          "div": "<div xmlns=\"http://www.w3.org/1999/xhtml\"><table class=\"hl7__eu__lab__report\"><tr><th>Specimen</th><th>Collection Date</th></tr><tr><td>Whole blood specimen (specimen)</td><td><span class=\"nb\">09-Jan-2022</span></td></tr></table></div>"
        },
        "type": {
          "coding": [
            {
              "code": "258580003",
              "system": "http://snomed.info/sct",
              "display": "Whole blood specimen (specimen)"
            }
          ]
        }
      }
    },
    {
      "fullUrl": "urn:uuid:1e253d47-22cf-458a-b45f-850206462bd4",
      "resource": {
        "resourceType": "Observation",
        "id": "1e253d47-22cf-458a-b45f-850206462bd4",
        "meta": {
          "profile": [
            "http://hl7.eu/fhir/laboratory/StructureDefinition/Observation-resultslab-eu-lab"
          ]
        },
        "performer": [
          {
            "display": "The Central European Lab"
          }
        ],
        "category": [
          {
            "coding": [
              {
                "system": "http://terminology.hl7.org/CodeSystem/observation-category",
                "code": "laboratory"
              }
            ]
          }
        ],
        "code": {
          "coding": [
            {
              "code": "2345-7",
              "system": "http://loinc.org",
              "display": "Glucose [Mass/volume] in Serum or Plasma"
            }
          ],
          "text": "Glucose [Mass/volume] in Serum or Plasma"
        },
        "valueQuantity": {
          "system": "http://unitsofmeasure.org",
          "value": 76.2,
          "unit": "mg/dL",
          "code": "mg/dL"
        },
        "referenceRange": [
          {
            "low": {
              "value": 70,
              "code": "mg/dL",
              "system": "http://unitsofmeasure.org"
            }
          },
          {
            "high": {
              "value": 99,
              "code": "mg/dL",
              "system": "http://unitsofmeasure.org"
            }
          }
        ],
        "text": {
          "status": "generated",
          "div": "<div xmlns=\"http://www.w3.org/1999/xhtml\"><table class=\"hl7__eu__lab__report\"><tr><th>Test</th><th>09-Jan-2022</th><th>Reference&#xA0;Range</th><th>Unit</th></tr><tr><td>Glucose [Mass/volume] in Serum or Plasma</td><td>76.2</td><td>70 - 99</td><td></td><td>mg/dL</td></tr></table></div>"
        },
        "status": "final",
        "subject": {
          "reference": "urn:uuid:bd8f54a4-8434-443c-be50-7b66d5130675",
          "display": "Iva Kratochvílová"
        },
        "effectiveDateTime": "2022-01-09T16:10:29Z",
        "specimen": {
          "reference": "urn:uuid:a19c3720-c856-4e34-85f7-e1fef10506f4"
        }
      }
    },
    {
      "fullUrl": "urn:uuid:69b830f6-53e8-4c4e-84f2-b223e0828dc0",
      "resource": {
        "resourceType": "Observation",
        "id": "69b830f6-53e8-4c4e-84f2-b223e0828dc0",
        "meta": {
          "profile": [
            "http://hl7.eu/fhir/laboratory/StructureDefinition/Observation-resultslab-eu-lab"
          ]
        },
        "performer": [
          {
            "display": "The Central European Lab"
          }
        ],
        "category": [
          {
            "coding": [
              {
                "system": "http://terminology.hl7.org/CodeSystem/observation-category",
                "code": "laboratory"
              }
            ]
          }
        ],
        "code": {
          "coding": [
            {
              "code": "3094-0",
              "system": "http://loinc.org",
              "display": "Urea nitrogen [Mass/volume] in Serum or Plasma"
            }
          ],
          "text": "Urea nitrogen [Mass/volume] in Serum or Plasma"
        },
        "valueQuantity": {
          "system": "http://unitsofmeasure.org",
          "value": 17.9,
          "unit": "mg/dL",
          "code": "mg/dL"
        },
        "referenceRange": [
          {
            "low": {
              "value": 7,
              "code": "mg/dL",
              "system": "http://unitsofmeasure.org"
            }
          },
          {
            "high": {
              "value": 20,
              "code": "mg/dL",
              "system": "http://unitsofmeasure.org"
            }
          }
        ],
        "text": {
          "status": "generated",
          "div": "<div xmlns=\"http://www.w3.org/1999/xhtml\"><table class=\"hl7__eu__lab__report\"><tr><th>Test</th><th>09-Jan-2022</th><th>Reference&#xA0;Range</th><th>Unit</th></tr><tr><td>Urea nitrogen [Mass/volume] in Serum or Plasma</td><td>17.9</td><td>7 - 20</td><td></td><td>mg/dL</td></tr></table></div>"
        },
        "status": "final",
        "subject": {
          "reference": "urn:uuid:bd8f54a4-8434-443c-be50-7b66d5130675",
          "display": "Iva Kratochvílová"
        },
        "effectiveDateTime": "2022-01-09T16:10:29Z",
        "specimen": {
          "reference": "urn:uuid:a19c3720-c856-4e34-85f7-e1fef10506f4"
        }
      }
    },
    {
      "fullUrl": "urn:uuid:00f12522-1172-45d8-9548-d409cb4e3e02",
      "resource": {
        "resourceType": "Observation",
        "id": "00f12522-1172-45d8-9548-d409cb4e3e02",
        "meta": {
          "profile": [
            "http://hl7.eu/fhir/laboratory/StructureDefinition/Observation-resultslab-eu-lab"
          ]
        },
        "performer": [
          {
            "display": "The Central European Lab"
          }
        ],
        "category": [
          {
            "coding": [
              {
                "system": "http://terminology.hl7.org/CodeSystem/observation-category",
                "code": "laboratory"
              }
            ]
          }
        ],
        "code": {
          "coding": [
            {
              "code": "2160-0",
              "system": "http://loinc.org",
              "display": "Creatinine [Mass/volume] in Serum or Plasma"
            }
          ],
          "text": "Creatinine [Mass/volume] in Serum or Plasma"
        },
        "valueQuantity": {
          "system": "http://unitsofmeasure.org",
          "value": 1.6,
          "unit": "mg/dL",
          "code": "mg/dL"
        },
        "referenceRange": [
          {
            "low": {
              "value": 0.6,
              "code": "mg/dL",
              "system": "http://unitsofmeasure.org"
            }
          },
          {
            "high": {
              "value": 1.3,
              "code": "mg/dL",
              "system": "http://unitsofmeasure.org"
            }
          }
        ],
        "interpretation": [
          {
            "coding": [
              {
                "code": "H",
                "system": "http://terminology.hl7.org/CodeSystem/v3-ObservationInterpretation",
                "display": "High"
              }
            ]
          }
        ],
        "text": {
          "status": "generated",
          "div": "<div xmlns=\"http://www.w3.org/1999/xhtml\"><table class=\"hl7__eu__lab__report\"><tr><th>Test</th><th>09-Jan-2022</th><th>Reference&#xA0;Range</th><th>Unit</th></tr><tr><td>Creatinine [Mass/volume] in Serum or Plasma</td><td>1.6</td><td>0.6 - 1.3</td><td>H</td><td>mg/dL</td></tr></table></div>"
        },
        "status": "final",
        "subject": {
          "reference": "urn:uuid:bd8f54a4-8434-443c-be50-7b66d5130675",
          "display": "Iva Kratochvílová"
        },
        "effectiveDateTime": "2022-01-09T16:10:29Z",
        "specimen": {
          "reference": "urn:uuid:a19c3720-c856-4e34-85f7-e1fef10506f4"
        }
      }
    },
    {
      "fullUrl": "urn:uuid:438932a3-007e-4f08-837f-104b7dcf7ea0",
      "resource": {
        "resourceType": "Observation",
        "id": "438932a3-007e-4f08-837f-104b7dcf7ea0",
        "meta": {
          "profile": [
            "http://hl7.eu/fhir/laboratory/StructureDefinition/Observation-resultslab-eu-lab"
          ]
        },
        "performer": [
          {
            "display": "The Central European Lab"
          }
        ],
        "category": [
          {
            "coding": [
              {
                "system": "http://terminology.hl7.org/CodeSystem/observation-category",
                "code": "laboratory"
              }
            ]
          }
        ],
        "code": {
          "coding": [
            {
              "code": "17861-6",
              "system": "http://loinc.org",
              "display": "Calcium [Mass/volume] in Serum or Plasma"
            }
          ],
          "text": "Calcium [Mass/volume] in Serum or Plasma"
        },
        "valueQuantity": {
          "system": "http://unitsofmeasure.org",
          "value": 9.6,
          "unit": "mg/dL",
          "code": "mg/dL"
        },
        "referenceRange": [
          {
            "low": {
              "value": 8.6,
              "code": "mg/dL",
              "system": "http://unitsofmeasure.org"
            }
          },
          {
            "high": {
              "value": 10.4,
              "code": "mg/dL",
              "system": "http://unitsofmeasure.org"
            }
          }
        ],
        "text": {
          "status": "generated",
          "div": "<div xmlns=\"http://www.w3.org/1999/xhtml\"><table class=\"hl7__eu__lab__report\"><tr><th>Test</th><th>09-Jan-2022</th><th>Reference&#xA0;Range</th><th>Unit</th></tr><tr><td>Calcium [Mass/volume] in Serum or Plasma</td><td>9.6</td><td>8.6 - 10.4</td><td></td><td>mg/dL</td></tr></table></div>"
        },
        "status": "final",
        "subject": {
          "reference": "urn:uuid:bd8f54a4-8434-443c-be50-7b66d5130675",
          "display": "Iva Kratochvílová"
        },
        "effectiveDateTime": "2022-01-09T16:10:29Z",
        "specimen": {
          "reference": "urn:uuid:a19c3720-c856-4e34-85f7-e1fef10506f4"
        }
      }
    },
    {
      "fullUrl": "urn:uuid:bd35613a-f5ef-47a1-a216-587f85fe5192",
      "resource": {
        "resourceType": "Observation",
        "id": "bd35613a-f5ef-47a1-a216-587f85fe5192",
        "meta": {
          "profile": [
            "http://hl7.eu/fhir/laboratory/StructureDefinition/Observation-resultslab-eu-lab"
          ]
        },
        "performer": [
          {
            "display": "The Central European Lab"
          }
        ],
        "category": [
          {
            "coding": [
              {
                "system": "http://terminology.hl7.org/CodeSystem/observation-category",
                "code": "laboratory"
              }
            ]
          }
        ],
        "code": {
          "coding": [
            {
              "code": "2951-2",
              "system": "http://loinc.org",
              "display": "Sodium [Moles/volume] in Serum or Plasma"
            }
          ],
          "text": "Sodium [Moles/volume] in Serum or Plasma"
        },
        "valueQuantity": {
          "system": "http://unitsofmeasure.org",
          "value": 136.2,
          "unit": "mmol/L",
          "code": "mmol/L"
        },
        "referenceRange": [
          {
            "low": {
              "value": 135,
              "code": "mmol/L",
              "system": "http://unitsofmeasure.org"
            }
          },
          {
            "high": {
              "value": 145,
              "code": "mmol/L",
              "system": "http://unitsofmeasure.org"
            }
          }
        ],
        "text": {
          "status": "generated",
          "div": "<div xmlns=\"http://www.w3.org/1999/xhtml\"><table class=\"hl7__eu__lab__report\"><tr><th>Test</th><th>09-Jan-2022</th><th>Reference&#xA0;Range</th><th>Unit</th></tr><tr><td>Sodium [Moles/volume] in Serum or Plasma</td><td>136.2</td><td>135 - 145</td><td></td><td>mmol/L</td></tr></table></div>"
        },
        "status": "final",
        "subject": {
          "reference": "urn:uuid:bd8f54a4-8434-443c-be50-7b66d5130675",
          "display": "Iva Kratochvílová"
        },
        "effectiveDateTime": "2022-01-09T16:10:29Z",
        "specimen": {
          "reference": "urn:uuid:a19c3720-c856-4e34-85f7-e1fef10506f4"
        }
      }
    },
    {
      "fullUrl": "urn:uuid:a8d586f9-11fa-4187-8f0f-0f4c4ed0c6e4",
      "resource": {
        "resourceType": "Observation",
        "id": "a8d586f9-11fa-4187-8f0f-0f4c4ed0c6e4",
        "meta": {
          "profile": [
            "http://hl7.eu/fhir/laboratory/StructureDefinition/Observation-resultslab-eu-lab"
          ]
        },
        "performer": [
          {
            "display": "The Central European Lab"
          }
        ],
        "category": [
          {
            "coding": [
              {
                "system": "http://terminology.hl7.org/CodeSystem/observation-category",
                "code": "laboratory"
              }
            ]
          }
        ],
        "code": {
          "coding": [
            {
              "code": "2823-3",
              "system": "http://loinc.org",
              "display": "Potassium [Moles/volume] in Serum or Plasma"
            }
          ],
          "text": "Potassium [Moles/volume] in Serum or Plasma"
        },
        "valueQuantity": {
          "system": "http://unitsofmeasure.org",
          "value": 5.1,
          "unit": "mmol/L",
          "code": "mmol/L"
        },
        "referenceRange": [
          {
            "low": {
              "value": 3.5,
              "code": "mmol/L",
              "system": "http://unitsofmeasure.org"
            }
          },
          {
            "high": {
              "value": 5,
              "code": "mmol/L",
              "system": "http://unitsofmeasure.org"
            }
          }
        ],
        "interpretation": [
          {
            "coding": [
              {
                "code": "H",
                "system": "http://terminology.hl7.org/CodeSystem/v3-ObservationInterpretation",
                "display": "High"
              }
            ]
          }
        ],
        "text": {
          "status": "generated",
          "div": "<div xmlns=\"http://www.w3.org/1999/xhtml\"><table class=\"hl7__eu__lab__report\"><tr><th>Test</th><th>09-Jan-2022</th><th>Reference&#xA0;Range</th><th>Unit</th></tr><tr><td>Potassium [Moles/volume] in Serum or Plasma</td><td>5.1</td><td>3.5 - 5</td><td>H</td><td>mmol/L</td></tr></table></div>"
        },
        "status": "final",
        "subject": {
          "reference": "urn:uuid:bd8f54a4-8434-443c-be50-7b66d5130675",
          "display": "Iva Kratochvílová"
        },
        "effectiveDateTime": "2022-01-09T16:10:29Z",
        "specimen": {
          "reference": "urn:uuid:a19c3720-c856-4e34-85f7-e1fef10506f4"
        }
      }
    },
    {
      "fullUrl": "urn:uuid:014e3335-b86b-4c29-bad5-f7d0c2f074c7",
      "resource": {
        "resourceType": "Observation",
        "id": "014e3335-b86b-4c29-bad5-f7d0c2f074c7",
        "meta": {
          "profile": [
            "http://hl7.eu/fhir/laboratory/StructureDefinition/Observation-resultslab-eu-lab"
          ]
        },
        "performer": [
          {
            "display": "The Central European Lab"
          }
        ],
        "category": [
          {
            "coding": [
              {
                "system": "http://terminology.hl7.org/CodeSystem/observation-category",
                "code": "laboratory"
              }
            ]
          }
        ],
        "code": {
          "coding": [
            {
              "code": "2075-0",
              "system": "http://loinc.org",
              "display": "Chloride [Moles/volume] in Serum or Plasma"
            }
          ],
          "text": "Chloride [Moles/volume] in Serum or Plasma"
        },
        "valueQuantity": {
          "system": "http://unitsofmeasure.org",
          "value": 103.5,
          "unit": "mmol/L",
          "code": "mmol/L"
        },
        "referenceRange": [
          {
            "low": {
              "value": 98,
              "code": "mmol/L",
              "system": "http://unitsofmeasure.org"
            }
          },
          {
            "high": {
              "value": 106,
              "code": "mmol/L",
              "system": "http://unitsofmeasure.org"
            }
          }
        ],
        "text": {
          "status": "generated",
          "div": "<div xmlns=\"http://www.w3.org/1999/xhtml\"><table class=\"hl7__eu__lab__report\"><tr><th>Test</th><th>09-Jan-2022</th><th>Reference&#xA0;Range</th><th>Unit</th></tr><tr><td>Chloride [Moles/volume] in Serum or Plasma</td><td>103.5</td><td>98 - 106</td><td></td><td>mmol/L</td></tr></table></div>"
        },
        "status": "final",
        "subject": {
          "reference": "urn:uuid:bd8f54a4-8434-443c-be50-7b66d5130675",
          "display": "Iva Kratochvílová"
        },
        "effectiveDateTime": "2022-01-09T16:10:29Z",
        "specimen": {
          "reference": "urn:uuid:a19c3720-c856-4e34-85f7-e1fef10506f4"
        }
      }
    },
    {
      "fullUrl": "urn:uuid:b7743628-66b5-4ef9-b6f7-11223a035dab",
      "resource": {
        "resourceType": "Observation",
        "id": "b7743628-66b5-4ef9-b6f7-11223a035dab",
        "meta": {
          "profile": [
            "http://hl7.eu/fhir/laboratory/StructureDefinition/Observation-resultslab-eu-lab"
          ]
        },
        "performer": [
          {
            "display": "The Central European Lab"
          }
        ],
        "category": [
          {
            "coding": [
              {
                "system": "http://terminology.hl7.org/CodeSystem/observation-category",
                "code": "laboratory"
              }
            ]
          }
        ],
        "code": {
          "coding": [
            {
              "code": "2028-9",
              "system": "http://loinc.org",
              "display": "Carbon dioxide, total [Moles/volume] in Serum or Plasma"
            }
          ],
          "text": "Carbon dioxide, total [Moles/volume] in Serum or Plasma"
        },
        "valueQuantity": {
          "system": "http://unitsofmeasure.org",
          "value": 21,
          "unit": "mmol/L",
          "code": "mmol/L"
        },
        "referenceRange": [
          {
            "low": {
              "value": 22,
              "code": "mmol/L",
              "system": "http://unitsofmeasure.org"
            }
          },
          {
            "high": {
              "value": 29,
              "code": "mmol/L",
              "system": "http://unitsofmeasure.org"
            }
          }
        ],
        "interpretation": [
          {
            "coding": [
              {
                "code": "L",
                "system": "http://terminology.hl7.org/CodeSystem/v3-ObservationInterpretation",
                "display": "Low"
              }
            ]
          }
        ],
        "text": {
          "status": "generated",
          "div": "<div xmlns=\"http://www.w3.org/1999/xhtml\"><table class=\"hl7__eu__lab__report\"><tr><th>Test</th><th>09-Jan-2022</th><th>Reference&#xA0;Range</th><th>Unit</th></tr><tr><td>Carbon dioxide, total [Moles/volume] in Serum or Plasma</td><td>21.0</td><td>22 - 29</td><td>L</td><td>mmol/L</td></tr></table></div>"
        },
        "status": "final",
        "subject": {
          "reference": "urn:uuid:bd8f54a4-8434-443c-be50-7b66d5130675",
          "display": "Iva Kratochvílová"
        },
        "effectiveDateTime": "2022-01-09T16:10:29Z",
        "specimen": {
          "reference": "urn:uuid:a19c3720-c856-4e34-85f7-e1fef10506f4"
        }
      }
    },
    {
      "fullUrl": "urn:uuid:18affae4-ecb6-4c39-8b46-d481a3211409",
      "resource": {
        "resourceType": "Observation",
        "id": "18affae4-ecb6-4c39-8b46-d481a3211409",
        "meta": {
          "profile": [
            "http://hl7.eu/fhir/laboratory/StructureDefinition/Observation-resultslab-eu-lab"
          ]
        },
        "performer": [
          {
            "display": "The Central European Lab"
          }
        ],
        "category": [
          {
            "coding": [
              {
                "system": "http://terminology.hl7.org/CodeSystem/observation-category",
                "code": "laboratory"
              }
            ]
          }
        ],
        "code": {
          "coding": [
            {
              "code": "5767-9",
              "system": "http://loinc.org",
              "display": "Appearance of Urine"
            }
          ],
          "text": "Appearance of Urine"
        },
        "text": {
          "status": "generated",
          "div": "<div xmlns=\"http://www.w3.org/1999/xhtml\"><table class=\"hl7__eu__lab__report\"><tr><th>Test</th><th>09-Jan-2022</th><th>Reference&#xA0;Range</th><th>Unit</th></tr><tr><td>Appearance of Urine</td></tr></table></div>"
        },
        "status": "final",
        "subject": {
          "reference": "urn:uuid:bd8f54a4-8434-443c-be50-7b66d5130675",
          "display": "Iva Kratochvílová"
        },
        "effectiveDateTime": "2022-01-09T16:10:29Z",
        "specimen": {
          "reference": "urn:uuid:046ecabe-01b1-4fbb-96e5-fc8ee98e4845"
        }
      }
    },
    {
      "fullUrl": "urn:uuid:54163c09-3646-4d14-bbaa-78036c08c408",
      "resource": {
        "resourceType": "Observation",
        "id": "54163c09-3646-4d14-bbaa-78036c08c408",
        "meta": {
          "profile": [
            "http://hl7.eu/fhir/laboratory/StructureDefinition/Observation-resultslab-eu-lab"
          ]
        },
        "performer": [
          {
            "display": "The Central European Lab"
          }
        ],
        "category": [
          {
            "coding": [
              {
                "system": "http://terminology.hl7.org/CodeSystem/observation-category",
                "code": "laboratory"
              }
            ]
          }
        ],
        "code": {
          "coding": [
            {
              "code": "34533-0",
              "system": "http://loinc.org",
              "display": "Odor of Urine"
            }
          ],
          "text": "Odor of Urine"
        },
        "text": {
          "status": "generated",
          "div": "<div xmlns=\"http://www.w3.org/1999/xhtml\"><table class=\"hl7__eu__lab__report\"><tr><th>Test</th><th>09-Jan-2022</th><th>Reference&#xA0;Range</th><th>Unit</th></tr><tr><td>Odor of Urine</td></tr></table></div>"
        },
        "status": "final",
        "subject": {
          "reference": "urn:uuid:bd8f54a4-8434-443c-be50-7b66d5130675",
          "display": "Iva Kratochvílová"
        },
        "effectiveDateTime": "2022-01-09T16:10:29Z",
        "specimen": {
          "reference": "urn:uuid:046ecabe-01b1-4fbb-96e5-fc8ee98e4845"
        }
      }
    },
    {
      "fullUrl": "urn:uuid:24e86394-29aa-41b3-b3d6-fcd2f53a414d",
      "resource": {
        "resourceType": "Observation",
        "id": "24e86394-29aa-41b3-b3d6-fcd2f53a414d",
        "meta": {
          "profile": [
            "http://hl7.eu/fhir/laboratory/StructureDefinition/Observation-resultslab-eu-lab"
          ]
        },
        "performer": [
          {
            "display": "The Central European Lab"
          }
        ],
        "category": [
          {
            "coding": [
              {
                "system": "http://terminology.hl7.org/CodeSystem/observation-category",
                "code": "laboratory"
              }
            ]
          }
        ],
        "code": {
          "coding": [
            {
              "code": "32167-9",
              "system": "http://loinc.org",
              "display": "Clarity of Urine"
            }
          ],
          "text": "Clarity of Urine"
        },
        "text": {
          "status": "generated",
          "div": "<div xmlns=\"http://www.w3.org/1999/xhtml\"><table class=\"hl7__eu__lab__report\"><tr><th>Test</th><th>09-Jan-2022</th><th>Reference&#xA0;Range</th><th>Unit</th></tr><tr><td>Clarity of Urine</td></tr></table></div>"
        },
        "status": "final",
        "subject": {
          "reference": "urn:uuid:bd8f54a4-8434-443c-be50-7b66d5130675",
          "display": "Iva Kratochvílová"
        },
        "effectiveDateTime": "2022-01-09T16:10:29Z",
        "specimen": {
          "reference": "urn:uuid:046ecabe-01b1-4fbb-96e5-fc8ee98e4845"
        }
      }
    },
    {
      "fullUrl": "urn:uuid:4bce25fb-b1af-4ec6-a258-c1837786de75",
      "resource": {
        "resourceType": "Observation",
        "id": "4bce25fb-b1af-4ec6-a258-c1837786de75",
        "meta": {
          "profile": [
            "http://hl7.eu/fhir/laboratory/StructureDefinition/Observation-resultslab-eu-lab"
          ]
        },
        "performer": [
          {
            "display": "The Central European Lab"
          }
        ],
        "category": [
          {
            "coding": [
              {
                "system": "http://terminology.hl7.org/CodeSystem/observation-category",
                "code": "laboratory"
              }
            ]
          }
        ],
        "code": {
          "coding": [
            {
              "code": "5778-6",
              "system": "http://loinc.org",
              "display": "Color of Urine"
            }
          ],
          "text": "Color of Urine"
        },
        "text": {
          "status": "generated",
          "div": "<div xmlns=\"http://www.w3.org/1999/xhtml\"><table class=\"hl7__eu__lab__report\"><tr><th>Test</th><th>09-Jan-2022</th><th>Reference&#xA0;Range</th><th>Unit</th></tr><tr><td>Color of Urine</td></tr></table></div>"
        },
        "status": "final",
        "subject": {
          "reference": "urn:uuid:bd8f54a4-8434-443c-be50-7b66d5130675",
          "display": "Iva Kratochvílová"
        },
        "effectiveDateTime": "2022-01-09T16:10:29Z",
        "specimen": {
          "reference": "urn:uuid:046ecabe-01b1-4fbb-96e5-fc8ee98e4845"
        }
      }
    },
    {
      "fullUrl": "urn:uuid:9c32fa52-c946-4a0f-ac17-4c8ffc6fceae",
      "resource": {
        "resourceType": "Observation",
        "id": "9c32fa52-c946-4a0f-ac17-4c8ffc6fceae",
        "meta": {
          "profile": [
            "http://hl7.eu/fhir/laboratory/StructureDefinition/Observation-resultslab-eu-lab"
          ]
        },
        "performer": [
          {
            "display": "The Central European Lab"
          }
        ],
        "category": [
          {
            "coding": [
              {
                "system": "http://terminology.hl7.org/CodeSystem/observation-category",
                "code": "laboratory"
              }
            ]
          }
        ],
        "code": {
          "coding": [
            {
              "code": "5792-7",
              "system": "http://loinc.org",
              "display": "Glucose [Mass/volume] in Urine by Test strip"
            }
          ],
          "text": "Glucose [Mass/volume] in Urine by Test strip"
        },
        "valueQuantity": {
          "system": "http://unitsofmeasure.org",
          "value": 0.9,
          "unit": "mg/dL",
          "code": "mg/dL"
        },
        "referenceRange": [
          {
            "low": {
              "value": 0,
              "code": "mg/dL",
              "system": "http://unitsofmeasure.org"
            }
          },
          {
            "high": {
              "value": 0.8,
              "code": "mg/dL",
              "system": "http://unitsofmeasure.org"
            }
          }
        ],
        "interpretation": [
          {
            "coding": [
              {
                "code": "H",
                "system": "http://terminology.hl7.org/CodeSystem/v3-ObservationInterpretation",
                "display": "High"
              }
            ]
          }
        ],
        "text": {
          "status": "generated",
          "div": "<div xmlns=\"http://www.w3.org/1999/xhtml\"><table class=\"hl7__eu__lab__report\"><tr><th>Test</th><th>09-Jan-2022</th><th>Reference&#xA0;Range</th><th>Unit</th></tr><tr><td>Glucose [Mass/volume] in Urine by Test strip</td><td>0.9</td><td>0 - 0.8</td><td>H</td><td>mg/dL</td></tr></table></div>"
        },
        "status": "final",
        "subject": {
          "reference": "urn:uuid:bd8f54a4-8434-443c-be50-7b66d5130675",
          "display": "Iva Kratochvílová"
        },
        "effectiveDateTime": "2022-01-09T16:10:29Z",
        "specimen": {
          "reference": "urn:uuid:046ecabe-01b1-4fbb-96e5-fc8ee98e4845"
        }
      }
    },
    {
      "fullUrl": "urn:uuid:5122c9ff-2355-41c2-ba00-3a62ea45ed50",
      "resource": {
        "resourceType": "Observation",
        "id": "5122c9ff-2355-41c2-ba00-3a62ea45ed50",
        "meta": {
          "profile": [
            "http://hl7.eu/fhir/laboratory/StructureDefinition/Observation-resultslab-eu-lab"
          ]
        },
        "performer": [
          {
            "display": "The Central European Lab"
          }
        ],
        "category": [
          {
            "coding": [
              {
                "system": "http://terminology.hl7.org/CodeSystem/observation-category",
                "code": "laboratory"
              }
            ]
          }
        ],
        "code": {
          "coding": [
            {
              "code": "25428-4",
              "system": "http://loinc.org",
              "display": "Glucose [Presence] in Urine by Test strip"
            }
          ],
          "text": "Glucose [Presence] in Urine by Test strip"
        },
        "text": {
          "status": "generated",
          "div": "<div xmlns=\"http://www.w3.org/1999/xhtml\"><table class=\"hl7__eu__lab__report\"><tr><th>Test</th><th>09-Jan-2022</th><th>Reference&#xA0;Range</th><th>Unit</th></tr><tr><td>Glucose [Presence] in Urine by Test strip</td></tr></table></div>"
        },
        "status": "final",
        "subject": {
          "reference": "urn:uuid:bd8f54a4-8434-443c-be50-7b66d5130675",
          "display": "Iva Kratochvílová"
        },
        "effectiveDateTime": "2022-01-09T16:10:29Z",
        "specimen": {
          "reference": "urn:uuid:046ecabe-01b1-4fbb-96e5-fc8ee98e4845"
        }
      }
    },
    {
      "fullUrl": "urn:uuid:120da216-2ab7-497e-b2ed-1f36709af95f",
      "resource": {
        "resourceType": "Observation",
        "id": "120da216-2ab7-497e-b2ed-1f36709af95f",
        "meta": {
          "profile": [
            "http://hl7.eu/fhir/laboratory/StructureDefinition/Observation-resultslab-eu-lab"
          ]
        },
        "performer": [
          {
            "display": "The Central European Lab"
          }
        ],
        "category": [
          {
            "coding": [
              {
                "system": "http://terminology.hl7.org/CodeSystem/observation-category",
                "code": "laboratory"
              }
            ]
          }
        ],
        "code": {
          "coding": [
            {
              "code": "20505-4",
              "system": "http://loinc.org",
              "display": "Bilirubin.total [Mass/volume] in Urine by Test strip"
            }
          ],
          "text": "Bilirubin.total [Mass/volume] in Urine by Test strip"
        },
        "valueQuantity": {
          "system": "http://unitsofmeasure.org",
          "value": 1.3,
          "unit": "mg/dL",
          "code": "mg/dL"
        },
        "referenceRange": [
          {
            "low": {
              "value": 0,
              "code": "mg/dL",
              "system": "http://unitsofmeasure.org"
            }
          },
          {
            "high": {
              "value": 1,
              "code": "mg/dL",
              "system": "http://unitsofmeasure.org"
            }
          }
        ],
        "interpretation": [
          {
            "coding": [
              {
                "code": "H",
                "system": "http://terminology.hl7.org/CodeSystem/v3-ObservationInterpretation",
                "display": "High"
              }
            ]
          }
        ],
        "text": {
          "status": "generated",
          "div": "<div xmlns=\"http://www.w3.org/1999/xhtml\"><table class=\"hl7__eu__lab__report\"><tr><th>Test</th><th>09-Jan-2022</th><th>Reference&#xA0;Range</th><th>Unit</th></tr><tr><td>Bilirubin.total [Mass/volume] in Urine by Test strip</td><td>1.3</td><td>0 - 1</td><td>H</td><td>mg/dL</td></tr></table></div>"
        },
        "status": "final",
        "subject": {
          "reference": "urn:uuid:bd8f54a4-8434-443c-be50-7b66d5130675",
          "display": "Iva Kratochvílová"
        },
        "effectiveDateTime": "2022-01-09T16:10:29Z",
        "specimen": {
          "reference": "urn:uuid:046ecabe-01b1-4fbb-96e5-fc8ee98e4845"
        }
      }
    },
    {
      "fullUrl": "urn:uuid:e168937e-62ce-4cfd-9f9f-f4e7d69f2b1b",
      "resource": {
        "resourceType": "Observation",
        "id": "e168937e-62ce-4cfd-9f9f-f4e7d69f2b1b",
        "meta": {
          "profile": [
            "http://hl7.eu/fhir/laboratory/StructureDefinition/Observation-resultslab-eu-lab"
          ]
        },
        "performer": [
          {
            "display": "The Central European Lab"
          }
        ],
        "category": [
          {
            "coding": [
              {
                "system": "http://terminology.hl7.org/CodeSystem/observation-category",
                "code": "laboratory"
              }
            ]
          }
        ],
        "code": {
          "coding": [
            {
              "code": "5770-3",
              "system": "http://loinc.org",
              "display": "Bilirubin.total [Presence] in Urine by Test strip"
            }
          ],
          "text": "Bilirubin.total [Presence] in Urine by Test strip"
        },
        "text": {
          "status": "generated",
          "div": "<div xmlns=\"http://www.w3.org/1999/xhtml\"><table class=\"hl7__eu__lab__report\"><tr><th>Test</th><th>09-Jan-2022</th><th>Reference&#xA0;Range</th><th>Unit</th></tr><tr><td>Bilirubin.total [Presence] in Urine by Test strip</td></tr></table></div>"
        },
        "status": "final",
        "subject": {
          "reference": "urn:uuid:bd8f54a4-8434-443c-be50-7b66d5130675",
          "display": "Iva Kratochvílová"
        },
        "effectiveDateTime": "2022-01-09T16:10:29Z",
        "specimen": {
          "reference": "urn:uuid:046ecabe-01b1-4fbb-96e5-fc8ee98e4845"
        }
      }
    },
    {
      "fullUrl": "urn:uuid:fb2fea77-14a0-47e5-b184-b7a296e366b4",
      "resource": {
        "resourceType": "Observation",
        "id": "fb2fea77-14a0-47e5-b184-b7a296e366b4",
        "meta": {
          "profile": [
            "http://hl7.eu/fhir/laboratory/StructureDefinition/Observation-resultslab-eu-lab"
          ]
        },
        "performer": [
          {
            "display": "The Central European Lab"
          }
        ],
        "category": [
          {
            "coding": [
              {
                "system": "http://terminology.hl7.org/CodeSystem/observation-category",
                "code": "laboratory"
              }
            ]
          }
        ],
        "code": {
          "coding": [
            {
              "code": "5797-6",
              "system": "http://loinc.org",
              "display": "Ketones [Mass/volume] in Urine by Test strip"
            }
          ],
          "text": "Ketones [Mass/volume] in Urine by Test strip"
        },
        "valueQuantity": {
          "system": "http://unitsofmeasure.org",
          "value": 19.3,
          "unit": "mg/dL",
          "code": "mg/dL"
        },
        "referenceRange": [
          {
            "low": {
              "value": 0,
              "code": "mg/dL",
              "system": "http://unitsofmeasure.org"
            }
          },
          {
            "high": {
              "value": 4,
              "code": "mg/dL",
              "system": "http://unitsofmeasure.org"
            }
          }
        ],
        "interpretation": [
          {
            "coding": [
              {
                "code": "H",
                "system": "http://terminology.hl7.org/CodeSystem/v3-ObservationInterpretation",
                "display": "High"
              }
            ]
          }
        ],
        "text": {
          "status": "generated",
          "div": "<div xmlns=\"http://www.w3.org/1999/xhtml\"><table class=\"hl7__eu__lab__report\"><tr><th>Test</th><th>09-Jan-2022</th><th>Reference&#xA0;Range</th><th>Unit</th></tr><tr><td>Ketones [Mass/volume] in Urine by Test strip</td><td>19.3</td><td>0 - 4</td><td>H</td><td>mg/dL</td></tr></table></div>"
        },
        "status": "final",
        "subject": {
          "reference": "urn:uuid:bd8f54a4-8434-443c-be50-7b66d5130675",
          "display": "Iva Kratochvílová"
        },
        "effectiveDateTime": "2022-01-09T16:10:29Z",
        "specimen": {
          "reference": "urn:uuid:046ecabe-01b1-4fbb-96e5-fc8ee98e4845"
        }
      }
    },
    {
      "fullUrl": "urn:uuid:d8219737-d9f7-4833-b603-ab099b76cfd7",
      "resource": {
        "resourceType": "Observation",
        "id": "d8219737-d9f7-4833-b603-ab099b76cfd7",
        "meta": {
          "profile": [
            "http://hl7.eu/fhir/laboratory/StructureDefinition/Observation-resultslab-eu-lab"
          ]
        },
        "performer": [
          {
            "display": "The Central European Lab"
          }
        ],
        "category": [
          {
            "coding": [
              {
                "system": "http://terminology.hl7.org/CodeSystem/observation-category",
                "code": "laboratory"
              }
            ]
          }
        ],
        "code": {
          "coding": [
            {
              "code": "2514-8",
              "system": "http://loinc.org",
              "display": "Ketones [Presence] in Urine by Test strip"
            }
          ],
          "text": "Ketones [Presence] in Urine by Test strip"
        },
        "text": {
          "status": "generated",
          "div": "<div xmlns=\"http://www.w3.org/1999/xhtml\"><table class=\"hl7__eu__lab__report\"><tr><th>Test</th><th>09-Jan-2022</th><th>Reference&#xA0;Range</th><th>Unit</th></tr><tr><td>Ketones [Presence] in Urine by Test strip</td></tr></table></div>"
        },
        "status": "final",
        "subject": {
          "reference": "urn:uuid:bd8f54a4-8434-443c-be50-7b66d5130675",
          "display": "Iva Kratochvílová"
        },
        "effectiveDateTime": "2022-01-09T16:10:29Z",
        "specimen": {
          "reference": "urn:uuid:046ecabe-01b1-4fbb-96e5-fc8ee98e4845"
        }
      }
    },
    {
      "fullUrl": "urn:uuid:3baa765c-e55d-4db7-b032-5f354010c95c",
      "resource": {
        "resourceType": "Observation",
        "id": "3baa765c-e55d-4db7-b032-5f354010c95c",
        "meta": {
          "profile": [
            "http://hl7.eu/fhir/laboratory/StructureDefinition/Observation-resultslab-eu-lab"
          ]
        },
        "performer": [
          {
            "display": "The Central European Lab"
          }
        ],
        "category": [
          {
            "coding": [
              {
                "system": "http://terminology.hl7.org/CodeSystem/observation-category",
                "code": "laboratory"
              }
            ]
          }
        ],
        "code": {
          "coding": [
            {
              "code": "5811-5",
              "system": "http://loinc.org",
              "display": "Specific gravity of Urine by Test strip"
            }
          ],
          "text": "Specific gravity of Urine by Test strip"
        },
        "valueQuantity": {
          "system": "http://unitsofmeasure.org",
          "value": 1,
          "unit": "{nominal}",
          "code": "{nominal}"
        },
        "referenceRange": [
          {
            "low": {
              "value": 1.005,
              "code": "g/mL",
              "system": "http://unitsofmeasure.org"
            }
          },
          {
            "high": {
              "value": 1.03,
              "code": "g/mL",
              "system": "http://unitsofmeasure.org"
            }
          }
        ],
        "interpretation": [
          {
            "coding": [
              {
                "code": "L",
                "system": "http://terminology.hl7.org/CodeSystem/v3-ObservationInterpretation",
                "display": "Low"
              }
            ]
          }
        ],
        "text": {
          "status": "generated",
          "div": "<div xmlns=\"http://www.w3.org/1999/xhtml\"><table class=\"hl7__eu__lab__report\"><tr><th>Test</th><th>09-Jan-2022</th><th>Reference&#xA0;Range</th><th>Unit</th></tr><tr><td>Specific gravity of Urine by Test strip</td><td>1.0</td><td>1.005 - 1.03</td><td>L</td><td>{nominal}</td></tr></table></div>"
        },
        "status": "final",
        "subject": {
          "reference": "urn:uuid:bd8f54a4-8434-443c-be50-7b66d5130675",
          "display": "Iva Kratochvílová"
        },
        "effectiveDateTime": "2022-01-09T16:10:29Z",
        "specimen": {
          "reference": "urn:uuid:046ecabe-01b1-4fbb-96e5-fc8ee98e4845"
        }
      }
    },
    {
      "fullUrl": "urn:uuid:6e12eee7-734b-4eb4-a3ae-bcc653f80f27",
      "resource": {
        "resourceType": "Observation",
        "id": "6e12eee7-734b-4eb4-a3ae-bcc653f80f27",
        "meta": {
          "profile": [
            "http://hl7.eu/fhir/laboratory/StructureDefinition/Observation-resultslab-eu-lab"
          ]
        },
        "performer": [
          {
            "display": "The Central European Lab"
          }
        ],
        "category": [
          {
            "coding": [
              {
                "system": "http://terminology.hl7.org/CodeSystem/observation-category",
                "code": "laboratory"
              }
            ]
          }
        ],
        "code": {
          "coding": [
            {
              "code": "5803-2",
              "system": "http://loinc.org",
              "display": "pH of Urine by Test strip"
            }
          ],
          "text": "pH of Urine by Test strip"
        },
        "valueQuantity": {
          "system": "http://unitsofmeasure.org",
          "value": 5.8,
          "unit": "pH",
          "code": "pH"
        },
        "referenceRange": [
          {
            "low": {
              "value": 4.5,
              "code": "pH",
              "system": "http://unitsofmeasure.org"
            }
          },
          {
            "high": {
              "value": 7,
              "code": "pH",
              "system": "http://unitsofmeasure.org"
            }
          }
        ],
        "text": {
          "status": "generated",
          "div": "<div xmlns=\"http://www.w3.org/1999/xhtml\"><table class=\"hl7__eu__lab__report\"><tr><th>Test</th><th>09-Jan-2022</th><th>Reference&#xA0;Range</th><th>Unit</th></tr><tr><td>pH of Urine by Test strip</td><td>5.8</td><td>4.5 - 7</td><td></td><td>pH</td></tr></table></div>"
        },
        "status": "final",
        "subject": {
          "reference": "urn:uuid:bd8f54a4-8434-443c-be50-7b66d5130675",
          "display": "Iva Kratochvílová"
        },
        "effectiveDateTime": "2022-01-09T16:10:29Z",
        "specimen": {
          "reference": "urn:uuid:046ecabe-01b1-4fbb-96e5-fc8ee98e4845"
        }
      }
    },
    {
      "fullUrl": "urn:uuid:f22322b6-7078-4745-9761-688555a536db",
      "resource": {
        "resourceType": "Observation",
        "id": "f22322b6-7078-4745-9761-688555a536db",
        "meta": {
          "profile": [
            "http://hl7.eu/fhir/laboratory/StructureDefinition/Observation-resultslab-eu-lab"
          ]
        },
        "performer": [
          {
            "display": "The Central European Lab"
          }
        ],
        "category": [
          {
            "coding": [
              {
                "system": "http://terminology.hl7.org/CodeSystem/observation-category",
                "code": "laboratory"
              }
            ]
          }
        ],
        "code": {
          "coding": [
            {
              "code": "5804-0",
              "system": "http://loinc.org",
              "display": "Protein [Mass/volume] in Urine by Test strip"
            }
          ],
          "text": "Protein [Mass/volume] in Urine by Test strip"
        },
        "valueQuantity": {
          "system": "http://unitsofmeasure.org",
          "value": 134.9,
          "unit": "mg/dL",
          "code": "mg/dL"
        },
        "referenceRange": [
          {
            "low": {
              "value": 0,
              "code": "mg/dL",
              "system": "http://unitsofmeasure.org"
            }
          },
          {
            "high": {
              "value": 145,
              "code": "mg/dL",
              "system": "http://unitsofmeasure.org"
            }
          }
        ],
        "text": {
          "status": "generated",
          "div": "<div xmlns=\"http://www.w3.org/1999/xhtml\"><table class=\"hl7__eu__lab__report\"><tr><th>Test</th><th>09-Jan-2022</th><th>Reference&#xA0;Range</th><th>Unit</th></tr><tr><td>Protein [Mass/volume] in Urine by Test strip</td><td>134.9</td><td>0 - 145</td><td></td><td>mg/dL</td></tr></table></div>"
        },
        "status": "final",
        "subject": {
          "reference": "urn:uuid:bd8f54a4-8434-443c-be50-7b66d5130675",
          "display": "Iva Kratochvílová"
        },
        "effectiveDateTime": "2022-01-09T16:10:29Z",
        "specimen": {
          "reference": "urn:uuid:046ecabe-01b1-4fbb-96e5-fc8ee98e4845"
        }
      }
    },
    {
      "fullUrl": "urn:uuid:44505caf-4fc3-481c-9035-445369e6ccff",
      "resource": {
        "resourceType": "Observation",
        "id": "44505caf-4fc3-481c-9035-445369e6ccff",
        "meta": {
          "profile": [
            "http://hl7.eu/fhir/laboratory/StructureDefinition/Observation-resultslab-eu-lab"
          ]
        },
        "performer": [
          {
            "display": "The Central European Lab"
          }
        ],
        "category": [
          {
            "coding": [
              {
                "system": "http://terminology.hl7.org/CodeSystem/observation-category",
                "code": "laboratory"
              }
            ]
          }
        ],
        "code": {
          "coding": [
            {
              "code": "20454-5",
              "system": "http://loinc.org",
              "display": "Protein [Presence] in Urine by Test strip"
            }
          ],
          "text": "Protein [Presence] in Urine by Test strip"
        },
        "text": {
          "status": "generated",
          "div": "<div xmlns=\"http://www.w3.org/1999/xhtml\"><table class=\"hl7__eu__lab__report\"><tr><th>Test</th><th>09-Jan-2022</th><th>Reference&#xA0;Range</th><th>Unit</th></tr><tr><td>Protein [Presence] in Urine by Test strip</td></tr></table></div>"
        },
        "status": "final",
        "subject": {
          "reference": "urn:uuid:bd8f54a4-8434-443c-be50-7b66d5130675",
          "display": "Iva Kratochvílová"
        },
        "effectiveDateTime": "2022-01-09T16:10:29Z",
        "specimen": {
          "reference": "urn:uuid:046ecabe-01b1-4fbb-96e5-fc8ee98e4845"
        }
      }
    },
    {
      "fullUrl": "urn:uuid:b011f183-cefb-41a3-bf3a-2cd1ea9084c6",
      "resource": {
        "resourceType": "Observation",
        "id": "b011f183-cefb-41a3-bf3a-2cd1ea9084c6",
        "meta": {
          "profile": [
            "http://hl7.eu/fhir/laboratory/StructureDefinition/Observation-resultslab-eu-lab"
          ]
        },
        "performer": [
          {
            "display": "The Central European Lab"
          }
        ],
        "category": [
          {
            "coding": [
              {
                "system": "http://terminology.hl7.org/CodeSystem/observation-category",
                "code": "laboratory"
              }
            ]
          }
        ],
        "code": {
          "coding": [
            {
              "code": "5802-4",
              "system": "http://loinc.org",
              "display": "Nitrite [Presence] in Urine by Test strip"
            }
          ],
          "text": "Nitrite [Presence] in Urine by Test strip"
        },
        "text": {
          "status": "generated",
          "div": "<div xmlns=\"http://www.w3.org/1999/xhtml\"><table class=\"hl7__eu__lab__report\"><tr><th>Test</th><th>09-Jan-2022</th><th>Reference&#xA0;Range</th><th>Unit</th></tr><tr><td>Nitrite [Presence] in Urine by Test strip</td></tr></table></div>"
        },
        "status": "final",
        "subject": {
          "reference": "urn:uuid:bd8f54a4-8434-443c-be50-7b66d5130675",
          "display": "Iva Kratochvílová"
        },
        "effectiveDateTime": "2022-01-09T16:10:29Z",
        "specimen": {
          "reference": "urn:uuid:046ecabe-01b1-4fbb-96e5-fc8ee98e4845"
        }
      }
    },
    {
      "fullUrl": "urn:uuid:2882e302-fb87-4c9e-a9dd-f27f7fd57595",
      "resource": {
        "resourceType": "Observation",
        "id": "2882e302-fb87-4c9e-a9dd-f27f7fd57595",
        "meta": {
          "profile": [
            "http://hl7.eu/fhir/laboratory/StructureDefinition/Observation-resultslab-eu-lab"
          ]
        },
        "performer": [
          {
            "display": "The Central European Lab"
          }
        ],
        "category": [
          {
            "coding": [
              {
                "system": "http://terminology.hl7.org/CodeSystem/observation-category",
                "code": "laboratory"
              }
            ]
          }
        ],
        "code": {
          "coding": [
            {
              "code": "5794-3",
              "system": "http://loinc.org",
              "display": "Hemoglobin [Presence] in Urine by Test strip"
            }
          ],
          "text": "Hemoglobin [Presence] in Urine by Test strip"
        },
        "text": {
          "status": "generated",
          "div": "<div xmlns=\"http://www.w3.org/1999/xhtml\"><table class=\"hl7__eu__lab__report\"><tr><th>Test</th><th>09-Jan-2022</th><th>Reference&#xA0;Range</th><th>Unit</th></tr><tr><td>Hemoglobin [Presence] in Urine by Test strip</td></tr></table></div>"
        },
        "status": "final",
        "subject": {
          "reference": "urn:uuid:bd8f54a4-8434-443c-be50-7b66d5130675",
          "display": "Iva Kratochvílová"
        },
        "effectiveDateTime": "2022-01-09T16:10:29Z",
        "specimen": {
          "reference": "urn:uuid:046ecabe-01b1-4fbb-96e5-fc8ee98e4845"
        }
      }
    },
    {
      "fullUrl": "urn:uuid:46b96ce4-221e-4a7f-9855-6e9cec43c9d7",
      "resource": {
        "resourceType": "Observation",
        "id": "46b96ce4-221e-4a7f-9855-6e9cec43c9d7",
        "meta": {
          "profile": [
            "http://hl7.eu/fhir/laboratory/StructureDefinition/Observation-resultslab-eu-lab"
          ]
        },
        "performer": [
          {
            "display": "The Central European Lab"
          }
        ],
        "category": [
          {
            "coding": [
              {
                "system": "http://terminology.hl7.org/CodeSystem/observation-category",
                "code": "laboratory"
              }
            ]
          }
        ],
        "code": {
          "coding": [
            {
              "code": "5799-2",
              "system": "http://loinc.org",
              "display": "Leukocyte esterase [Presence] in Urine by Test strip"
            }
          ],
          "text": "Leukocyte esterase [Presence] in Urine by Test strip"
        },
        "text": {
          "status": "generated",
          "div": "<div xmlns=\"http://www.w3.org/1999/xhtml\"><table class=\"hl7__eu__lab__report\"><tr><th>Test</th><th>09-Jan-2022</th><th>Reference&#xA0;Range</th><th>Unit</th></tr><tr><td>Leukocyte esterase [Presence] in Urine by Test strip</td></tr></table></div>"
        },
        "status": "final",
        "subject": {
          "reference": "urn:uuid:bd8f54a4-8434-443c-be50-7b66d5130675",
          "display": "Iva Kratochvílová"
        },
        "effectiveDateTime": "2022-01-09T16:10:29Z",
        "specimen": {
          "reference": "urn:uuid:046ecabe-01b1-4fbb-96e5-fc8ee98e4845"
        }
      }
    },
    {
      "fullUrl": "urn:uuid:d2475691-7753-415c-bca4-8f6a1b123cef",
      "resource": {
        "resourceType": "Observation",
        "id": "d2475691-7753-415c-bca4-8f6a1b123cef",
        "meta": {
          "profile": [
            "http://hl7.eu/fhir/laboratory/StructureDefinition/Observation-resultslab-eu-lab"
          ]
        },
        "performer": [
          {
            "display": "The Central European Lab"
          }
        ],
        "category": [
          {
            "coding": [
              {
                "system": "http://terminology.hl7.org/CodeSystem/observation-category",
                "code": "laboratory"
              }
            ]
          }
        ],
        "code": {
          "coding": [
            {
              "code": "4548-4",
              "system": "http://loinc.org",
              "display": "Hemoglobin A1c/Hemoglobin.total in Blood"
            }
          ],
          "text": "Hemoglobin A1c/Hemoglobin.total in Blood"
        },
        "valueQuantity": {
          "system": "http://unitsofmeasure.org",
          "value": 3.3,
          "unit": "%",
          "code": "%"
        },
        "referenceRange": [
          {
            "low": {
              "value": 4,
              "code": "%",
              "system": "http://unitsofmeasure.org"
            }
          },
          {
            "high": {
              "value": 6,
              "code": "%",
              "system": "http://unitsofmeasure.org"
            }
          }
        ],
        "interpretation": [
          {
            "coding": [
              {
                "code": "L",
                "system": "http://terminology.hl7.org/CodeSystem/v3-ObservationInterpretation",
                "display": "Low"
              }
            ]
          }
        ],
        "text": {
          "status": "generated",
          "div": "<div xmlns=\"http://www.w3.org/1999/xhtml\"><table class=\"hl7__eu__lab__report\"><tr><th>Test</th><th>09-Jan-2022</th><th>Reference&#xA0;Range</th><th>Unit</th></tr><tr><td>Hemoglobin A1c/Hemoglobin.total in Blood</td><td>3.3</td><td>4 - 6</td><td>L</td><td>%</td></tr></table></div>"
        },
        "status": "final",
        "subject": {
          "reference": "urn:uuid:bd8f54a4-8434-443c-be50-7b66d5130675",
          "display": "Iva Kratochvílová"
        },
        "effectiveDateTime": "2022-01-09T16:10:29Z",
        "specimen": {
          "reference": "urn:uuid:6b848eef-0527-474e-b470-5ad0009a6324"
        }
      }
    },
    {
      "fullUrl": "urn:uuid:5079d715-2e96-407e-80b6-4afed0536e90",
      "resource": {
        "resourceType": "Observation",
        "id": "5079d715-2e96-407e-80b6-4afed0536e90",
        "meta": {
          "profile": [
            "http://hl7.eu/fhir/laboratory/StructureDefinition/Observation-resultslab-eu-lab"
          ]
        },
        "performer": [
          {
            "display": "The Central European Lab"
          }
        ],
        "category": [
          {
            "coding": [
              {
                "system": "http://terminology.hl7.org/CodeSystem/observation-category",
                "code": "laboratory"
              }
            ]
          }
        ],
        "code": {
          "coding": [
            {
              "code": "2339-0",
              "system": "http://loinc.org",
              "display": "Glucose [Mass/volume] in Blood"
            }
          ],
          "text": "Glucose [Mass/volume] in Blood"
        },
        "valueQuantity": {
          "system": "http://unitsofmeasure.org",
          "value": 76.2,
          "unit": "mg/dL",
          "code": "mg/dL"
        },
        "referenceRange": [
          {
            "low": {
              "value": 70,
              "code": "mg/dL",
              "system": "http://unitsofmeasure.org"
            }
          },
          {
            "high": {
              "value": 140,
              "code": "mg/dL",
              "system": "http://unitsofmeasure.org"
            }
          }
        ],
        "text": {
          "status": "generated",
          "div": "<div xmlns=\"http://www.w3.org/1999/xhtml\"><table class=\"hl7__eu__lab__report\"><tr><th>Test</th><th>09-Jan-2022</th><th>Reference&#xA0;Range</th><th>Unit</th></tr><tr><td>Glucose [Mass/volume] in Blood</td><td>76.2</td><td>70 - 140</td><td></td><td>mg/dL</td></tr></table></div>"
        },
        "status": "final",
        "subject": {
          "reference": "urn:uuid:bd8f54a4-8434-443c-be50-7b66d5130675",
          "display": "Iva Kratochvílová"
        },
        "effectiveDateTime": "2022-01-09T16:10:29Z",
        "specimen": {
          "reference": "urn:uuid:6b848eef-0527-474e-b470-5ad0009a6324"
        }
      }
    },
    {
      "fullUrl": "urn:uuid:90e5b39a-16f8-42e8-a617-b0677f652505",
      "resource": {
        "resourceType": "Observation",
        "id": "90e5b39a-16f8-42e8-a617-b0677f652505",
        "meta": {
          "profile": [
            "http://hl7.eu/fhir/laboratory/StructureDefinition/Observation-resultslab-eu-lab"
          ]
        },
        "performer": [
          {
            "display": "The Central European Lab"
          }
        ],
        "category": [
          {
            "coding": [
              {
                "system": "http://terminology.hl7.org/CodeSystem/observation-category",
                "code": "laboratory"
              }
            ]
          }
        ],
        "code": {
          "coding": [
            {
              "code": "6299-2",
              "system": "http://loinc.org",
              "display": "Urea nitrogen [Mass/volume] in Blood"
            }
          ],
          "text": "Urea nitrogen [Mass/volume] in Blood"
        },
        "valueQuantity": {
          "system": "http://unitsofmeasure.org",
          "value": 17.9,
          "unit": "mg/dL",
          "code": "mg/dL"
        },
        "referenceRange": [
          {
            "low": {
              "value": 7,
              "code": "mg/dL",
              "system": "http://unitsofmeasure.org"
            }
          },
          {
            "high": {
              "value": 25,
              "code": "mg/dL",
              "system": "http://unitsofmeasure.org"
            }
          }
        ],
        "text": {
          "status": "generated",
          "div": "<div xmlns=\"http://www.w3.org/1999/xhtml\"><table class=\"hl7__eu__lab__report\"><tr><th>Test</th><th>09-Jan-2022</th><th>Reference&#xA0;Range</th><th>Unit</th></tr><tr><td>Urea nitrogen [Mass/volume] in Blood</td><td>17.9</td><td>7 - 25</td><td></td><td>mg/dL</td></tr></table></div>"
        },
        "status": "final",
        "subject": {
          "reference": "urn:uuid:bd8f54a4-8434-443c-be50-7b66d5130675",
          "display": "Iva Kratochvílová"
        },
        "effectiveDateTime": "2022-01-09T16:10:29Z",
        "specimen": {
          "reference": "urn:uuid:6b848eef-0527-474e-b470-5ad0009a6324"
        }
      }
    },
    {
      "fullUrl": "urn:uuid:f27202f7-4b9f-4dd6-a2b4-0330358e7f91",
      "resource": {
        "resourceType": "Observation",
        "id": "f27202f7-4b9f-4dd6-a2b4-0330358e7f91",
        "meta": {
          "profile": [
            "http://hl7.eu/fhir/laboratory/StructureDefinition/Observation-resultslab-eu-lab"
          ]
        },
        "performer": [
          {
            "display": "The Central European Lab"
          }
        ],
        "category": [
          {
            "coding": [
              {
                "system": "http://terminology.hl7.org/CodeSystem/observation-category",
                "code": "laboratory"
              }
            ]
          }
        ],
        "code": {
          "coding": [
            {
              "code": "38483-4",
              "system": "http://loinc.org",
              "display": "Creatinine [Mass/volume] in Blood"
            }
          ],
          "text": "Creatinine [Mass/volume] in Blood"
        },
        "valueQuantity": {
          "system": "http://unitsofmeasure.org",
          "value": 1.2,
          "unit": "mg/dL",
          "code": "mg/dL"
        },
        "referenceRange": [
          {
            "low": {
              "value": 0.6,
              "code": "mg/dL",
              "system": "http://unitsofmeasure.org"
            }
          },
          {
            "high": {
              "value": 1.1,
              "code": "mg/dL",
              "system": "http://unitsofmeasure.org"
            }
          }
        ],
        "interpretation": [
          {
            "coding": [
              {
                "code": "H",
                "system": "http://terminology.hl7.org/CodeSystem/v3-ObservationInterpretation",
                "display": "High"
              }
            ]
          }
        ],
        "text": {
          "status": "generated",
          "div": "<div xmlns=\"http://www.w3.org/1999/xhtml\"><table class=\"hl7__eu__lab__report\"><tr><th>Test</th><th>09-Jan-2022</th><th>Reference&#xA0;Range</th><th>Unit</th></tr><tr><td>Creatinine [Mass/volume] in Blood</td><td>1.2</td><td>0.6 - 1.1</td><td>H</td><td>mg/dL</td></tr></table></div>"
        },
        "status": "final",
        "subject": {
          "reference": "urn:uuid:bd8f54a4-8434-443c-be50-7b66d5130675",
          "display": "Iva Kratochvílová"
        },
        "effectiveDateTime": "2022-01-09T16:10:29Z",
        "specimen": {
          "reference": "urn:uuid:6b848eef-0527-474e-b470-5ad0009a6324"
        }
      }
    },
    {
      "fullUrl": "urn:uuid:e016ee2b-d867-4335-aa6e-3377d9449153",
      "resource": {
        "resourceType": "Observation",
        "id": "e016ee2b-d867-4335-aa6e-3377d9449153",
        "meta": {
          "profile": [
            "http://hl7.eu/fhir/laboratory/StructureDefinition/Observation-resultslab-eu-lab"
          ]
        },
        "performer": [
          {
            "display": "The Central European Lab"
          }
        ],
        "category": [
          {
            "coding": [
              {
                "system": "http://terminology.hl7.org/CodeSystem/observation-category",
                "code": "laboratory"
              }
            ]
          }
        ],
        "code": {
          "coding": [
            {
              "code": "49765-1",
              "system": "http://loinc.org",
              "display": "Calcium [Mass/volume] in Blood"
            }
          ],
          "text": "Calcium [Mass/volume] in Blood"
        },
        "valueQuantity": {
          "system": "http://unitsofmeasure.org",
          "value": 9.6,
          "unit": "mg/dL",
          "code": "mg/dL"
        },
        "referenceRange": [
          {
            "low": {
              "value": 8.6,
              "code": "mg/dL",
              "system": "http://unitsofmeasure.org"
            }
          },
          {
            "high": {
              "value": 10.4,
              "code": "mg/dL",
              "system": "http://unitsofmeasure.org"
            }
          }
        ],
        "text": {
          "status": "generated",
          "div": "<div xmlns=\"http://www.w3.org/1999/xhtml\"><table class=\"hl7__eu__lab__report\"><tr><th>Test</th><th>09-Jan-2022</th><th>Reference&#xA0;Range</th><th>Unit</th></tr><tr><td>Calcium [Mass/volume] in Blood</td><td>9.6</td><td>8.6 - 10.4</td><td></td><td>mg/dL</td></tr></table></div>"
        },
        "status": "final",
        "subject": {
          "reference": "urn:uuid:bd8f54a4-8434-443c-be50-7b66d5130675",
          "display": "Iva Kratochvílová"
        },
        "effectiveDateTime": "2022-01-09T16:10:29Z",
        "specimen": {
          "reference": "urn:uuid:6b848eef-0527-474e-b470-5ad0009a6324"
        }
      }
    },
    {
      "fullUrl": "urn:uuid:24b88648-d895-4d3e-b3f5-e233373323bd",
      "resource": {
        "resourceType": "Observation",
        "id": "24b88648-d895-4d3e-b3f5-e233373323bd",
        "meta": {
          "profile": [
            "http://hl7.eu/fhir/laboratory/StructureDefinition/Observation-resultslab-eu-lab"
          ]
        },
        "performer": [
          {
            "display": "The Central European Lab"
          }
        ],
        "category": [
          {
            "coding": [
              {
                "system": "http://terminology.hl7.org/CodeSystem/observation-category",
                "code": "laboratory"
              }
            ]
          }
        ],
        "code": {
          "coding": [
            {
              "code": "2947-0",
              "system": "http://loinc.org",
              "display": "Sodium [Moles/volume] in Blood"
            }
          ],
          "text": "Sodium [Moles/volume] in Blood"
        },
        "valueQuantity": {
          "system": "http://unitsofmeasure.org",
          "value": 136.2,
          "unit": "mmol/L",
          "code": "mmol/L"
        },
        "referenceRange": [
          {
            "low": {
              "value": 135,
              "code": "mmol/L",
              "system": "http://unitsofmeasure.org"
            }
          },
          {
            "high": {
              "value": 145,
              "code": "mmol/L",
              "system": "http://unitsofmeasure.org"
            }
          }
        ],
        "text": {
          "status": "generated",
          "div": "<div xmlns=\"http://www.w3.org/1999/xhtml\"><table class=\"hl7__eu__lab__report\"><tr><th>Test</th><th>09-Jan-2022</th><th>Reference&#xA0;Range</th><th>Unit</th></tr><tr><td>Sodium [Moles/volume] in Blood</td><td>136.2</td><td>135 - 145</td><td></td><td>mmol/L</td></tr></table></div>"
        },
        "status": "final",
        "subject": {
          "reference": "urn:uuid:bd8f54a4-8434-443c-be50-7b66d5130675",
          "display": "Iva Kratochvílová"
        },
        "effectiveDateTime": "2022-01-09T16:10:29Z",
        "specimen": {
          "reference": "urn:uuid:6b848eef-0527-474e-b470-5ad0009a6324"
        }
      }
    },
    {
      "fullUrl": "urn:uuid:9401162b-db0a-411c-a5ea-9291f545cefa",
      "resource": {
        "resourceType": "Observation",
        "id": "9401162b-db0a-411c-a5ea-9291f545cefa",
        "meta": {
          "profile": [
            "http://hl7.eu/fhir/laboratory/StructureDefinition/Observation-resultslab-eu-lab"
          ]
        },
        "performer": [
          {
            "display": "The Central European Lab"
          }
        ],
        "category": [
          {
            "coding": [
              {
                "system": "http://terminology.hl7.org/CodeSystem/observation-category",
                "code": "laboratory"
              }
            ]
          }
        ],
        "code": {
          "coding": [
            {
              "code": "6298-4",
              "system": "http://loinc.org",
              "display": "Potassium [Moles/volume] in Blood"
            }
          ],
          "text": "Potassium [Moles/volume] in Blood"
        },
        "valueQuantity": {
          "system": "http://unitsofmeasure.org",
          "value": 5.1,
          "unit": "mmol/L",
          "code": "mmol/L"
        },
        "referenceRange": [
          {
            "low": {
              "value": 3.5,
              "code": "mmol/L",
              "system": "http://unitsofmeasure.org"
            }
          },
          {
            "high": {
              "value": 5.1,
              "code": "mmol/L",
              "system": "http://unitsofmeasure.org"
            }
          }
        ],
        "text": {
          "status": "generated",
          "div": "<div xmlns=\"http://www.w3.org/1999/xhtml\"><table class=\"hl7__eu__lab__report\"><tr><th>Test</th><th>09-Jan-2022</th><th>Reference&#xA0;Range</th><th>Unit</th></tr><tr><td>Potassium [Moles/volume] in Blood</td><td>5.1</td><td>3.5 - 5.1</td><td></td><td>mmol/L</td></tr></table></div>"
        },
        "status": "final",
        "subject": {
          "reference": "urn:uuid:bd8f54a4-8434-443c-be50-7b66d5130675",
          "display": "Iva Kratochvílová"
        },
        "effectiveDateTime": "2022-01-09T16:10:29Z",
        "specimen": {
          "reference": "urn:uuid:6b848eef-0527-474e-b470-5ad0009a6324"
        }
      }
    },
    {
      "fullUrl": "urn:uuid:8707d95c-5b76-4553-99c9-b13462e4c82c",
      "resource": {
        "resourceType": "Observation",
        "id": "8707d95c-5b76-4553-99c9-b13462e4c82c",
        "meta": {
          "profile": [
            "http://hl7.eu/fhir/laboratory/StructureDefinition/Observation-resultslab-eu-lab"
          ]
        },
        "performer": [
          {
            "display": "The Central European Lab"
          }
        ],
        "category": [
          {
            "coding": [
              {
                "system": "http://terminology.hl7.org/CodeSystem/observation-category",
                "code": "laboratory"
              }
            ]
          }
        ],
        "code": {
          "coding": [
            {
              "code": "2069-3",
              "system": "http://loinc.org",
              "display": "Chloride [Moles/volume] in Blood"
            }
          ],
          "text": "Chloride [Moles/volume] in Blood"
        },
        "valueQuantity": {
          "system": "http://unitsofmeasure.org",
          "value": 103.5,
          "unit": "mmol/L",
          "code": "mmol/L"
        },
        "referenceRange": [
          {
            "low": {
              "value": 98,
              "code": "mmol/L",
              "system": "http://unitsofmeasure.org"
            }
          },
          {
            "high": {
              "value": 110,
              "code": "mmol/L",
              "system": "http://unitsofmeasure.org"
            }
          }
        ],
        "text": {
          "status": "generated",
          "div": "<div xmlns=\"http://www.w3.org/1999/xhtml\"><table class=\"hl7__eu__lab__report\"><tr><th>Test</th><th>09-Jan-2022</th><th>Reference&#xA0;Range</th><th>Unit</th></tr><tr><td>Chloride [Moles/volume] in Blood</td><td>103.5</td><td>98 - 110</td><td></td><td>mmol/L</td></tr></table></div>"
        },
        "status": "final",
        "subject": {
          "reference": "urn:uuid:bd8f54a4-8434-443c-be50-7b66d5130675",
          "display": "Iva Kratochvílová"
        },
        "effectiveDateTime": "2022-01-09T16:10:29Z",
        "specimen": {
          "reference": "urn:uuid:6b848eef-0527-474e-b470-5ad0009a6324"
        }
      }
    },
    {
      "fullUrl": "urn:uuid:81da3400-1d02-4ffb-ac2d-c3fcf058f228",
      "resource": {
        "resourceType": "Observation",
        "id": "81da3400-1d02-4ffb-ac2d-c3fcf058f228",
        "meta": {
          "profile": [
            "http://hl7.eu/fhir/laboratory/StructureDefinition/Observation-resultslab-eu-lab"
          ]
        },
        "performer": [
          {
            "display": "The Central European Lab"
          }
        ],
        "category": [
          {
            "coding": [
              {
                "system": "http://terminology.hl7.org/CodeSystem/observation-category",
                "code": "laboratory"
              }
            ]
          }
        ],
        "code": {
          "coding": [
            {
              "code": "20565-8",
              "system": "http://loinc.org",
              "display": "Carbon dioxide, total [Moles/volume] in Blood"
            }
          ],
          "text": "Carbon dioxide, total [Moles/volume] in Blood"
        },
        "valueQuantity": {
          "system": "http://unitsofmeasure.org",
          "value": 21,
          "unit": "mmol/L",
          "code": "mmol/L"
        },
        "referenceRange": [
          {
            "low": {
              "value": 22,
              "code": "mmol/L",
              "system": "http://unitsofmeasure.org"
            }
          },
          {
            "high": {
              "value": 29,
              "code": "mmol/L",
              "system": "http://unitsofmeasure.org"
            }
          }
        ],
        "interpretation": [
          {
            "coding": [
              {
                "code": "L",
                "system": "http://terminology.hl7.org/CodeSystem/v3-ObservationInterpretation",
                "display": "Low"
              }
            ]
          }
        ],
        "text": {
          "status": "generated",
          "div": "<div xmlns=\"http://www.w3.org/1999/xhtml\"><table class=\"hl7__eu__lab__report\"><tr><th>Test</th><th>09-Jan-2022</th><th>Reference&#xA0;Range</th><th>Unit</th></tr><tr><td>Carbon dioxide, total [Moles/volume] in Blood</td><td>21.0</td><td>22 - 29</td><td>L</td><td>mmol/L</td></tr></table></div>"
        },
        "status": "final",
        "subject": {
          "reference": "urn:uuid:bd8f54a4-8434-443c-be50-7b66d5130675",
          "display": "Iva Kratochvílová"
        },
        "effectiveDateTime": "2022-01-09T16:10:29Z",
        "specimen": {
          "reference": "urn:uuid:6b848eef-0527-474e-b470-5ad0009a6324"
        }
      }
    },
    {
      "fullUrl": "urn:uuid:c3c767d4-5ae1-4a73-be6c-fad109802f4f",
      "resource": {
        "resourceType": "Device",
        "id": "c3c767d4-5ae1-4a73-be6c-fad109802f4f",
        "deviceName": [
          {
            "name": "SYNDERAI Synthetic Generator",
            "type": "manufacturer-name"
          }
        ],
        "version": [
          {
            "value": "5.0"
          }
        ],
        "text": {
          "status": "generated",
          "div": "<div xmlns=\"http://www.w3.org/1999/xhtml\">SYNDERAI Synthetic Generator v5.0</div>"
        },
        "status": "active\"",
        "distinctIdentifier": "synderai-generator-50",
        "manufacturer": "SYNDERAI Project"
      }
    },
    {
      "fullUrl": "urn:uuid:85dcc9fc-91d0-427a-84c5-7b0a639654a1",
      "resource": {
        "resourceType": "Provenance",
        "id": "85dcc9fc-91d0-427a-84c5-7b0a639654a1",
        "target": [
          {
            "reference": "Patient/bd8f54a4-8434-443c-be50-7b66d5130675"
          },
          {
            "reference": "Bundle/f44524fc-5df9-4dc7-b3c4-0b15193c1e59"
          },
          {
            "reference": "Composition/d6134a10-bf11-497b-b1fa-d4dec6564ad4"
          },
          {
            "reference": "PractitionerRole/4ca0753c-6467-4d71-8246-8a2728e6c6e3"
          },
          {
            "reference": "Practitioner/1e3f193d-8d2d-4e7c-a9b9-da7faf106e09"
          },
          {
            "reference": "PractitionerRole/e4a4f3af-5685-45e6-9178-6f354d5b23df"
          },
          {
            "reference": "Organization/5c9d92b7-b838-40e0-822b-64610ae352b0"
          }
        ],
        "activity": {
          "text": "Synthetic Example Data Generation"
        },
        "policy": [
          "https://synderai.net/synderai-synthetic-data-policy"
        ],
        "agent": [
          {
            "type": {
              "text": "author"
            },
            "who": {
              "reference": "Device/c3c767d4-5ae1-4a73-be6c-fad109802f4f"
            }
          }
        ],
        "reason": [
          {
            "text": "Interoperability Testing and Training (non-clinical use)"
          }
        ],
        "text": {
          "status": "generated",
          "div": "<div xmlns=\"http://www.w3.org/1999/xhtml\">Provenance for SYNDERAI Synthetic Example Data Resource</div>"
        },
        "recorded": "2022-01-09T17:10:29Z"
      }
    },
    {
      "fullUrl": "urn:uuid:4ca0753c-6467-4d71-8246-8a2728e6c6e3",
      "resource": {
        "resourceType": "PractitionerRole",
        "id": "4ca0753c-6467-4d71-8246-8a2728e6c6e3",
        "meta": {
          "profile": [
            "http://hl7.eu/fhir/base/StructureDefinition/practitionerRole-eu"
          ]
        },
        "text": {
          "status": "generated",
          "div": "<div xmlns=\"http://www.w3.org/1999/xhtml\">Laboratory Role Id: 4ca0753c-6467-4d71-8246-8a2728e6c6e3</div>"
        },
        "practitioner": {
          "reference": "urn:uuid:1e3f193d-8d2d-4e7c-a9b9-da7faf106e09"
        }
      }
    },
    {
      "fullUrl": "urn:uuid:1e3f193d-8d2d-4e7c-a9b9-da7faf106e09",
      "resource": {
        "resourceType": "Practitioner",
        "id": "1e3f193d-8d2d-4e7c-a9b9-da7faf106e09",
        "meta": {
          "profile": [
            "http://hl7.eu/fhir/base/StructureDefinition/practitioner-eu"
          ]
        },
        "identifier": [
          {
            "assigner": {
              "display": "HL7 Europe"
            },
            "system": "urn:oid:2.16.840.1.113883.2.51.999",
            "value": "9166cd56-b122-492e-abba-639d6638c47d"
          }
        ],
        "name": [
          {
            "prefix": [
              "dr"
            ],
            "given": [
              "Ex"
            ],
            "family": "Ample"
          }
        ],
        "address": [
          {
            "line": [
              "Laboratoire Central Européenne",
              "Boulevard du Jardin Botanique 32"
            ],
            "postalCode": "1000",
            "city": "Brussels",
            "country": "Belgium"
          }
        ],
        "text": {
          "status": "generated",
          "div": "<div xmlns=\"http://www.w3.org/1999/xhtml\">Laboratory: Laboratoire Central Européenne, 1000 Brussels, Belgium</div>"
        }
      }
    }
  ],
  "type": "document",
  "timestamp": "2022-01-09T17:10:29Z"
}
