{
  "resourceType": "Bundle",
  "id": "bb09b6c1-5d89-4b69-9400-664170e38431",
  "meta": {
    "profile": [
      "http://hl7.eu/fhir/laboratory/StructureDefinition/Bundle-eu-lab"
    ]
  },
  "identifier": {
    "assigner": {
      "display": "HL7 Europe"
    },
    "system": "urn:oid:2.16.840.1.113883.2.51.999",
    "value": "8a05031f-b784-4ff3-837b-70de2af1727e"
  },
  "entry": [
    {
      "fullUrl": "urn:uuid:30478db3-83fb-4ba2-96fc-87c08115ecd9",
      "resource": {
        "resourceType": "Composition",
        "id": "30478db3-83fb-4ba2-96fc-87c08115ecd9",
        "meta": {
          "profile": [
            "http://hl7.eu/fhir/laboratory/StructureDefinition/Composition-eu-lab"
          ]
        },
        "identifier": {
          "assigner": {
            "display": "HL7 Europe"
          },
          "system": "urn:oid:2.16.840.1.113883.2.51.999",
          "value": "e41dcc41-8c27-4eb0-84f8-c8906a91fd51"
        },
        "author": [
          {
            "reference": "urn:uuid:8aa047d1-ef51-4ff0-8a0e-320f5e8ab0fd"
          }
        ],
        "category": [
          {
            "coding": [
              {
                "code": "26436-6",
                "system": "http://loinc.org",
                "display": "Laboratory studies (set)"
              }
            ]
          }
        ],
        "type": {
          "coding": [
            {
              "code": "11502-2",
              "system": "http://loinc.org",
              "display": "Laboratory report"
            }
          ],
          "text": "Laboratory Report"
        },
        "section": [
          {
            "code": {
              "coding": [
                {
                  "code": "26436-6",
                  "system": "http://loinc.org",
                  "display": "Laboratory studies (set)"
                }
              ],
              "text": "Laboratory studies"
            },
            "section": [
              {
                "code": {
                  "coding": [
                    {
                      "code": "$18719-5",
                      "system": "http://loinc.org",
                      "display": "Chemistry studies (set)"
                    }
                  ],
                  "text": "Chemistry"
                },
                "entry": [
                  {
                    "reference": "urn:uuid:4bdf6efb-e707-431b-9d4e-dfceef39e50e"
                  },
                  {
                    "reference": "urn:uuid:d637fbaf-766b-4016-a4e6-a87d281ce434"
                  },
                  {
                    "reference": "urn:uuid:6d6a989e-d0a4-44ae-8de5-b560ecc1a23b"
                  },
                  {
                    "reference": "urn:uuid:fa855868-1315-4a77-98db-6c24e6bc5c72"
                  },
                  {
                    "reference": "urn:uuid:01c12816-fc23-47ab-a679-efbea7e7c515"
                  },
                  {
                    "reference": "urn:uuid:709d3435-78d5-4168-9b94-525086efe669"
                  },
                  {
                    "reference": "urn:uuid:a1937298-2ead-4fc0-a1ae-517ed39ab29b"
                  },
                  {
                    "reference": "urn:uuid:9078928a-0be7-453b-985e-3b54f6402a7b"
                  },
                  {
                    "reference": "urn:uuid:61184bab-52bf-4204-a75c-3d7a8a0e434f"
                  },
                  {
                    "reference": "urn:uuid:4aaadebb-bed6-40a6-839b-5abc1f825202"
                  },
                  {
                    "reference": "urn:uuid:a516a860-29e2-4153-92dc-feb1d8e06a58"
                  },
                  {
                    "reference": "urn:uuid:cc8896c9-3c5c-4738-8f8d-c86fd5c547d6"
                  },
                  {
                    "reference": "urn:uuid:f7332b8f-853a-47b2-82da-2a0a06ffd2af"
                  },
                  {
                    "reference": "urn:uuid:cb92f821-273a-466c-91e7-218bc1582219"
                  },
                  {
                    "reference": "urn:uuid:0ed42027-7e48-40bf-9bad-0c4c7ea562d4"
                  },
                  {
                    "reference": "urn:uuid:b007ea32-d7fe-41e4-a166-1ee9537721b6"
                  },
                  {
                    "reference": "urn:uuid:43549573-9430-4d4b-8e17-293b66442e32"
                  },
                  {
                    "reference": "urn:uuid:df1a83e8-b6e0-4ec9-9ef2-341c11efc9ee"
                  }
                ],
                "text": {
                  "status": "generated",
                  "div": "<div xmlns=\"http://www.w3.org/1999/xhtml\"><h3>Chemistry</h3><table class=\"hl7__eu__lab__report\"><thead><tr><th>Test</th><th>10-MAR-2022</th><th>Reference&#xA0;Range</th><th>Unit</th></tr></thead><tbody><tr><td>Glucose [Mass/volume] in Serum or Plasma</td><td>79.3</td><td>70 - 139</td><td>mg/dL</td></tr><tr><td>Urea nitrogen [Mass/volume] in Serum or Plasma</td><td>13.3</td><td>7 - 20</td><td>mg/dL</td></tr><tr><td>Creatinine [Mass/volume] in Serum or Plasma</td><td><strong>1.9 H</strong></td><td>0.6 - 1.1</td><td>mg/dL</td></tr><tr><td>Calcium [Mass/volume] in Serum or Plasma</td><td>9.1</td><td>8.5 - 10.4</td><td>mg/dL</td></tr><tr><td>Sodium [Moles/volume] in Serum or Plasma</td><td>137.5</td><td>135 - 145</td><td>mmol/L</td></tr><tr><td>Potassium [Moles/volume] in Serum or Plasma</td><td>4.2</td><td>3.5 - 5.1</td><td>mmol/L</td></tr><tr><td>Chloride [Moles/volume] in Serum or Plasma</td><td>103.5</td><td>98 - 110</td><td>mmol/L</td></tr><tr><td>Carbon dioxide, total [Moles/volume] in Serum or Plasma</td><td>23.9</td><td>22 - 32</td><td>mmol/L</td></tr><tr><td>Ketones [Presence] in Urine by Test strip</td><td>Urine ketone test = +</td><td></td><td></td></tr><tr><td>Hemoglobin A1c/Hemoglobin.total in Blood</td><td><strong>3.1 L</strong></td><td>4 - 6</td><td>%</td></tr><tr><td>Glucose [Mass/volume] in Blood</td><td>79.3</td><td>70 - 100</td><td>mg/dL</td></tr><tr><td>Urea nitrogen [Mass/volume] in Blood</td><td>13.3</td><td>7 - 20</td><td>mg/dL</td></tr><tr><td>Creatinine [Mass/volume] in Blood</td><td>1.2</td><td>0.6 - 1.3</td><td>mg/dL</td></tr><tr><td>Calcium [Mass/volume] in Blood</td><td>9.1</td><td>8.6 - 10.4</td><td>mg/dL</td></tr><tr><td>Sodium [Moles/volume] in Blood</td><td>137.5</td><td>135 - 145</td><td>mmol/L</td></tr><tr><td>Potassium [Moles/volume] in Blood</td><td>4.2</td><td>3.5 - 5.1</td><td>mmol/L</td></tr><tr><td>Chloride [Moles/volume] in Blood</td><td>103.5</td><td>98 - 110</td><td>mmol/L</td></tr><tr><td>Carbon dioxide, total [Moles/volume] in Blood</td><td>23.9</td><td>22 - 29</td><td>mmol/L</td></tr></tbody></table></div>"
                },
                "title": "Chemistry"
              },
              {
                "code": {
                  "coding": [
                    {
                      "code": "$18729-4",
                      "system": "http://loinc.org",
                      "display": "Urinalysis studies (set)"
                    }
                  ],
                  "text": "Urinalysis"
                },
                "entry": [
                  {
                    "reference": "urn:uuid:937ae63f-ea72-4159-8075-3297ea6bfaa5"
                  },
                  {
                    "reference": "urn:uuid:98fcc61d-531e-4f9a-b292-00e6da223da8"
                  },
                  {
                    "reference": "urn:uuid:563f7dcd-a52f-43f3-9bef-cd3bf021c238"
                  },
                  {
                    "reference": "urn:uuid:7e03b782-33b7-451b-a1d6-3df9380fb722"
                  },
                  {
                    "reference": "urn:uuid:5357310a-5f4c-4722-8dd6-6a3c20df186f"
                  },
                  {
                    "reference": "urn:uuid:f82cb8ae-30e1-4d4d-9b39-7ada1c3f3d83"
                  },
                  {
                    "reference": "urn:uuid:f8b1975b-a3e4-40a9-b959-0da7d407cf96"
                  },
                  {
                    "reference": "urn:uuid:7671a9b3-6184-40a6-888a-eb8086f1a027"
                  },
                  {
                    "reference": "urn:uuid:b880c318-3e82-460f-b2d0-b4f89ef5e396"
                  },
                  {
                    "reference": "urn:uuid:2db31d06-54f3-4f13-8e59-4397ec1a571e"
                  },
                  {
                    "reference": "urn:uuid:896eb601-ea0c-4332-891a-9dbcfe1e4cc5"
                  },
                  {
                    "reference": "urn:uuid:fd7e4450-097e-4fcd-b0ec-52c48a517459"
                  }
                ],
                "text": {
                  "status": "generated",
                  "div": "<div xmlns=\"http://www.w3.org/1999/xhtml\"><h3>Urinalysis</h3><table class=\"hl7__eu__lab__report\"><thead><tr><th>Test</th><th>10-MAR-2022</th><th>Reference&#xA0;Range</th><th>Unit</th></tr></thead><tbody><tr><td>Glucose [Mass/volume] in Urine by Test strip</td><td><strong>1.5 H</strong></td><td>0 - 0</td><td>mg/dL</td></tr><tr><td>Glucose [Presence] in Urine by Test strip</td><td>++</td><td></td><td></td></tr><tr><td>Bilirubin.total [Mass/volume] in Urine by Test strip</td><td>0.3</td><td>0 - 1.6</td><td>mg/dL</td></tr><tr><td>Bilirubin.total [Presence] in Urine by Test strip</td><td>Finding of bilirubin in urine</td><td></td><td></td></tr><tr><td>Ketones [Mass/volume] in Urine by Test strip</td><td><strong>15.1 H</strong></td><td>0 - 0.5</td><td>mg/dL</td></tr><tr><td>Specific gravity of Urine by Test strip</td><td><strong>1.0 L</strong></td><td>1.005 - 1.03</td><td>{nominal}</td></tr><tr><td>pH of Urine by Test strip</td><td>5.3</td><td>4.5 - 7.5</td><td>pH</td></tr><tr><td>Protein [Mass/volume] in Urine by Test strip</td><td><strong>282.8 H</strong></td><td>0 - 15</td><td>mg/dL</td></tr><tr><td>Protein [Presence] in Urine by Test strip</td><td>Urine protein test = ++</td><td></td><td></td></tr><tr><td>Nitrite [Presence] in Urine by Test strip</td><td>Urine nitrite negative</td><td></td><td></td></tr><tr><td>Hemoglobin [Presence] in Urine by Test strip</td><td>Urine blood test = negative</td><td></td><td></td></tr><tr><td>Leukocyte esterase [Presence] in Urine by Test strip</td><td>Urine leukocyte test negative</td><td></td><td></td></tr></tbody></table></div>"
                },
                "title": "Urinalysis"
              },
              {
                "code": {
                  "coding": [
                    {
                      "code": "$LP7846-1",
                      "system": "http://loinc.org",
                      "display": "Specimen information"
                    }
                  ],
                  "text": "Specimen information"
                },
                "entry": [
                  {
                    "reference": "urn:uuid:bcfb1e8d-d503-4ae1-80be-41bbd25f74a0"
                  },
                  {
                    "reference": "urn:uuid:97eb887c-9ad3-4317-b7fd-5310022450ef"
                  },
                  {
                    "reference": "urn:uuid:de20885a-82ed-4db3-80c6-d559a8484585"
                  },
                  {
                    "reference": "urn:uuid:c39a975f-7381-4037-840b-0b620af565a7"
                  }
                ],
                "text": {
                  "status": "generated",
                  "div": "<div xmlns=\"http://www.w3.org/1999/xhtml\"><h3>Specimen information</h3><table class=\"hl7__eu__lab__report\"><thead><tr><th>Test</th><th>10-MAR-2022</th><th>Specimen</th><th></th></tr></thead><tbody><tr><td>Appearance of Urine</td><td>Cloudy urine</td><td>Urine</td><td></td></tr><tr><td>Odor of Urine</td><td>Urine smell ammoniacal</td><td>Urine</td><td></td></tr><tr><td>Clarity of Urine</td><td>Translucent</td><td>Urine</td><td></td></tr><tr><td>Color of Urine</td><td>Brown color</td><td>Urine</td><td></td></tr></tbody></table></div>"
                },
                "title": "Specimen information"
              }
            ],
            "title": "Laboratory Report"
          },
          {
            "text": {
              "status": "generated",
              "div": "<div xmlns=\"http://www.w3.org/1999/xhtml\"><h3>Annotation</h3><table class=\"hl7__eu__lab__report\"><tr><th>Conclusion and Recommendations based on this report and previous findings known to us</th></tr><tr><td>The patient shows elevated serum creatinine, significant proteinuria, glycosuria, and ketonuria, with low urine specific gravity and abnormal urine appearance, suggesting possible renal dysfunction (likely glomerular) and impaired glucose handling. HbA1c is low, indicating no chronic hyperglycemia. No evidence of urinary tract infection. Recommend further nephrological evaluation and assessment for possible acute or chronic kidney disease and consideration of causes for glycosuria and ketonuria in the absence of hyperglycemia.</td></tr></table></div>"
            },
            "code": {
              "coding": [
                {
                  "system": "http://loinc.org",
                  "code": "48767-8",
                  "display": "Annotation comment"
                }
              ]
            },
            "title": "Annotation comment"
          }
        ],
        "status": "final",
        "subject": {
          "reference": "urn:uuid:c955f4a4-2701-4bfc-ae48-a47109061cc7",
          "display": "Molly Jenkins"
        },
        "date": "2022-03-10T15:42:11Z",
        "title": "Laboratory Report",
        "confidentiality": "N"
      }
    },
    {
      "fullUrl": "urn:uuid:0fe8bca6-6bd0-4fc5-98b9-e410ef8e446c",
      "resource": {
        "resourceType": "DiagnosticReport",
        "id": "0fe8bca6-6bd0-4fc5-98b9-e410ef8e446c",
        "meta": {
          "profile": [
            "http://hl7.eu/fhir/laboratory/StructureDefinition/DiagnosticReport-eu-lab"
          ]
        },
        "identifier": [
          {
            "assigner": {
              "display": "HL7 Europe"
            },
            "system": "urn:oid:2.16.840.1.113883.2.51.999",
            "value": "805d612b-0d10-4817-af0b-1d02d598c014"
          }
        ],
        "extension": [
          {
            "url": "http://hl7.org/fhir/5.0/StructureDefinition/extension-DiagnosticReport.composition",
            "valueReference": {
              "reference": "urn:uuid:e41dcc41-8c27-4eb0-84f8-c8906a91fd51"
            }
          }
        ],
        "category": [
          {
            "coding": [
              {
                "code": "26436-6",
                "system": "http://loinc.org",
                "display": "Laboratory studies (set)"
              }
            ]
          }
        ],
        "specimen": [
          {
            "reference": "urn:uuid:cc0fd4b1-b2ad-4301-87ee-db00523b6e55"
          },
          {
            "reference": "urn:uuid:ab0434eb-2d16-442d-8e52-ce21fb29619c"
          },
          {
            "reference": "urn:uuid:f23a4cb5-5f56-49d9-ab80-32eeda2c4970"
          }
        ],
        "result": [
          {
            "reference": "urn:uuid:4bdf6efb-e707-431b-9d4e-dfceef39e50e"
          },
          {
            "reference": "urn:uuid:d637fbaf-766b-4016-a4e6-a87d281ce434"
          },
          {
            "reference": "urn:uuid:6d6a989e-d0a4-44ae-8de5-b560ecc1a23b"
          },
          {
            "reference": "urn:uuid:fa855868-1315-4a77-98db-6c24e6bc5c72"
          },
          {
            "reference": "urn:uuid:01c12816-fc23-47ab-a679-efbea7e7c515"
          },
          {
            "reference": "urn:uuid:709d3435-78d5-4168-9b94-525086efe669"
          },
          {
            "reference": "urn:uuid:a1937298-2ead-4fc0-a1ae-517ed39ab29b"
          },
          {
            "reference": "urn:uuid:9078928a-0be7-453b-985e-3b54f6402a7b"
          },
          {
            "reference": "urn:uuid:bcfb1e8d-d503-4ae1-80be-41bbd25f74a0"
          },
          {
            "reference": "urn:uuid:97eb887c-9ad3-4317-b7fd-5310022450ef"
          },
          {
            "reference": "urn:uuid:de20885a-82ed-4db3-80c6-d559a8484585"
          },
          {
            "reference": "urn:uuid:c39a975f-7381-4037-840b-0b620af565a7"
          },
          {
            "reference": "urn:uuid:937ae63f-ea72-4159-8075-3297ea6bfaa5"
          },
          {
            "reference": "urn:uuid:98fcc61d-531e-4f9a-b292-00e6da223da8"
          },
          {
            "reference": "urn:uuid:563f7dcd-a52f-43f3-9bef-cd3bf021c238"
          },
          {
            "reference": "urn:uuid:7e03b782-33b7-451b-a1d6-3df9380fb722"
          },
          {
            "reference": "urn:uuid:5357310a-5f4c-4722-8dd6-6a3c20df186f"
          },
          {
            "reference": "urn:uuid:61184bab-52bf-4204-a75c-3d7a8a0e434f"
          },
          {
            "reference": "urn:uuid:f82cb8ae-30e1-4d4d-9b39-7ada1c3f3d83"
          },
          {
            "reference": "urn:uuid:f8b1975b-a3e4-40a9-b959-0da7d407cf96"
          },
          {
            "reference": "urn:uuid:7671a9b3-6184-40a6-888a-eb8086f1a027"
          },
          {
            "reference": "urn:uuid:b880c318-3e82-460f-b2d0-b4f89ef5e396"
          },
          {
            "reference": "urn:uuid:2db31d06-54f3-4f13-8e59-4397ec1a571e"
          },
          {
            "reference": "urn:uuid:896eb601-ea0c-4332-891a-9dbcfe1e4cc5"
          },
          {
            "reference": "urn:uuid:fd7e4450-097e-4fcd-b0ec-52c48a517459"
          },
          {
            "reference": "urn:uuid:4aaadebb-bed6-40a6-839b-5abc1f825202"
          },
          {
            "reference": "urn:uuid:a516a860-29e2-4153-92dc-feb1d8e06a58"
          },
          {
            "reference": "urn:uuid:cc8896c9-3c5c-4738-8f8d-c86fd5c547d6"
          },
          {
            "reference": "urn:uuid:f7332b8f-853a-47b2-82da-2a0a06ffd2af"
          },
          {
            "reference": "urn:uuid:cb92f821-273a-466c-91e7-218bc1582219"
          },
          {
            "reference": "urn:uuid:0ed42027-7e48-40bf-9bad-0c4c7ea562d4"
          },
          {
            "reference": "urn:uuid:b007ea32-d7fe-41e4-a166-1ee9537721b6"
          },
          {
            "reference": "urn:uuid:43549573-9430-4d4b-8e17-293b66442e32"
          },
          {
            "reference": "urn:uuid:df1a83e8-b6e0-4ec9-9ef2-341c11efc9ee"
          }
        ],
        "status": "registered",
        "code": {
          "coding": [
            {
              "code": "11502-2",
              "system": "http://loinc.org",
              "display": "Laboratory report"
            }
          ]
        },
        "subject": {
          "reference": "urn:uuid:c955f4a4-2701-4bfc-ae48-a47109061cc7",
          "display": "Molly Jenkins"
        }
      }
    },
    {
      "fullUrl": "urn:uuid:c955f4a4-2701-4bfc-ae48-a47109061cc7",
      "resource": {
        "resourceType": "Patient",
        "id": "c955f4a4-2701-4bfc-ae48-a47109061cc7",
        "meta": {
          "security": [
            {
              "system": "http://terminology.hl7.org/CodeSystem/v3-ActReason",
              "code": "HTEST"
            },
            {
              "system": "http://terminology.hl7.org/CodeSystem/v3-ActReason",
              "code": "TRAIN"
            }
          ],
          "tag": [
            {
              "system": "https://synderai.net/fhir/CodeSystem/tags",
              "code": "synthetic",
              "display": "SYNDERAI Synthetic data"
            }
          ],
          "profile": [
            "http://hl7.eu/fhir/base/StructureDefinition/patient-eu-core"
          ]
        },
        "identifier": [
          {
            "type": {
              "coding": [
                {
                  "code": "PT",
                  "system": "http://terminology.hl7.org/CodeSystem/v2-0203"
                }
              ]
            },
            "system": "http://ec.europa.eu/identifier/eci",
            "value": "7634-012682-0"
          },
          {
            "type": {
              "coding": [
                {
                  "code": "MR",
                  "system": "http://terminology.hl7.org/CodeSystem/v2-0203"
                }
              ]
            },
            "system": "http://local.setting.eu/identifier",
            "value": "9934a8eb-b6e1-34e1-edf5-57a0262d1bea"
          }
        ],
        "name": [
          {
            "family": "Jenkins"
          },
          {
            "given": [
              "Molly"
            ]
          },
          {
            "text": "Molly Jenkins"
          }
        ],
        "address": [
          {
            "line": [
              "98 Ali field"
            ],
            "use": "home",
            "type": "physical",
            "postalCode": "AB42",
            "city": "Port Jennamouth",
            "country": "United Kingdom"
          }
        ],
        "telecom": [
          {
            "system": "phone",
            "value": "(0118) 496 0334"
          }
        ],
        "extension": [
          {
            "url": "http://hl7.org/fhir/StructureDefinition/patient-nationality",
            "valueCodeableConcept": {
              "coding": [
                {
                  "code": "GB",
                  "system": "http://hl7.org/fhir/ValueSet/country"
                }
              ]
            }
          }
        ],
        "text": {
          "status": "generated",
          "div": "<div xmlns=\"http://www.w3.org/1999/xhtml\"><table class=\"hl7__ips\"><tr><td>Molly Jenkins</td><td>female</td><td>14-Aug-1967</td></tr></table></div>"
        },
        "gender": "female",
        "birthDate": "1967-08-14"
      }
    },
    {
      "fullUrl": "urn:uuid:e460d495-16e5-4bec-bdda-5d754b99ba70",
      "resource": {
        "resourceType": "ServiceRequest",
        "id": "e460d495-16e5-4bec-bdda-5d754b99ba70",
        "meta": {
          "profile": [
            "http://hl7.eu/fhir/laboratory/StructureDefinition/ServiceRequest-eu-lab"
          ]
        },
        "identifier": [
          {
            "system": "http://example.org",
            "value": "e5e685b5-8101-4499-809d-8e413b7eed1a"
          }
        ],
        "specimen": [
          {
            "reference": "urn:uuid:cc0fd4b1-b2ad-4301-87ee-db00523b6e55"
          },
          {
            "reference": "urn:uuid:ab0434eb-2d16-442d-8e52-ce21fb29619c"
          },
          {
            "reference": "urn:uuid:f23a4cb5-5f56-49d9-ab80-32eeda2c4970"
          }
        ],
        "reasonCode": [
          {
            "coding": [
              {
                "code": "431856006",
                "system": "http://snomed.info/sct",
                "display": "Chronic kidney disease stage 2"
              }
            ]
          },
          {
            "coding": [
              {
                "code": "90781000119102",
                "system": "http://snomed.info/sct",
                "display": "Microalbuminuria due to type 2 diabetes mellitus"
              }
            ]
          },
          {
            "coding": [
              {
                "code": "127013003",
                "system": "http://snomed.info/sct",
                "display": "Disorder of kidney due to diabetes mellitus"
              }
            ]
          },
          {
            "coding": [
              {
                "code": "431855005",
                "system": "http://snomed.info/sct",
                "display": "Chronic kidney disease stage 1"
              }
            ]
          },
          {
            "coding": [
              {
                "code": "15777000",
                "system": "http://snomed.info/sct",
                "display": "Prediabetes"
              }
            ]
          },
          {
            "coding": [
              {
                "code": "59621000",
                "system": "http://snomed.info/sct",
                "display": "Essential hypertension"
              }
            ]
          },
          {
            "coding": [
              {
                "code": "53827007",
                "system": "http://snomed.info/sct",
                "display": "Excessive salivation"
              }
            ]
          },
          {
            "coding": [
              {
                "code": "64859006",
                "system": "http://snomed.info/sct",
                "display": "Osteoporosis"
              }
            ]
          },
          {
            "coding": [
              {
                "code": "128188000",
                "system": "http://snomed.info/sct",
                "display": "Cerebral palsy"
              }
            ]
          },
          {
            "coding": [
              {
                "code": "235595009",
                "system": "http://snomed.info/sct",
                "display": "Gastroesophageal reflux disease"
              }
            ]
          }
        ],
        "status": "active",
        "intent": "order",
        "code": {
          "coding": [
            {
              "code": "108252007",
              "system": "http://snomed.info/sct",
              "display": "Laboratory procedure"
            }
          ]
        },
        "subject": {
          "reference": "urn:uuid:c955f4a4-2701-4bfc-ae48-a47109061cc7",
          "display": "Molly Jenkins"
        },
        "requester": {
          "reference": "urn:uuid:16efaf98-c1a5-4456-8b53-3f2bda9b42da"
        }
      }
    },
    {
      "fullUrl": "urn:uuid:16efaf98-c1a5-4456-8b53-3f2bda9b42da",
      "resource": {
        "resourceType": "PractitionerRole",
        "id": "16efaf98-c1a5-4456-8b53-3f2bda9b42da",
        "meta": {
          "profile": [
            "http://hl7.eu/fhir/base/StructureDefinition/practitionerRole-eu"
          ]
        },
        "text": {
          "status": "generated",
          "div": "<div xmlns=\"http://www.w3.org/1999/xhtml\">Provider Role Id: 16efaf98-c1a5-4456-8b53-3f2bda9b42da</div>"
        },
        "organization": {
          "reference": "urn:uuid:5be21483-ff60-4deb-8a1a-8aec088be42a"
        }
      }
    },
    {
      "fullUrl": "urn:uuid:5be21483-ff60-4deb-8a1a-8aec088be42a",
      "resource": {
        "resourceType": "Organization",
        "id": "5be21483-ff60-4deb-8a1a-8aec088be42a",
        "meta": {
          "profile": [
            "http://hl7.eu/fhir/base/StructureDefinition/organization-eu"
          ]
        },
        "identifier": [
          {
            "assigner": {
              "display": "HL7 Europe"
            },
            "system": "urn:oid:2.16.840.1.113883.2.51.999",
            "value": "e99cfb42-e86f-4fad-a2ae-8f66daf48e88"
          }
        ],
        "address": [
          {
            "city": "Aberdeen",
            "postalCode": "AB11 6",
            "country": "United Kingdom"
          }
        ],
        "text": {
          "status": "generated",
          "div": "<div xmlns=\"http://www.w3.org/1999/xhtml\">Provider Organization: Aberdeen Community Health and Care Village</div>"
        },
        "name": "Aberdeen Community Health and Care Village"
      }
    },
    {
      "fullUrl": "urn:uuid:cc0fd4b1-b2ad-4301-87ee-db00523b6e55",
      "resource": {
        "resourceType": "Specimen",
        "id": "cc0fd4b1-b2ad-4301-87ee-db00523b6e55",
        "meta": {
          "profile": [
            "http://hl7.eu/fhir/laboratory/StructureDefinition/Specimen-eu-lab"
          ]
        },
        "collection": {
          "collectedDateTime": "2022-03-10"
        },
        "text": {
          "status": "generated",
          "div": "<div xmlns=\"http://www.w3.org/1999/xhtml\"><table class=\"hl7__eu__lab__report\"><tr><th>Specimen</th><th>Collection Date</th></tr><tr><td>Acellular blood (serum or plasma) specimen</td><td><span class=\"nb\">10-Mar-2022</span></td></tr></table></div>"
        },
        "type": {
          "coding": [
            {
              "code": "122592007",
              "system": "http://snomed.info/sct",
              "display": "Acellular blood (serum or plasma) specimen"
            }
          ]
        }
      }
    },
    {
      "fullUrl": "urn:uuid:ab0434eb-2d16-442d-8e52-ce21fb29619c",
      "resource": {
        "resourceType": "Specimen",
        "id": "ab0434eb-2d16-442d-8e52-ce21fb29619c",
        "meta": {
          "profile": [
            "http://hl7.eu/fhir/laboratory/StructureDefinition/Specimen-eu-lab"
          ]
        },
        "collection": {
          "collectedDateTime": "2022-03-10"
        },
        "text": {
          "status": "generated",
          "div": "<div xmlns=\"http://www.w3.org/1999/xhtml\"><table class=\"hl7__eu__lab__report\"><tr><th>Specimen</th><th>Collection Date</th></tr><tr><td>Urine specimen</td><td><span class=\"nb\">10-Mar-2022</span></td></tr></table></div>"
        },
        "type": {
          "coding": [
            {
              "code": "122575003",
              "system": "http://snomed.info/sct",
              "display": "Urine specimen"
            }
          ]
        }
      }
    },
    {
      "fullUrl": "urn:uuid:f23a4cb5-5f56-49d9-ab80-32eeda2c4970",
      "resource": {
        "resourceType": "Specimen",
        "id": "f23a4cb5-5f56-49d9-ab80-32eeda2c4970",
        "meta": {
          "profile": [
            "http://hl7.eu/fhir/laboratory/StructureDefinition/Specimen-eu-lab"
          ]
        },
        "collection": {
          "collectedDateTime": "2022-03-10"
        },
        "text": {
          "status": "generated",
          "div": "<div xmlns=\"http://www.w3.org/1999/xhtml\"><table class=\"hl7__eu__lab__report\"><tr><th>Specimen</th><th>Collection Date</th></tr><tr><td>Whole blood specimen (specimen)</td><td><span class=\"nb\">10-Mar-2022</span></td></tr></table></div>"
        },
        "type": {
          "coding": [
            {
              "code": "258580003",
              "system": "http://snomed.info/sct",
              "display": "Whole blood specimen (specimen)"
            }
          ]
        }
      }
    },
    {
      "fullUrl": "urn:uuid:4bdf6efb-e707-431b-9d4e-dfceef39e50e",
      "resource": {
        "resourceType": "Observation",
        "id": "4bdf6efb-e707-431b-9d4e-dfceef39e50e",
        "meta": {
          "profile": [
            "http://hl7.eu/fhir/laboratory/StructureDefinition/Observation-resultslab-eu-lab"
          ]
        },
        "performer": [
          {
            "display": "The Central European Lab"
          }
        ],
        "category": [
          {
            "coding": [
              {
                "system": "http://terminology.hl7.org/CodeSystem/observation-category",
                "code": "laboratory"
              }
            ]
          }
        ],
        "code": {
          "coding": [
            {
              "code": "2345-7",
              "system": "http://loinc.org",
              "display": "Glucose [Mass/volume] in Serum or Plasma"
            }
          ],
          "text": "Glucose [Mass/volume] in Serum or Plasma"
        },
        "valueQuantity": {
          "system": "http://unitsofmeasure.org",
          "value": 79.3,
          "unit": "mg/dL",
          "code": "mg/dL"
        },
        "referenceRange": [
          {
            "low": {
              "value": 70,
              "code": "mg/dL",
              "system": "http://unitsofmeasure.org"
            }
          },
          {
            "high": {
              "value": 139,
              "code": "mg/dL",
              "system": "http://unitsofmeasure.org"
            }
          }
        ],
        "text": {
          "status": "generated",
          "div": "<div xmlns=\"http://www.w3.org/1999/xhtml\"><table class=\"hl7__eu__lab__report\"><tr><th>Test</th><th>10-Mar-2022</th><th>Reference&#xA0;Range</th><th>Unit</th></tr><tr><td>Glucose [Mass/volume] in Serum or Plasma</td><td>79.3</td><td>70 - 139</td><td></td><td>mg/dL</td></tr></table></div>"
        },
        "status": "final",
        "subject": {
          "reference": "urn:uuid:c955f4a4-2701-4bfc-ae48-a47109061cc7",
          "display": "Molly Jenkins"
        },
        "effectiveDateTime": "2022-03-10T14:42:11Z",
        "specimen": {
          "reference": "urn:uuid:cc0fd4b1-b2ad-4301-87ee-db00523b6e55"
        }
      }
    },
    {
      "fullUrl": "urn:uuid:d637fbaf-766b-4016-a4e6-a87d281ce434",
      "resource": {
        "resourceType": "Observation",
        "id": "d637fbaf-766b-4016-a4e6-a87d281ce434",
        "meta": {
          "profile": [
            "http://hl7.eu/fhir/laboratory/StructureDefinition/Observation-resultslab-eu-lab"
          ]
        },
        "performer": [
          {
            "display": "The Central European Lab"
          }
        ],
        "category": [
          {
            "coding": [
              {
                "system": "http://terminology.hl7.org/CodeSystem/observation-category",
                "code": "laboratory"
              }
            ]
          }
        ],
        "code": {
          "coding": [
            {
              "code": "3094-0",
              "system": "http://loinc.org",
              "display": "Urea nitrogen [Mass/volume] in Serum or Plasma"
            }
          ],
          "text": "Urea nitrogen [Mass/volume] in Serum or Plasma"
        },
        "valueQuantity": {
          "system": "http://unitsofmeasure.org",
          "value": 13.3,
          "unit": "mg/dL",
          "code": "mg/dL"
        },
        "referenceRange": [
          {
            "low": {
              "value": 7,
              "code": "mg/dL",
              "system": "http://unitsofmeasure.org"
            }
          },
          {
            "high": {
              "value": 20,
              "code": "mg/dL",
              "system": "http://unitsofmeasure.org"
            }
          }
        ],
        "text": {
          "status": "generated",
          "div": "<div xmlns=\"http://www.w3.org/1999/xhtml\"><table class=\"hl7__eu__lab__report\"><tr><th>Test</th><th>10-Mar-2022</th><th>Reference&#xA0;Range</th><th>Unit</th></tr><tr><td>Urea nitrogen [Mass/volume] in Serum or Plasma</td><td>13.3</td><td>7 - 20</td><td></td><td>mg/dL</td></tr></table></div>"
        },
        "status": "final",
        "subject": {
          "reference": "urn:uuid:c955f4a4-2701-4bfc-ae48-a47109061cc7",
          "display": "Molly Jenkins"
        },
        "effectiveDateTime": "2022-03-10T14:42:11Z",
        "specimen": {
          "reference": "urn:uuid:cc0fd4b1-b2ad-4301-87ee-db00523b6e55"
        }
      }
    },
    {
      "fullUrl": "urn:uuid:6d6a989e-d0a4-44ae-8de5-b560ecc1a23b",
      "resource": {
        "resourceType": "Observation",
        "id": "6d6a989e-d0a4-44ae-8de5-b560ecc1a23b",
        "meta": {
          "profile": [
            "http://hl7.eu/fhir/laboratory/StructureDefinition/Observation-resultslab-eu-lab"
          ]
        },
        "performer": [
          {
            "display": "The Central European Lab"
          }
        ],
        "category": [
          {
            "coding": [
              {
                "system": "http://terminology.hl7.org/CodeSystem/observation-category",
                "code": "laboratory"
              }
            ]
          }
        ],
        "code": {
          "coding": [
            {
              "code": "2160-0",
              "system": "http://loinc.org",
              "display": "Creatinine [Mass/volume] in Serum or Plasma"
            }
          ],
          "text": "Creatinine [Mass/volume] in Serum or Plasma"
        },
        "valueQuantity": {
          "system": "http://unitsofmeasure.org",
          "value": 1.9,
          "unit": "mg/dL",
          "code": "mg/dL"
        },
        "referenceRange": [
          {
            "low": {
              "value": 0.6,
              "code": "mg/dL",
              "system": "http://unitsofmeasure.org"
            }
          },
          {
            "high": {
              "value": 1.1,
              "code": "mg/dL",
              "system": "http://unitsofmeasure.org"
            }
          }
        ],
        "interpretation": [
          {
            "coding": [
              {
                "code": "H",
                "system": "http://terminology.hl7.org/CodeSystem/v3-ObservationInterpretation",
                "display": "High"
              }
            ]
          }
        ],
        "text": {
          "status": "generated",
          "div": "<div xmlns=\"http://www.w3.org/1999/xhtml\"><table class=\"hl7__eu__lab__report\"><tr><th>Test</th><th>10-Mar-2022</th><th>Reference&#xA0;Range</th><th>Unit</th></tr><tr><td>Creatinine [Mass/volume] in Serum or Plasma</td><td>1.9</td><td>0.6 - 1.1</td><td>H</td><td>mg/dL</td></tr></table></div>"
        },
        "status": "final",
        "subject": {
          "reference": "urn:uuid:c955f4a4-2701-4bfc-ae48-a47109061cc7",
          "display": "Molly Jenkins"
        },
        "effectiveDateTime": "2022-03-10T14:42:11Z",
        "specimen": {
          "reference": "urn:uuid:cc0fd4b1-b2ad-4301-87ee-db00523b6e55"
        }
      }
    },
    {
      "fullUrl": "urn:uuid:fa855868-1315-4a77-98db-6c24e6bc5c72",
      "resource": {
        "resourceType": "Observation",
        "id": "fa855868-1315-4a77-98db-6c24e6bc5c72",
        "meta": {
          "profile": [
            "http://hl7.eu/fhir/laboratory/StructureDefinition/Observation-resultslab-eu-lab"
          ]
        },
        "performer": [
          {
            "display": "The Central European Lab"
          }
        ],
        "category": [
          {
            "coding": [
              {
                "system": "http://terminology.hl7.org/CodeSystem/observation-category",
                "code": "laboratory"
              }
            ]
          }
        ],
        "code": {
          "coding": [
            {
              "code": "17861-6",
              "system": "http://loinc.org",
              "display": "Calcium [Mass/volume] in Serum or Plasma"
            }
          ],
          "text": "Calcium [Mass/volume] in Serum or Plasma"
        },
        "valueQuantity": {
          "system": "http://unitsofmeasure.org",
          "value": 9.1,
          "unit": "mg/dL",
          "code": "mg/dL"
        },
        "referenceRange": [
          {
            "low": {
              "value": 8.5,
              "code": "mg/dL",
              "system": "http://unitsofmeasure.org"
            }
          },
          {
            "high": {
              "value": 10.4,
              "code": "mg/dL",
              "system": "http://unitsofmeasure.org"
            }
          }
        ],
        "text": {
          "status": "generated",
          "div": "<div xmlns=\"http://www.w3.org/1999/xhtml\"><table class=\"hl7__eu__lab__report\"><tr><th>Test</th><th>10-Mar-2022</th><th>Reference&#xA0;Range</th><th>Unit</th></tr><tr><td>Calcium [Mass/volume] in Serum or Plasma</td><td>9.1</td><td>8.5 - 10.4</td><td></td><td>mg/dL</td></tr></table></div>"
        },
        "status": "final",
        "subject": {
          "reference": "urn:uuid:c955f4a4-2701-4bfc-ae48-a47109061cc7",
          "display": "Molly Jenkins"
        },
        "effectiveDateTime": "2022-03-10T14:42:11Z",
        "specimen": {
          "reference": "urn:uuid:cc0fd4b1-b2ad-4301-87ee-db00523b6e55"
        }
      }
    },
    {
      "fullUrl": "urn:uuid:01c12816-fc23-47ab-a679-efbea7e7c515",
      "resource": {
        "resourceType": "Observation",
        "id": "01c12816-fc23-47ab-a679-efbea7e7c515",
        "meta": {
          "profile": [
            "http://hl7.eu/fhir/laboratory/StructureDefinition/Observation-resultslab-eu-lab"
          ]
        },
        "performer": [
          {
            "display": "The Central European Lab"
          }
        ],
        "category": [
          {
            "coding": [
              {
                "system": "http://terminology.hl7.org/CodeSystem/observation-category",
                "code": "laboratory"
              }
            ]
          }
        ],
        "code": {
          "coding": [
            {
              "code": "2951-2",
              "system": "http://loinc.org",
              "display": "Sodium [Moles/volume] in Serum or Plasma"
            }
          ],
          "text": "Sodium [Moles/volume] in Serum or Plasma"
        },
        "valueQuantity": {
          "system": "http://unitsofmeasure.org",
          "value": 137.5,
          "unit": "mmol/L",
          "code": "mmol/L"
        },
        "referenceRange": [
          {
            "low": {
              "value": 135,
              "code": "mmol/L",
              "system": "http://unitsofmeasure.org"
            }
          },
          {
            "high": {
              "value": 145,
              "code": "mmol/L",
              "system": "http://unitsofmeasure.org"
            }
          }
        ],
        "text": {
          "status": "generated",
          "div": "<div xmlns=\"http://www.w3.org/1999/xhtml\"><table class=\"hl7__eu__lab__report\"><tr><th>Test</th><th>10-Mar-2022</th><th>Reference&#xA0;Range</th><th>Unit</th></tr><tr><td>Sodium [Moles/volume] in Serum or Plasma</td><td>137.5</td><td>135 - 145</td><td></td><td>mmol/L</td></tr></table></div>"
        },
        "status": "final",
        "subject": {
          "reference": "urn:uuid:c955f4a4-2701-4bfc-ae48-a47109061cc7",
          "display": "Molly Jenkins"
        },
        "effectiveDateTime": "2022-03-10T14:42:11Z",
        "specimen": {
          "reference": "urn:uuid:cc0fd4b1-b2ad-4301-87ee-db00523b6e55"
        }
      }
    },
    {
      "fullUrl": "urn:uuid:709d3435-78d5-4168-9b94-525086efe669",
      "resource": {
        "resourceType": "Observation",
        "id": "709d3435-78d5-4168-9b94-525086efe669",
        "meta": {
          "profile": [
            "http://hl7.eu/fhir/laboratory/StructureDefinition/Observation-resultslab-eu-lab"
          ]
        },
        "performer": [
          {
            "display": "The Central European Lab"
          }
        ],
        "category": [
          {
            "coding": [
              {
                "system": "http://terminology.hl7.org/CodeSystem/observation-category",
                "code": "laboratory"
              }
            ]
          }
        ],
        "code": {
          "coding": [
            {
              "code": "2823-3",
              "system": "http://loinc.org",
              "display": "Potassium [Moles/volume] in Serum or Plasma"
            }
          ],
          "text": "Potassium [Moles/volume] in Serum or Plasma"
        },
        "valueQuantity": {
          "system": "http://unitsofmeasure.org",
          "value": 4.2,
          "unit": "mmol/L",
          "code": "mmol/L"
        },
        "referenceRange": [
          {
            "low": {
              "value": 3.5,
              "code": "mmol/L",
              "system": "http://unitsofmeasure.org"
            }
          },
          {
            "high": {
              "value": 5.1,
              "code": "mmol/L",
              "system": "http://unitsofmeasure.org"
            }
          }
        ],
        "text": {
          "status": "generated",
          "div": "<div xmlns=\"http://www.w3.org/1999/xhtml\"><table class=\"hl7__eu__lab__report\"><tr><th>Test</th><th>10-Mar-2022</th><th>Reference&#xA0;Range</th><th>Unit</th></tr><tr><td>Potassium [Moles/volume] in Serum or Plasma</td><td>4.2</td><td>3.5 - 5.1</td><td></td><td>mmol/L</td></tr></table></div>"
        },
        "status": "final",
        "subject": {
          "reference": "urn:uuid:c955f4a4-2701-4bfc-ae48-a47109061cc7",
          "display": "Molly Jenkins"
        },
        "effectiveDateTime": "2022-03-10T14:42:11Z",
        "specimen": {
          "reference": "urn:uuid:cc0fd4b1-b2ad-4301-87ee-db00523b6e55"
        }
      }
    },
    {
      "fullUrl": "urn:uuid:a1937298-2ead-4fc0-a1ae-517ed39ab29b",
      "resource": {
        "resourceType": "Observation",
        "id": "a1937298-2ead-4fc0-a1ae-517ed39ab29b",
        "meta": {
          "profile": [
            "http://hl7.eu/fhir/laboratory/StructureDefinition/Observation-resultslab-eu-lab"
          ]
        },
        "performer": [
          {
            "display": "The Central European Lab"
          }
        ],
        "category": [
          {
            "coding": [
              {
                "system": "http://terminology.hl7.org/CodeSystem/observation-category",
                "code": "laboratory"
              }
            ]
          }
        ],
        "code": {
          "coding": [
            {
              "code": "2075-0",
              "system": "http://loinc.org",
              "display": "Chloride [Moles/volume] in Serum or Plasma"
            }
          ],
          "text": "Chloride [Moles/volume] in Serum or Plasma"
        },
        "valueQuantity": {
          "system": "http://unitsofmeasure.org",
          "value": 103.5,
          "unit": "mmol/L",
          "code": "mmol/L"
        },
        "referenceRange": [
          {
            "low": {
              "value": 98,
              "code": "mmol/L",
              "system": "http://unitsofmeasure.org"
            }
          },
          {
            "high": {
              "value": 110,
              "code": "mmol/L",
              "system": "http://unitsofmeasure.org"
            }
          }
        ],
        "text": {
          "status": "generated",
          "div": "<div xmlns=\"http://www.w3.org/1999/xhtml\"><table class=\"hl7__eu__lab__report\"><tr><th>Test</th><th>10-Mar-2022</th><th>Reference&#xA0;Range</th><th>Unit</th></tr><tr><td>Chloride [Moles/volume] in Serum or Plasma</td><td>103.5</td><td>98 - 110</td><td></td><td>mmol/L</td></tr></table></div>"
        },
        "status": "final",
        "subject": {
          "reference": "urn:uuid:c955f4a4-2701-4bfc-ae48-a47109061cc7",
          "display": "Molly Jenkins"
        },
        "effectiveDateTime": "2022-03-10T14:42:11Z",
        "specimen": {
          "reference": "urn:uuid:cc0fd4b1-b2ad-4301-87ee-db00523b6e55"
        }
      }
    },
    {
      "fullUrl": "urn:uuid:9078928a-0be7-453b-985e-3b54f6402a7b",
      "resource": {
        "resourceType": "Observation",
        "id": "9078928a-0be7-453b-985e-3b54f6402a7b",
        "meta": {
          "profile": [
            "http://hl7.eu/fhir/laboratory/StructureDefinition/Observation-resultslab-eu-lab"
          ]
        },
        "performer": [
          {
            "display": "The Central European Lab"
          }
        ],
        "category": [
          {
            "coding": [
              {
                "system": "http://terminology.hl7.org/CodeSystem/observation-category",
                "code": "laboratory"
              }
            ]
          }
        ],
        "code": {
          "coding": [
            {
              "code": "2028-9",
              "system": "http://loinc.org",
              "display": "Carbon dioxide, total [Moles/volume] in Serum or Plasma"
            }
          ],
          "text": "Carbon dioxide, total [Moles/volume] in Serum or Plasma"
        },
        "valueQuantity": {
          "system": "http://unitsofmeasure.org",
          "value": 23.9,
          "unit": "mmol/L",
          "code": "mmol/L"
        },
        "referenceRange": [
          {
            "low": {
              "value": 22,
              "code": "mmol/L",
              "system": "http://unitsofmeasure.org"
            }
          },
          {
            "high": {
              "value": 32,
              "code": "mmol/L",
              "system": "http://unitsofmeasure.org"
            }
          }
        ],
        "text": {
          "status": "generated",
          "div": "<div xmlns=\"http://www.w3.org/1999/xhtml\"><table class=\"hl7__eu__lab__report\"><tr><th>Test</th><th>10-Mar-2022</th><th>Reference&#xA0;Range</th><th>Unit</th></tr><tr><td>Carbon dioxide, total [Moles/volume] in Serum or Plasma</td><td>23.9</td><td>22 - 32</td><td></td><td>mmol/L</td></tr></table></div>"
        },
        "status": "final",
        "subject": {
          "reference": "urn:uuid:c955f4a4-2701-4bfc-ae48-a47109061cc7",
          "display": "Molly Jenkins"
        },
        "effectiveDateTime": "2022-03-10T14:42:11Z",
        "specimen": {
          "reference": "urn:uuid:cc0fd4b1-b2ad-4301-87ee-db00523b6e55"
        }
      }
    },
    {
      "fullUrl": "urn:uuid:bcfb1e8d-d503-4ae1-80be-41bbd25f74a0",
      "resource": {
        "resourceType": "Observation",
        "id": "bcfb1e8d-d503-4ae1-80be-41bbd25f74a0",
        "meta": {
          "profile": [
            "http://hl7.eu/fhir/laboratory/StructureDefinition/Observation-resultslab-eu-lab"
          ]
        },
        "performer": [
          {
            "display": "The Central European Lab"
          }
        ],
        "category": [
          {
            "coding": [
              {
                "system": "http://terminology.hl7.org/CodeSystem/observation-category",
                "code": "laboratory"
              }
            ]
          }
        ],
        "code": {
          "coding": [
            {
              "code": "5767-9",
              "system": "http://loinc.org",
              "display": "Appearance of Urine"
            }
          ],
          "text": "Appearance of Urine"
        },
        "text": {
          "status": "generated",
          "div": "<div xmlns=\"http://www.w3.org/1999/xhtml\"><table class=\"hl7__eu__lab__report\"><tr><th>Test</th><th>10-Mar-2022</th><th>Reference&#xA0;Range</th><th>Unit</th></tr><tr><td>Appearance of Urine</td></tr></table></div>"
        },
        "status": "final",
        "subject": {
          "reference": "urn:uuid:c955f4a4-2701-4bfc-ae48-a47109061cc7",
          "display": "Molly Jenkins"
        },
        "effectiveDateTime": "2022-03-10T14:42:11Z",
        "specimen": {
          "reference": "urn:uuid:ab0434eb-2d16-442d-8e52-ce21fb29619c"
        }
      }
    },
    {
      "fullUrl": "urn:uuid:97eb887c-9ad3-4317-b7fd-5310022450ef",
      "resource": {
        "resourceType": "Observation",
        "id": "97eb887c-9ad3-4317-b7fd-5310022450ef",
        "meta": {
          "profile": [
            "http://hl7.eu/fhir/laboratory/StructureDefinition/Observation-resultslab-eu-lab"
          ]
        },
        "performer": [
          {
            "display": "The Central European Lab"
          }
        ],
        "category": [
          {
            "coding": [
              {
                "system": "http://terminology.hl7.org/CodeSystem/observation-category",
                "code": "laboratory"
              }
            ]
          }
        ],
        "code": {
          "coding": [
            {
              "code": "34533-0",
              "system": "http://loinc.org",
              "display": "Odor of Urine"
            }
          ],
          "text": "Odor of Urine"
        },
        "text": {
          "status": "generated",
          "div": "<div xmlns=\"http://www.w3.org/1999/xhtml\"><table class=\"hl7__eu__lab__report\"><tr><th>Test</th><th>10-Mar-2022</th><th>Reference&#xA0;Range</th><th>Unit</th></tr><tr><td>Odor of Urine</td></tr></table></div>"
        },
        "status": "final",
        "subject": {
          "reference": "urn:uuid:c955f4a4-2701-4bfc-ae48-a47109061cc7",
          "display": "Molly Jenkins"
        },
        "effectiveDateTime": "2022-03-10T14:42:11Z",
        "specimen": {
          "reference": "urn:uuid:ab0434eb-2d16-442d-8e52-ce21fb29619c"
        }
      }
    },
    {
      "fullUrl": "urn:uuid:de20885a-82ed-4db3-80c6-d559a8484585",
      "resource": {
        "resourceType": "Observation",
        "id": "de20885a-82ed-4db3-80c6-d559a8484585",
        "meta": {
          "profile": [
            "http://hl7.eu/fhir/laboratory/StructureDefinition/Observation-resultslab-eu-lab"
          ]
        },
        "performer": [
          {
            "display": "The Central European Lab"
          }
        ],
        "category": [
          {
            "coding": [
              {
                "system": "http://terminology.hl7.org/CodeSystem/observation-category",
                "code": "laboratory"
              }
            ]
          }
        ],
        "code": {
          "coding": [
            {
              "code": "32167-9",
              "system": "http://loinc.org",
              "display": "Clarity of Urine"
            }
          ],
          "text": "Clarity of Urine"
        },
        "text": {
          "status": "generated",
          "div": "<div xmlns=\"http://www.w3.org/1999/xhtml\"><table class=\"hl7__eu__lab__report\"><tr><th>Test</th><th>10-Mar-2022</th><th>Reference&#xA0;Range</th><th>Unit</th></tr><tr><td>Clarity of Urine</td></tr></table></div>"
        },
        "status": "final",
        "subject": {
          "reference": "urn:uuid:c955f4a4-2701-4bfc-ae48-a47109061cc7",
          "display": "Molly Jenkins"
        },
        "effectiveDateTime": "2022-03-10T14:42:11Z",
        "specimen": {
          "reference": "urn:uuid:ab0434eb-2d16-442d-8e52-ce21fb29619c"
        }
      }
    },
    {
      "fullUrl": "urn:uuid:c39a975f-7381-4037-840b-0b620af565a7",
      "resource": {
        "resourceType": "Observation",
        "id": "c39a975f-7381-4037-840b-0b620af565a7",
        "meta": {
          "profile": [
            "http://hl7.eu/fhir/laboratory/StructureDefinition/Observation-resultslab-eu-lab"
          ]
        },
        "performer": [
          {
            "display": "The Central European Lab"
          }
        ],
        "category": [
          {
            "coding": [
              {
                "system": "http://terminology.hl7.org/CodeSystem/observation-category",
                "code": "laboratory"
              }
            ]
          }
        ],
        "code": {
          "coding": [
            {
              "code": "5778-6",
              "system": "http://loinc.org",
              "display": "Color of Urine"
            }
          ],
          "text": "Color of Urine"
        },
        "text": {
          "status": "generated",
          "div": "<div xmlns=\"http://www.w3.org/1999/xhtml\"><table class=\"hl7__eu__lab__report\"><tr><th>Test</th><th>10-Mar-2022</th><th>Reference&#xA0;Range</th><th>Unit</th></tr><tr><td>Color of Urine</td></tr></table></div>"
        },
        "status": "final",
        "subject": {
          "reference": "urn:uuid:c955f4a4-2701-4bfc-ae48-a47109061cc7",
          "display": "Molly Jenkins"
        },
        "effectiveDateTime": "2022-03-10T14:42:11Z",
        "specimen": {
          "reference": "urn:uuid:ab0434eb-2d16-442d-8e52-ce21fb29619c"
        }
      }
    },
    {
      "fullUrl": "urn:uuid:937ae63f-ea72-4159-8075-3297ea6bfaa5",
      "resource": {
        "resourceType": "Observation",
        "id": "937ae63f-ea72-4159-8075-3297ea6bfaa5",
        "meta": {
          "profile": [
            "http://hl7.eu/fhir/laboratory/StructureDefinition/Observation-resultslab-eu-lab"
          ]
        },
        "performer": [
          {
            "display": "The Central European Lab"
          }
        ],
        "category": [
          {
            "coding": [
              {
                "system": "http://terminology.hl7.org/CodeSystem/observation-category",
                "code": "laboratory"
              }
            ]
          }
        ],
        "code": {
          "coding": [
            {
              "code": "5792-7",
              "system": "http://loinc.org",
              "display": "Glucose [Mass/volume] in Urine by Test strip"
            }
          ],
          "text": "Glucose [Mass/volume] in Urine by Test strip"
        },
        "valueQuantity": {
          "system": "http://unitsofmeasure.org",
          "value": 1.5,
          "unit": "mg/dL",
          "code": "mg/dL"
        },
        "referenceRange": [
          {
            "low": {
              "value": 0,
              "code": "mg/dL",
              "system": "http://unitsofmeasure.org"
            }
          },
          {
            "high": {
              "value": 0,
              "code": "mg/dL",
              "system": "http://unitsofmeasure.org"
            }
          }
        ],
        "interpretation": [
          {
            "coding": [
              {
                "code": "H",
                "system": "http://terminology.hl7.org/CodeSystem/v3-ObservationInterpretation",
                "display": "High"
              }
            ]
          }
        ],
        "text": {
          "status": "generated",
          "div": "<div xmlns=\"http://www.w3.org/1999/xhtml\"><table class=\"hl7__eu__lab__report\"><tr><th>Test</th><th>10-Mar-2022</th><th>Reference&#xA0;Range</th><th>Unit</th></tr><tr><td>Glucose [Mass/volume] in Urine by Test strip</td><td>1.5</td><td>0 - 0</td><td>H</td><td>mg/dL</td></tr></table></div>"
        },
        "status": "final",
        "subject": {
          "reference": "urn:uuid:c955f4a4-2701-4bfc-ae48-a47109061cc7",
          "display": "Molly Jenkins"
        },
        "effectiveDateTime": "2022-03-10T14:42:11Z",
        "specimen": {
          "reference": "urn:uuid:ab0434eb-2d16-442d-8e52-ce21fb29619c"
        }
      }
    },
    {
      "fullUrl": "urn:uuid:98fcc61d-531e-4f9a-b292-00e6da223da8",
      "resource": {
        "resourceType": "Observation",
        "id": "98fcc61d-531e-4f9a-b292-00e6da223da8",
        "meta": {
          "profile": [
            "http://hl7.eu/fhir/laboratory/StructureDefinition/Observation-resultslab-eu-lab"
          ]
        },
        "performer": [
          {
            "display": "The Central European Lab"
          }
        ],
        "category": [
          {
            "coding": [
              {
                "system": "http://terminology.hl7.org/CodeSystem/observation-category",
                "code": "laboratory"
              }
            ]
          }
        ],
        "code": {
          "coding": [
            {
              "code": "25428-4",
              "system": "http://loinc.org",
              "display": "Glucose [Presence] in Urine by Test strip"
            }
          ],
          "text": "Glucose [Presence] in Urine by Test strip"
        },
        "text": {
          "status": "generated",
          "div": "<div xmlns=\"http://www.w3.org/1999/xhtml\"><table class=\"hl7__eu__lab__report\"><tr><th>Test</th><th>10-Mar-2022</th><th>Reference&#xA0;Range</th><th>Unit</th></tr><tr><td>Glucose [Presence] in Urine by Test strip</td></tr></table></div>"
        },
        "status": "final",
        "subject": {
          "reference": "urn:uuid:c955f4a4-2701-4bfc-ae48-a47109061cc7",
          "display": "Molly Jenkins"
        },
        "effectiveDateTime": "2022-03-10T14:42:11Z",
        "specimen": {
          "reference": "urn:uuid:ab0434eb-2d16-442d-8e52-ce21fb29619c"
        }
      }
    },
    {
      "fullUrl": "urn:uuid:563f7dcd-a52f-43f3-9bef-cd3bf021c238",
      "resource": {
        "resourceType": "Observation",
        "id": "563f7dcd-a52f-43f3-9bef-cd3bf021c238",
        "meta": {
          "profile": [
            "http://hl7.eu/fhir/laboratory/StructureDefinition/Observation-resultslab-eu-lab"
          ]
        },
        "performer": [
          {
            "display": "The Central European Lab"
          }
        ],
        "category": [
          {
            "coding": [
              {
                "system": "http://terminology.hl7.org/CodeSystem/observation-category",
                "code": "laboratory"
              }
            ]
          }
        ],
        "code": {
          "coding": [
            {
              "code": "20505-4",
              "system": "http://loinc.org",
              "display": "Bilirubin.total [Mass/volume] in Urine by Test strip"
            }
          ],
          "text": "Bilirubin.total [Mass/volume] in Urine by Test strip"
        },
        "valueQuantity": {
          "system": "http://unitsofmeasure.org",
          "value": 0.3,
          "unit": "mg/dL",
          "code": "mg/dL"
        },
        "referenceRange": [
          {
            "low": {
              "value": 0,
              "code": "mg/dL",
              "system": "http://unitsofmeasure.org"
            }
          },
          {
            "high": {
              "value": 1.6,
              "code": "mg/dL",
              "system": "http://unitsofmeasure.org"
            }
          }
        ],
        "text": {
          "status": "generated",
          "div": "<div xmlns=\"http://www.w3.org/1999/xhtml\"><table class=\"hl7__eu__lab__report\"><tr><th>Test</th><th>10-Mar-2022</th><th>Reference&#xA0;Range</th><th>Unit</th></tr><tr><td>Bilirubin.total [Mass/volume] in Urine by Test strip</td><td>0.3</td><td>0 - 1.6</td><td></td><td>mg/dL</td></tr></table></div>"
        },
        "status": "final",
        "subject": {
          "reference": "urn:uuid:c955f4a4-2701-4bfc-ae48-a47109061cc7",
          "display": "Molly Jenkins"
        },
        "effectiveDateTime": "2022-03-10T14:42:11Z",
        "specimen": {
          "reference": "urn:uuid:ab0434eb-2d16-442d-8e52-ce21fb29619c"
        }
      }
    },
    {
      "fullUrl": "urn:uuid:7e03b782-33b7-451b-a1d6-3df9380fb722",
      "resource": {
        "resourceType": "Observation",
        "id": "7e03b782-33b7-451b-a1d6-3df9380fb722",
        "meta": {
          "profile": [
            "http://hl7.eu/fhir/laboratory/StructureDefinition/Observation-resultslab-eu-lab"
          ]
        },
        "performer": [
          {
            "display": "The Central European Lab"
          }
        ],
        "category": [
          {
            "coding": [
              {
                "system": "http://terminology.hl7.org/CodeSystem/observation-category",
                "code": "laboratory"
              }
            ]
          }
        ],
        "code": {
          "coding": [
            {
              "code": "5770-3",
              "system": "http://loinc.org",
              "display": "Bilirubin.total [Presence] in Urine by Test strip"
            }
          ],
          "text": "Bilirubin.total [Presence] in Urine by Test strip"
        },
        "text": {
          "status": "generated",
          "div": "<div xmlns=\"http://www.w3.org/1999/xhtml\"><table class=\"hl7__eu__lab__report\"><tr><th>Test</th><th>10-Mar-2022</th><th>Reference&#xA0;Range</th><th>Unit</th></tr><tr><td>Bilirubin.total [Presence] in Urine by Test strip</td></tr></table></div>"
        },
        "status": "final",
        "subject": {
          "reference": "urn:uuid:c955f4a4-2701-4bfc-ae48-a47109061cc7",
          "display": "Molly Jenkins"
        },
        "effectiveDateTime": "2022-03-10T14:42:11Z",
        "specimen": {
          "reference": "urn:uuid:ab0434eb-2d16-442d-8e52-ce21fb29619c"
        }
      }
    },
    {
      "fullUrl": "urn:uuid:5357310a-5f4c-4722-8dd6-6a3c20df186f",
      "resource": {
        "resourceType": "Observation",
        "id": "5357310a-5f4c-4722-8dd6-6a3c20df186f",
        "meta": {
          "profile": [
            "http://hl7.eu/fhir/laboratory/StructureDefinition/Observation-resultslab-eu-lab"
          ]
        },
        "performer": [
          {
            "display": "The Central European Lab"
          }
        ],
        "category": [
          {
            "coding": [
              {
                "system": "http://terminology.hl7.org/CodeSystem/observation-category",
                "code": "laboratory"
              }
            ]
          }
        ],
        "code": {
          "coding": [
            {
              "code": "5797-6",
              "system": "http://loinc.org",
              "display": "Ketones [Mass/volume] in Urine by Test strip"
            }
          ],
          "text": "Ketones [Mass/volume] in Urine by Test strip"
        },
        "valueQuantity": {
          "system": "http://unitsofmeasure.org",
          "value": 15.1,
          "unit": "mg/dL",
          "code": "mg/dL"
        },
        "referenceRange": [
          {
            "low": {
              "value": 0,
              "code": "mg/dL",
              "system": "http://unitsofmeasure.org"
            }
          },
          {
            "high": {
              "value": 0.5,
              "code": "mg/dL",
              "system": "http://unitsofmeasure.org"
            }
          }
        ],
        "interpretation": [
          {
            "coding": [
              {
                "code": "H",
                "system": "http://terminology.hl7.org/CodeSystem/v3-ObservationInterpretation",
                "display": "High"
              }
            ]
          }
        ],
        "text": {
          "status": "generated",
          "div": "<div xmlns=\"http://www.w3.org/1999/xhtml\"><table class=\"hl7__eu__lab__report\"><tr><th>Test</th><th>10-Mar-2022</th><th>Reference&#xA0;Range</th><th>Unit</th></tr><tr><td>Ketones [Mass/volume] in Urine by Test strip</td><td>15.1</td><td>0 - 0.5</td><td>H</td><td>mg/dL</td></tr></table></div>"
        },
        "status": "final",
        "subject": {
          "reference": "urn:uuid:c955f4a4-2701-4bfc-ae48-a47109061cc7",
          "display": "Molly Jenkins"
        },
        "effectiveDateTime": "2022-03-10T14:42:11Z",
        "specimen": {
          "reference": "urn:uuid:ab0434eb-2d16-442d-8e52-ce21fb29619c"
        }
      }
    },
    {
      "fullUrl": "urn:uuid:61184bab-52bf-4204-a75c-3d7a8a0e434f",
      "resource": {
        "resourceType": "Observation",
        "id": "61184bab-52bf-4204-a75c-3d7a8a0e434f",
        "meta": {
          "profile": [
            "http://hl7.eu/fhir/laboratory/StructureDefinition/Observation-resultslab-eu-lab"
          ]
        },
        "performer": [
          {
            "display": "The Central European Lab"
          }
        ],
        "category": [
          {
            "coding": [
              {
                "system": "http://terminology.hl7.org/CodeSystem/observation-category",
                "code": "laboratory"
              }
            ]
          }
        ],
        "code": {
          "coding": [
            {
              "code": "2514-8",
              "system": "http://loinc.org",
              "display": "Ketones [Presence] in Urine by Test strip"
            }
          ],
          "text": "Ketones [Presence] in Urine by Test strip"
        },
        "text": {
          "status": "generated",
          "div": "<div xmlns=\"http://www.w3.org/1999/xhtml\"><table class=\"hl7__eu__lab__report\"><tr><th>Test</th><th>10-Mar-2022</th><th>Reference&#xA0;Range</th><th>Unit</th></tr><tr><td>Ketones [Presence] in Urine by Test strip</td></tr></table></div>"
        },
        "status": "final",
        "subject": {
          "reference": "urn:uuid:c955f4a4-2701-4bfc-ae48-a47109061cc7",
          "display": "Molly Jenkins"
        },
        "effectiveDateTime": "2022-03-10T14:42:11Z",
        "specimen": {
          "reference": "urn:uuid:ab0434eb-2d16-442d-8e52-ce21fb29619c"
        }
      }
    },
    {
      "fullUrl": "urn:uuid:f82cb8ae-30e1-4d4d-9b39-7ada1c3f3d83",
      "resource": {
        "resourceType": "Observation",
        "id": "f82cb8ae-30e1-4d4d-9b39-7ada1c3f3d83",
        "meta": {
          "profile": [
            "http://hl7.eu/fhir/laboratory/StructureDefinition/Observation-resultslab-eu-lab"
          ]
        },
        "performer": [
          {
            "display": "The Central European Lab"
          }
        ],
        "category": [
          {
            "coding": [
              {
                "system": "http://terminology.hl7.org/CodeSystem/observation-category",
                "code": "laboratory"
              }
            ]
          }
        ],
        "code": {
          "coding": [
            {
              "code": "5811-5",
              "system": "http://loinc.org",
              "display": "Specific gravity of Urine by Test strip"
            }
          ],
          "text": "Specific gravity of Urine by Test strip"
        },
        "valueQuantity": {
          "system": "http://unitsofmeasure.org",
          "value": 1,
          "unit": "{nominal}",
          "code": "{nominal}"
        },
        "referenceRange": [
          {
            "low": {
              "value": 1.005,
              "code": "g/mL",
              "system": "http://unitsofmeasure.org"
            }
          },
          {
            "high": {
              "value": 1.03,
              "code": "g/mL",
              "system": "http://unitsofmeasure.org"
            }
          }
        ],
        "interpretation": [
          {
            "coding": [
              {
                "code": "L",
                "system": "http://terminology.hl7.org/CodeSystem/v3-ObservationInterpretation",
                "display": "Low"
              }
            ]
          }
        ],
        "text": {
          "status": "generated",
          "div": "<div xmlns=\"http://www.w3.org/1999/xhtml\"><table class=\"hl7__eu__lab__report\"><tr><th>Test</th><th>10-Mar-2022</th><th>Reference&#xA0;Range</th><th>Unit</th></tr><tr><td>Specific gravity of Urine by Test strip</td><td>1.0</td><td>1.005 - 1.03</td><td>L</td><td>{nominal}</td></tr></table></div>"
        },
        "status": "final",
        "subject": {
          "reference": "urn:uuid:c955f4a4-2701-4bfc-ae48-a47109061cc7",
          "display": "Molly Jenkins"
        },
        "effectiveDateTime": "2022-03-10T14:42:11Z",
        "specimen": {
          "reference": "urn:uuid:ab0434eb-2d16-442d-8e52-ce21fb29619c"
        }
      }
    },
    {
      "fullUrl": "urn:uuid:f8b1975b-a3e4-40a9-b959-0da7d407cf96",
      "resource": {
        "resourceType": "Observation",
        "id": "f8b1975b-a3e4-40a9-b959-0da7d407cf96",
        "meta": {
          "profile": [
            "http://hl7.eu/fhir/laboratory/StructureDefinition/Observation-resultslab-eu-lab"
          ]
        },
        "performer": [
          {
            "display": "The Central European Lab"
          }
        ],
        "category": [
          {
            "coding": [
              {
                "system": "http://terminology.hl7.org/CodeSystem/observation-category",
                "code": "laboratory"
              }
            ]
          }
        ],
        "code": {
          "coding": [
            {
              "code": "5803-2",
              "system": "http://loinc.org",
              "display": "pH of Urine by Test strip"
            }
          ],
          "text": "pH of Urine by Test strip"
        },
        "valueQuantity": {
          "system": "http://unitsofmeasure.org",
          "value": 5.3,
          "unit": "pH",
          "code": "pH"
        },
        "referenceRange": [
          {
            "low": {
              "value": 4.5,
              "code": "pH",
              "system": "http://unitsofmeasure.org"
            }
          },
          {
            "high": {
              "value": 7.5,
              "code": "pH",
              "system": "http://unitsofmeasure.org"
            }
          }
        ],
        "text": {
          "status": "generated",
          "div": "<div xmlns=\"http://www.w3.org/1999/xhtml\"><table class=\"hl7__eu__lab__report\"><tr><th>Test</th><th>10-Mar-2022</th><th>Reference&#xA0;Range</th><th>Unit</th></tr><tr><td>pH of Urine by Test strip</td><td>5.3</td><td>4.5 - 7.5</td><td></td><td>pH</td></tr></table></div>"
        },
        "status": "final",
        "subject": {
          "reference": "urn:uuid:c955f4a4-2701-4bfc-ae48-a47109061cc7",
          "display": "Molly Jenkins"
        },
        "effectiveDateTime": "2022-03-10T14:42:11Z",
        "specimen": {
          "reference": "urn:uuid:ab0434eb-2d16-442d-8e52-ce21fb29619c"
        }
      }
    },
    {
      "fullUrl": "urn:uuid:7671a9b3-6184-40a6-888a-eb8086f1a027",
      "resource": {
        "resourceType": "Observation",
        "id": "7671a9b3-6184-40a6-888a-eb8086f1a027",
        "meta": {
          "profile": [
            "http://hl7.eu/fhir/laboratory/StructureDefinition/Observation-resultslab-eu-lab"
          ]
        },
        "performer": [
          {
            "display": "The Central European Lab"
          }
        ],
        "category": [
          {
            "coding": [
              {
                "system": "http://terminology.hl7.org/CodeSystem/observation-category",
                "code": "laboratory"
              }
            ]
          }
        ],
        "code": {
          "coding": [
            {
              "code": "5804-0",
              "system": "http://loinc.org",
              "display": "Protein [Mass/volume] in Urine by Test strip"
            }
          ],
          "text": "Protein [Mass/volume] in Urine by Test strip"
        },
        "valueQuantity": {
          "system": "http://unitsofmeasure.org",
          "value": 282.8,
          "unit": "mg/dL",
          "code": "mg/dL"
        },
        "referenceRange": [
          {
            "low": {
              "value": 0,
              "code": "mg/dL",
              "system": "http://unitsofmeasure.org"
            }
          },
          {
            "high": {
              "value": 15,
              "code": "mg/dL",
              "system": "http://unitsofmeasure.org"
            }
          }
        ],
        "interpretation": [
          {
            "coding": [
              {
                "code": "H",
                "system": "http://terminology.hl7.org/CodeSystem/v3-ObservationInterpretation",
                "display": "High"
              }
            ]
          }
        ],
        "text": {
          "status": "generated",
          "div": "<div xmlns=\"http://www.w3.org/1999/xhtml\"><table class=\"hl7__eu__lab__report\"><tr><th>Test</th><th>10-Mar-2022</th><th>Reference&#xA0;Range</th><th>Unit</th></tr><tr><td>Protein [Mass/volume] in Urine by Test strip</td><td>282.8</td><td>0 - 15</td><td>H</td><td>mg/dL</td></tr></table></div>"
        },
        "status": "final",
        "subject": {
          "reference": "urn:uuid:c955f4a4-2701-4bfc-ae48-a47109061cc7",
          "display": "Molly Jenkins"
        },
        "effectiveDateTime": "2022-03-10T14:42:11Z",
        "specimen": {
          "reference": "urn:uuid:ab0434eb-2d16-442d-8e52-ce21fb29619c"
        }
      }
    },
    {
      "fullUrl": "urn:uuid:b880c318-3e82-460f-b2d0-b4f89ef5e396",
      "resource": {
        "resourceType": "Observation",
        "id": "b880c318-3e82-460f-b2d0-b4f89ef5e396",
        "meta": {
          "profile": [
            "http://hl7.eu/fhir/laboratory/StructureDefinition/Observation-resultslab-eu-lab"
          ]
        },
        "performer": [
          {
            "display": "The Central European Lab"
          }
        ],
        "category": [
          {
            "coding": [
              {
                "system": "http://terminology.hl7.org/CodeSystem/observation-category",
                "code": "laboratory"
              }
            ]
          }
        ],
        "code": {
          "coding": [
            {
              "code": "20454-5",
              "system": "http://loinc.org",
              "display": "Protein [Presence] in Urine by Test strip"
            }
          ],
          "text": "Protein [Presence] in Urine by Test strip"
        },
        "text": {
          "status": "generated",
          "div": "<div xmlns=\"http://www.w3.org/1999/xhtml\"><table class=\"hl7__eu__lab__report\"><tr><th>Test</th><th>10-Mar-2022</th><th>Reference&#xA0;Range</th><th>Unit</th></tr><tr><td>Protein [Presence] in Urine by Test strip</td></tr></table></div>"
        },
        "status": "final",
        "subject": {
          "reference": "urn:uuid:c955f4a4-2701-4bfc-ae48-a47109061cc7",
          "display": "Molly Jenkins"
        },
        "effectiveDateTime": "2022-03-10T14:42:11Z",
        "specimen": {
          "reference": "urn:uuid:ab0434eb-2d16-442d-8e52-ce21fb29619c"
        }
      }
    },
    {
      "fullUrl": "urn:uuid:2db31d06-54f3-4f13-8e59-4397ec1a571e",
      "resource": {
        "resourceType": "Observation",
        "id": "2db31d06-54f3-4f13-8e59-4397ec1a571e",
        "meta": {
          "profile": [
            "http://hl7.eu/fhir/laboratory/StructureDefinition/Observation-resultslab-eu-lab"
          ]
        },
        "performer": [
          {
            "display": "The Central European Lab"
          }
        ],
        "category": [
          {
            "coding": [
              {
                "system": "http://terminology.hl7.org/CodeSystem/observation-category",
                "code": "laboratory"
              }
            ]
          }
        ],
        "code": {
          "coding": [
            {
              "code": "5802-4",
              "system": "http://loinc.org",
              "display": "Nitrite [Presence] in Urine by Test strip"
            }
          ],
          "text": "Nitrite [Presence] in Urine by Test strip"
        },
        "text": {
          "status": "generated",
          "div": "<div xmlns=\"http://www.w3.org/1999/xhtml\"><table class=\"hl7__eu__lab__report\"><tr><th>Test</th><th>10-Mar-2022</th><th>Reference&#xA0;Range</th><th>Unit</th></tr><tr><td>Nitrite [Presence] in Urine by Test strip</td></tr></table></div>"
        },
        "status": "final",
        "subject": {
          "reference": "urn:uuid:c955f4a4-2701-4bfc-ae48-a47109061cc7",
          "display": "Molly Jenkins"
        },
        "effectiveDateTime": "2022-03-10T14:42:11Z",
        "specimen": {
          "reference": "urn:uuid:ab0434eb-2d16-442d-8e52-ce21fb29619c"
        }
      }
    },
    {
      "fullUrl": "urn:uuid:896eb601-ea0c-4332-891a-9dbcfe1e4cc5",
      "resource": {
        "resourceType": "Observation",
        "id": "896eb601-ea0c-4332-891a-9dbcfe1e4cc5",
        "meta": {
          "profile": [
            "http://hl7.eu/fhir/laboratory/StructureDefinition/Observation-resultslab-eu-lab"
          ]
        },
        "performer": [
          {
            "display": "The Central European Lab"
          }
        ],
        "category": [
          {
            "coding": [
              {
                "system": "http://terminology.hl7.org/CodeSystem/observation-category",
                "code": "laboratory"
              }
            ]
          }
        ],
        "code": {
          "coding": [
            {
              "code": "5794-3",
              "system": "http://loinc.org",
              "display": "Hemoglobin [Presence] in Urine by Test strip"
            }
          ],
          "text": "Hemoglobin [Presence] in Urine by Test strip"
        },
        "text": {
          "status": "generated",
          "div": "<div xmlns=\"http://www.w3.org/1999/xhtml\"><table class=\"hl7__eu__lab__report\"><tr><th>Test</th><th>10-Mar-2022</th><th>Reference&#xA0;Range</th><th>Unit</th></tr><tr><td>Hemoglobin [Presence] in Urine by Test strip</td></tr></table></div>"
        },
        "status": "final",
        "subject": {
          "reference": "urn:uuid:c955f4a4-2701-4bfc-ae48-a47109061cc7",
          "display": "Molly Jenkins"
        },
        "effectiveDateTime": "2022-03-10T14:42:11Z",
        "specimen": {
          "reference": "urn:uuid:ab0434eb-2d16-442d-8e52-ce21fb29619c"
        }
      }
    },
    {
      "fullUrl": "urn:uuid:fd7e4450-097e-4fcd-b0ec-52c48a517459",
      "resource": {
        "resourceType": "Observation",
        "id": "fd7e4450-097e-4fcd-b0ec-52c48a517459",
        "meta": {
          "profile": [
            "http://hl7.eu/fhir/laboratory/StructureDefinition/Observation-resultslab-eu-lab"
          ]
        },
        "performer": [
          {
            "display": "The Central European Lab"
          }
        ],
        "category": [
          {
            "coding": [
              {
                "system": "http://terminology.hl7.org/CodeSystem/observation-category",
                "code": "laboratory"
              }
            ]
          }
        ],
        "code": {
          "coding": [
            {
              "code": "5799-2",
              "system": "http://loinc.org",
              "display": "Leukocyte esterase [Presence] in Urine by Test strip"
            }
          ],
          "text": "Leukocyte esterase [Presence] in Urine by Test strip"
        },
        "text": {
          "status": "generated",
          "div": "<div xmlns=\"http://www.w3.org/1999/xhtml\"><table class=\"hl7__eu__lab__report\"><tr><th>Test</th><th>10-Mar-2022</th><th>Reference&#xA0;Range</th><th>Unit</th></tr><tr><td>Leukocyte esterase [Presence] in Urine by Test strip</td></tr></table></div>"
        },
        "status": "final",
        "subject": {
          "reference": "urn:uuid:c955f4a4-2701-4bfc-ae48-a47109061cc7",
          "display": "Molly Jenkins"
        },
        "effectiveDateTime": "2022-03-10T14:42:11Z",
        "specimen": {
          "reference": "urn:uuid:ab0434eb-2d16-442d-8e52-ce21fb29619c"
        }
      }
    },
    {
      "fullUrl": "urn:uuid:4aaadebb-bed6-40a6-839b-5abc1f825202",
      "resource": {
        "resourceType": "Observation",
        "id": "4aaadebb-bed6-40a6-839b-5abc1f825202",
        "meta": {
          "profile": [
            "http://hl7.eu/fhir/laboratory/StructureDefinition/Observation-resultslab-eu-lab"
          ]
        },
        "performer": [
          {
            "display": "The Central European Lab"
          }
        ],
        "category": [
          {
            "coding": [
              {
                "system": "http://terminology.hl7.org/CodeSystem/observation-category",
                "code": "laboratory"
              }
            ]
          }
        ],
        "code": {
          "coding": [
            {
              "code": "4548-4",
              "system": "http://loinc.org",
              "display": "Hemoglobin A1c/Hemoglobin.total in Blood"
            }
          ],
          "text": "Hemoglobin A1c/Hemoglobin.total in Blood"
        },
        "valueQuantity": {
          "system": "http://unitsofmeasure.org",
          "value": 3.1,
          "unit": "%",
          "code": "%"
        },
        "referenceRange": [
          {
            "low": {
              "value": 4,
              "code": "%",
              "system": "http://unitsofmeasure.org"
            }
          },
          {
            "high": {
              "value": 6,
              "code": "%",
              "system": "http://unitsofmeasure.org"
            }
          }
        ],
        "interpretation": [
          {
            "coding": [
              {
                "code": "L",
                "system": "http://terminology.hl7.org/CodeSystem/v3-ObservationInterpretation",
                "display": "Low"
              }
            ]
          }
        ],
        "text": {
          "status": "generated",
          "div": "<div xmlns=\"http://www.w3.org/1999/xhtml\"><table class=\"hl7__eu__lab__report\"><tr><th>Test</th><th>10-Mar-2022</th><th>Reference&#xA0;Range</th><th>Unit</th></tr><tr><td>Hemoglobin A1c/Hemoglobin.total in Blood</td><td>3.1</td><td>4 - 6</td><td>L</td><td>%</td></tr></table></div>"
        },
        "status": "final",
        "subject": {
          "reference": "urn:uuid:c955f4a4-2701-4bfc-ae48-a47109061cc7",
          "display": "Molly Jenkins"
        },
        "effectiveDateTime": "2022-03-10T14:42:11Z",
        "specimen": {
          "reference": "urn:uuid:f23a4cb5-5f56-49d9-ab80-32eeda2c4970"
        }
      }
    },
    {
      "fullUrl": "urn:uuid:a516a860-29e2-4153-92dc-feb1d8e06a58",
      "resource": {
        "resourceType": "Observation",
        "id": "a516a860-29e2-4153-92dc-feb1d8e06a58",
        "meta": {
          "profile": [
            "http://hl7.eu/fhir/laboratory/StructureDefinition/Observation-resultslab-eu-lab"
          ]
        },
        "performer": [
          {
            "display": "The Central European Lab"
          }
        ],
        "category": [
          {
            "coding": [
              {
                "system": "http://terminology.hl7.org/CodeSystem/observation-category",
                "code": "laboratory"
              }
            ]
          }
        ],
        "code": {
          "coding": [
            {
              "code": "2339-0",
              "system": "http://loinc.org",
              "display": "Glucose [Mass/volume] in Blood"
            }
          ],
          "text": "Glucose [Mass/volume] in Blood"
        },
        "valueQuantity": {
          "system": "http://unitsofmeasure.org",
          "value": 79.3,
          "unit": "mg/dL",
          "code": "mg/dL"
        },
        "referenceRange": [
          {
            "low": {
              "value": 70,
              "code": "mg/dL",
              "system": "http://unitsofmeasure.org"
            }
          },
          {
            "high": {
              "value": 100,
              "code": "mg/dL",
              "system": "http://unitsofmeasure.org"
            }
          }
        ],
        "text": {
          "status": "generated",
          "div": "<div xmlns=\"http://www.w3.org/1999/xhtml\"><table class=\"hl7__eu__lab__report\"><tr><th>Test</th><th>10-Mar-2022</th><th>Reference&#xA0;Range</th><th>Unit</th></tr><tr><td>Glucose [Mass/volume] in Blood</td><td>79.3</td><td>70 - 100</td><td></td><td>mg/dL</td></tr></table></div>"
        },
        "status": "final",
        "subject": {
          "reference": "urn:uuid:c955f4a4-2701-4bfc-ae48-a47109061cc7",
          "display": "Molly Jenkins"
        },
        "effectiveDateTime": "2022-03-10T14:42:11Z",
        "specimen": {
          "reference": "urn:uuid:f23a4cb5-5f56-49d9-ab80-32eeda2c4970"
        }
      }
    },
    {
      "fullUrl": "urn:uuid:cc8896c9-3c5c-4738-8f8d-c86fd5c547d6",
      "resource": {
        "resourceType": "Observation",
        "id": "cc8896c9-3c5c-4738-8f8d-c86fd5c547d6",
        "meta": {
          "profile": [
            "http://hl7.eu/fhir/laboratory/StructureDefinition/Observation-resultslab-eu-lab"
          ]
        },
        "performer": [
          {
            "display": "The Central European Lab"
          }
        ],
        "category": [
          {
            "coding": [
              {
                "system": "http://terminology.hl7.org/CodeSystem/observation-category",
                "code": "laboratory"
              }
            ]
          }
        ],
        "code": {
          "coding": [
            {
              "code": "6299-2",
              "system": "http://loinc.org",
              "display": "Urea nitrogen [Mass/volume] in Blood"
            }
          ],
          "text": "Urea nitrogen [Mass/volume] in Blood"
        },
        "valueQuantity": {
          "system": "http://unitsofmeasure.org",
          "value": 13.3,
          "unit": "mg/dL",
          "code": "mg/dL"
        },
        "referenceRange": [
          {
            "low": {
              "value": 7,
              "code": "mg/dL",
              "system": "http://unitsofmeasure.org"
            }
          },
          {
            "high": {
              "value": 20,
              "code": "mg/dL",
              "system": "http://unitsofmeasure.org"
            }
          }
        ],
        "text": {
          "status": "generated",
          "div": "<div xmlns=\"http://www.w3.org/1999/xhtml\"><table class=\"hl7__eu__lab__report\"><tr><th>Test</th><th>10-Mar-2022</th><th>Reference&#xA0;Range</th><th>Unit</th></tr><tr><td>Urea nitrogen [Mass/volume] in Blood</td><td>13.3</td><td>7 - 20</td><td></td><td>mg/dL</td></tr></table></div>"
        },
        "status": "final",
        "subject": {
          "reference": "urn:uuid:c955f4a4-2701-4bfc-ae48-a47109061cc7",
          "display": "Molly Jenkins"
        },
        "effectiveDateTime": "2022-03-10T14:42:11Z",
        "specimen": {
          "reference": "urn:uuid:f23a4cb5-5f56-49d9-ab80-32eeda2c4970"
        }
      }
    },
    {
      "fullUrl": "urn:uuid:f7332b8f-853a-47b2-82da-2a0a06ffd2af",
      "resource": {
        "resourceType": "Observation",
        "id": "f7332b8f-853a-47b2-82da-2a0a06ffd2af",
        "meta": {
          "profile": [
            "http://hl7.eu/fhir/laboratory/StructureDefinition/Observation-resultslab-eu-lab"
          ]
        },
        "performer": [
          {
            "display": "The Central European Lab"
          }
        ],
        "category": [
          {
            "coding": [
              {
                "system": "http://terminology.hl7.org/CodeSystem/observation-category",
                "code": "laboratory"
              }
            ]
          }
        ],
        "code": {
          "coding": [
            {
              "code": "38483-4",
              "system": "http://loinc.org",
              "display": "Creatinine [Mass/volume] in Blood"
            }
          ],
          "text": "Creatinine [Mass/volume] in Blood"
        },
        "valueQuantity": {
          "system": "http://unitsofmeasure.org",
          "value": 1.2,
          "unit": "mg/dL",
          "code": "mg/dL"
        },
        "referenceRange": [
          {
            "low": {
              "value": 0.6,
              "code": "mg/dL",
              "system": "http://unitsofmeasure.org"
            }
          },
          {
            "high": {
              "value": 1.3,
              "code": "mg/dL",
              "system": "http://unitsofmeasure.org"
            }
          }
        ],
        "text": {
          "status": "generated",
          "div": "<div xmlns=\"http://www.w3.org/1999/xhtml\"><table class=\"hl7__eu__lab__report\"><tr><th>Test</th><th>10-Mar-2022</th><th>Reference&#xA0;Range</th><th>Unit</th></tr><tr><td>Creatinine [Mass/volume] in Blood</td><td>1.2</td><td>0.6 - 1.3</td><td></td><td>mg/dL</td></tr></table></div>"
        },
        "status": "final",
        "subject": {
          "reference": "urn:uuid:c955f4a4-2701-4bfc-ae48-a47109061cc7",
          "display": "Molly Jenkins"
        },
        "effectiveDateTime": "2022-03-10T14:42:11Z",
        "specimen": {
          "reference": "urn:uuid:f23a4cb5-5f56-49d9-ab80-32eeda2c4970"
        }
      }
    },
    {
      "fullUrl": "urn:uuid:cb92f821-273a-466c-91e7-218bc1582219",
      "resource": {
        "resourceType": "Observation",
        "id": "cb92f821-273a-466c-91e7-218bc1582219",
        "meta": {
          "profile": [
            "http://hl7.eu/fhir/laboratory/StructureDefinition/Observation-resultslab-eu-lab"
          ]
        },
        "performer": [
          {
            "display": "The Central European Lab"
          }
        ],
        "category": [
          {
            "coding": [
              {
                "system": "http://terminology.hl7.org/CodeSystem/observation-category",
                "code": "laboratory"
              }
            ]
          }
        ],
        "code": {
          "coding": [
            {
              "code": "49765-1",
              "system": "http://loinc.org",
              "display": "Calcium [Mass/volume] in Blood"
            }
          ],
          "text": "Calcium [Mass/volume] in Blood"
        },
        "valueQuantity": {
          "system": "http://unitsofmeasure.org",
          "value": 9.1,
          "unit": "mg/dL",
          "code": "mg/dL"
        },
        "referenceRange": [
          {
            "low": {
              "value": 8.6,
              "code": "mg/dL",
              "system": "http://unitsofmeasure.org"
            }
          },
          {
            "high": {
              "value": 10.4,
              "code": "mg/dL",
              "system": "http://unitsofmeasure.org"
            }
          }
        ],
        "text": {
          "status": "generated",
          "div": "<div xmlns=\"http://www.w3.org/1999/xhtml\"><table class=\"hl7__eu__lab__report\"><tr><th>Test</th><th>10-Mar-2022</th><th>Reference&#xA0;Range</th><th>Unit</th></tr><tr><td>Calcium [Mass/volume] in Blood</td><td>9.1</td><td>8.6 - 10.4</td><td></td><td>mg/dL</td></tr></table></div>"
        },
        "status": "final",
        "subject": {
          "reference": "urn:uuid:c955f4a4-2701-4bfc-ae48-a47109061cc7",
          "display": "Molly Jenkins"
        },
        "effectiveDateTime": "2022-03-10T14:42:11Z",
        "specimen": {
          "reference": "urn:uuid:f23a4cb5-5f56-49d9-ab80-32eeda2c4970"
        }
      }
    },
    {
      "fullUrl": "urn:uuid:0ed42027-7e48-40bf-9bad-0c4c7ea562d4",
      "resource": {
        "resourceType": "Observation",
        "id": "0ed42027-7e48-40bf-9bad-0c4c7ea562d4",
        "meta": {
          "profile": [
            "http://hl7.eu/fhir/laboratory/StructureDefinition/Observation-resultslab-eu-lab"
          ]
        },
        "performer": [
          {
            "display": "The Central European Lab"
          }
        ],
        "category": [
          {
            "coding": [
              {
                "system": "http://terminology.hl7.org/CodeSystem/observation-category",
                "code": "laboratory"
              }
            ]
          }
        ],
        "code": {
          "coding": [
            {
              "code": "2947-0",
              "system": "http://loinc.org",
              "display": "Sodium [Moles/volume] in Blood"
            }
          ],
          "text": "Sodium [Moles/volume] in Blood"
        },
        "valueQuantity": {
          "system": "http://unitsofmeasure.org",
          "value": 137.5,
          "unit": "mmol/L",
          "code": "mmol/L"
        },
        "referenceRange": [
          {
            "low": {
              "value": 135,
              "code": "mmol/L",
              "system": "http://unitsofmeasure.org"
            }
          },
          {
            "high": {
              "value": 145,
              "code": "mmol/L",
              "system": "http://unitsofmeasure.org"
            }
          }
        ],
        "text": {
          "status": "generated",
          "div": "<div xmlns=\"http://www.w3.org/1999/xhtml\"><table class=\"hl7__eu__lab__report\"><tr><th>Test</th><th>10-Mar-2022</th><th>Reference&#xA0;Range</th><th>Unit</th></tr><tr><td>Sodium [Moles/volume] in Blood</td><td>137.5</td><td>135 - 145</td><td></td><td>mmol/L</td></tr></table></div>"
        },
        "status": "final",
        "subject": {
          "reference": "urn:uuid:c955f4a4-2701-4bfc-ae48-a47109061cc7",
          "display": "Molly Jenkins"
        },
        "effectiveDateTime": "2022-03-10T14:42:11Z",
        "specimen": {
          "reference": "urn:uuid:f23a4cb5-5f56-49d9-ab80-32eeda2c4970"
        }
      }
    },
    {
      "fullUrl": "urn:uuid:b007ea32-d7fe-41e4-a166-1ee9537721b6",
      "resource": {
        "resourceType": "Observation",
        "id": "b007ea32-d7fe-41e4-a166-1ee9537721b6",
        "meta": {
          "profile": [
            "http://hl7.eu/fhir/laboratory/StructureDefinition/Observation-resultslab-eu-lab"
          ]
        },
        "performer": [
          {
            "display": "The Central European Lab"
          }
        ],
        "category": [
          {
            "coding": [
              {
                "system": "http://terminology.hl7.org/CodeSystem/observation-category",
                "code": "laboratory"
              }
            ]
          }
        ],
        "code": {
          "coding": [
            {
              "code": "6298-4",
              "system": "http://loinc.org",
              "display": "Potassium [Moles/volume] in Blood"
            }
          ],
          "text": "Potassium [Moles/volume] in Blood"
        },
        "valueQuantity": {
          "system": "http://unitsofmeasure.org",
          "value": 4.2,
          "unit": "mmol/L",
          "code": "mmol/L"
        },
        "referenceRange": [
          {
            "low": {
              "value": 3.5,
              "code": "mmol/L",
              "system": "http://unitsofmeasure.org"
            }
          },
          {
            "high": {
              "value": 5.1,
              "code": "mmol/L",
              "system": "http://unitsofmeasure.org"
            }
          }
        ],
        "text": {
          "status": "generated",
          "div": "<div xmlns=\"http://www.w3.org/1999/xhtml\"><table class=\"hl7__eu__lab__report\"><tr><th>Test</th><th>10-Mar-2022</th><th>Reference&#xA0;Range</th><th>Unit</th></tr><tr><td>Potassium [Moles/volume] in Blood</td><td>4.2</td><td>3.5 - 5.1</td><td></td><td>mmol/L</td></tr></table></div>"
        },
        "status": "final",
        "subject": {
          "reference": "urn:uuid:c955f4a4-2701-4bfc-ae48-a47109061cc7",
          "display": "Molly Jenkins"
        },
        "effectiveDateTime": "2022-03-10T14:42:11Z",
        "specimen": {
          "reference": "urn:uuid:f23a4cb5-5f56-49d9-ab80-32eeda2c4970"
        }
      }
    },
    {
      "fullUrl": "urn:uuid:43549573-9430-4d4b-8e17-293b66442e32",
      "resource": {
        "resourceType": "Observation",
        "id": "43549573-9430-4d4b-8e17-293b66442e32",
        "meta": {
          "profile": [
            "http://hl7.eu/fhir/laboratory/StructureDefinition/Observation-resultslab-eu-lab"
          ]
        },
        "performer": [
          {
            "display": "The Central European Lab"
          }
        ],
        "category": [
          {
            "coding": [
              {
                "system": "http://terminology.hl7.org/CodeSystem/observation-category",
                "code": "laboratory"
              }
            ]
          }
        ],
        "code": {
          "coding": [
            {
              "code": "2069-3",
              "system": "http://loinc.org",
              "display": "Chloride [Moles/volume] in Blood"
            }
          ],
          "text": "Chloride [Moles/volume] in Blood"
        },
        "valueQuantity": {
          "system": "http://unitsofmeasure.org",
          "value": 103.5,
          "unit": "mmol/L",
          "code": "mmol/L"
        },
        "referenceRange": [
          {
            "low": {
              "value": 98,
              "code": "mmol/L",
              "system": "http://unitsofmeasure.org"
            }
          },
          {
            "high": {
              "value": 110,
              "code": "mmol/L",
              "system": "http://unitsofmeasure.org"
            }
          }
        ],
        "text": {
          "status": "generated",
          "div": "<div xmlns=\"http://www.w3.org/1999/xhtml\"><table class=\"hl7__eu__lab__report\"><tr><th>Test</th><th>10-Mar-2022</th><th>Reference&#xA0;Range</th><th>Unit</th></tr><tr><td>Chloride [Moles/volume] in Blood</td><td>103.5</td><td>98 - 110</td><td></td><td>mmol/L</td></tr></table></div>"
        },
        "status": "final",
        "subject": {
          "reference": "urn:uuid:c955f4a4-2701-4bfc-ae48-a47109061cc7",
          "display": "Molly Jenkins"
        },
        "effectiveDateTime": "2022-03-10T14:42:11Z",
        "specimen": {
          "reference": "urn:uuid:f23a4cb5-5f56-49d9-ab80-32eeda2c4970"
        }
      }
    },
    {
      "fullUrl": "urn:uuid:df1a83e8-b6e0-4ec9-9ef2-341c11efc9ee",
      "resource": {
        "resourceType": "Observation",
        "id": "df1a83e8-b6e0-4ec9-9ef2-341c11efc9ee",
        "meta": {
          "profile": [
            "http://hl7.eu/fhir/laboratory/StructureDefinition/Observation-resultslab-eu-lab"
          ]
        },
        "performer": [
          {
            "display": "The Central European Lab"
          }
        ],
        "category": [
          {
            "coding": [
              {
                "system": "http://terminology.hl7.org/CodeSystem/observation-category",
                "code": "laboratory"
              }
            ]
          }
        ],
        "code": {
          "coding": [
            {
              "code": "20565-8",
              "system": "http://loinc.org",
              "display": "Carbon dioxide, total [Moles/volume] in Blood"
            }
          ],
          "text": "Carbon dioxide, total [Moles/volume] in Blood"
        },
        "valueQuantity": {
          "system": "http://unitsofmeasure.org",
          "value": 23.9,
          "unit": "mmol/L",
          "code": "mmol/L"
        },
        "referenceRange": [
          {
            "low": {
              "value": 22,
              "code": "mmol/L",
              "system": "http://unitsofmeasure.org"
            }
          },
          {
            "high": {
              "value": 29,
              "code": "mmol/L",
              "system": "http://unitsofmeasure.org"
            }
          }
        ],
        "text": {
          "status": "generated",
          "div": "<div xmlns=\"http://www.w3.org/1999/xhtml\"><table class=\"hl7__eu__lab__report\"><tr><th>Test</th><th>10-Mar-2022</th><th>Reference&#xA0;Range</th><th>Unit</th></tr><tr><td>Carbon dioxide, total [Moles/volume] in Blood</td><td>23.9</td><td>22 - 29</td><td></td><td>mmol/L</td></tr></table></div>"
        },
        "status": "final",
        "subject": {
          "reference": "urn:uuid:c955f4a4-2701-4bfc-ae48-a47109061cc7",
          "display": "Molly Jenkins"
        },
        "effectiveDateTime": "2022-03-10T14:42:11Z",
        "specimen": {
          "reference": "urn:uuid:f23a4cb5-5f56-49d9-ab80-32eeda2c4970"
        }
      }
    },
    {
      "fullUrl": "urn:uuid:4b6e1877-624e-4884-9e31-e9c5dc3734a0",
      "resource": {
        "resourceType": "Device",
        "id": "4b6e1877-624e-4884-9e31-e9c5dc3734a0",
        "deviceName": [
          {
            "name": "SYNDERAI Synthetic Generator",
            "type": "manufacturer-name"
          }
        ],
        "version": [
          {
            "value": "5.0"
          }
        ],
        "text": {
          "status": "generated",
          "div": "<div xmlns=\"http://www.w3.org/1999/xhtml\">SYNDERAI Synthetic Generator v5.0</div>"
        },
        "status": "active\"",
        "distinctIdentifier": "synderai-generator-50",
        "manufacturer": "SYNDERAI Project"
      }
    },
    {
      "fullUrl": "urn:uuid:5adfbe57-19ab-44e2-92c0-35ed08786dab",
      "resource": {
        "resourceType": "Provenance",
        "id": "5adfbe57-19ab-44e2-92c0-35ed08786dab",
        "target": [
          {
            "reference": "Patient/c955f4a4-2701-4bfc-ae48-a47109061cc7"
          },
          {
            "reference": "Bundle/bb09b6c1-5d89-4b69-9400-664170e38431"
          },
          {
            "reference": "Composition/30478db3-83fb-4ba2-96fc-87c08115ecd9"
          },
          {
            "reference": "PractitionerRole/8aa047d1-ef51-4ff0-8a0e-320f5e8ab0fd"
          },
          {
            "reference": "Practitioner/26ad1814-4192-47d7-a977-dee1966c25f2"
          },
          {
            "reference": "PractitionerRole/16efaf98-c1a5-4456-8b53-3f2bda9b42da"
          },
          {
            "reference": "Organization/5be21483-ff60-4deb-8a1a-8aec088be42a"
          }
        ],
        "activity": {
          "text": "Synthetic Example Data Generation"
        },
        "policy": [
          "https://synderai.net/synderai-synthetic-data-policy"
        ],
        "agent": [
          {
            "type": {
              "text": "author"
            },
            "who": {
              "reference": "Device/4b6e1877-624e-4884-9e31-e9c5dc3734a0"
            }
          }
        ],
        "reason": [
          {
            "text": "Interoperability Testing and Training (non-clinical use)"
          }
        ],
        "text": {
          "status": "generated",
          "div": "<div xmlns=\"http://www.w3.org/1999/xhtml\">Provenance for SYNDERAI Synthetic Example Data Resource</div>"
        },
        "recorded": "2022-03-10T15:42:11Z"
      }
    },
    {
      "fullUrl": "urn:uuid:8aa047d1-ef51-4ff0-8a0e-320f5e8ab0fd",
      "resource": {
        "resourceType": "PractitionerRole",
        "id": "8aa047d1-ef51-4ff0-8a0e-320f5e8ab0fd",
        "meta": {
          "profile": [
            "http://hl7.eu/fhir/base/StructureDefinition/practitionerRole-eu"
          ]
        },
        "text": {
          "status": "generated",
          "div": "<div xmlns=\"http://www.w3.org/1999/xhtml\">Laboratory Role Id: 8aa047d1-ef51-4ff0-8a0e-320f5e8ab0fd</div>"
        },
        "practitioner": {
          "reference": "urn:uuid:26ad1814-4192-47d7-a977-dee1966c25f2"
        }
      }
    },
    {
      "fullUrl": "urn:uuid:26ad1814-4192-47d7-a977-dee1966c25f2",
      "resource": {
        "resourceType": "Practitioner",
        "id": "26ad1814-4192-47d7-a977-dee1966c25f2",
        "meta": {
          "profile": [
            "http://hl7.eu/fhir/base/StructureDefinition/practitioner-eu"
          ]
        },
        "identifier": [
          {
            "assigner": {
              "display": "HL7 Europe"
            },
            "system": "urn:oid:2.16.840.1.113883.2.51.999",
            "value": "28493906-ca30-47b9-bacb-770265a2b81c"
          }
        ],
        "name": [
          {
            "prefix": [
              "dr"
            ],
            "given": [
              "Ex"
            ],
            "family": "Ample"
          }
        ],
        "address": [
          {
            "line": [
              "Laboratoire Central Europenne",
              "Boulevard du Jardin Botanique 32"
            ],
            "postalCode": "1000",
            "city": "Brussels",
            "country": "Belgium"
          }
        ],
        "text": {
          "status": "generated",
          "div": "<div xmlns=\"http://www.w3.org/1999/xhtml\">Laboratory: Laboratoire Central Europenne, 1000 Brussels, Belgium</div>"
        }
      }
    }
  ],
  "type": "document",
  "timestamp": "2022-03-10T15:42:11Z"
}
