{
  "resourceType": "Bundle",
  "id": "34bd4aa6-a046-42f6-acb5-6c0d63b5ab25",
  "meta": {
    "profile": [
      "http://hl7.eu/fhir/laboratory/StructureDefinition/Bundle-eu-lab"
    ]
  },
  "identifier": {
    "assigner": {
      "display": "HL7 Europe"
    },
    "system": "urn:oid:2.16.840.1.113883.2.51.999",
    "value": "300a351e-ac82-4e76-9bfb-27e62ab4bd52"
  },
  "entry": [
    {
      "fullUrl": "urn:uuid:261ca951-c88c-40df-8214-b07744e05a22",
      "resource": {
        "resourceType": "Composition",
        "id": "261ca951-c88c-40df-8214-b07744e05a22",
        "meta": {
          "profile": [
            "http://hl7.eu/fhir/laboratory/StructureDefinition/Composition-eu-lab"
          ]
        },
        "identifier": {
          "assigner": {
            "display": "HL7 Europe"
          },
          "system": "urn:oid:2.16.840.1.113883.2.51.999",
          "value": "5bac3f36-835d-4342-abb7-127a21c7e7a7"
        },
        "author": [
          {
            "reference": "urn:uuid:269d338f-8e2c-4504-a7dd-c9280b3cd773"
          }
        ],
        "category": [
          {
            "coding": [
              {
                "code": "26436-6",
                "system": "http://loinc.org",
                "display": "Laboratory studies (set)"
              }
            ]
          }
        ],
        "type": {
          "coding": [
            {
              "code": "11502-2",
              "system": "http://loinc.org",
              "display": "Laboratory report"
            }
          ],
          "text": "Laboratory Report"
        },
        "section": [
          {
            "code": {
              "coding": [
                {
                  "code": "26436-6",
                  "system": "http://loinc.org",
                  "display": "Laboratory studies (set)"
                }
              ],
              "text": "Laboratory studies"
            },
            "section": [
              {
                "code": {
                  "coding": [
                    {
                      "code": "$18719-5",
                      "system": "http://loinc.org",
                      "display": "Chemistry studies (set)"
                    }
                  ],
                  "text": "Chemistry"
                },
                "entry": [
                  {
                    "reference": "urn:uuid:50936fd0-7969-4c83-8316-268ffc31b70f"
                  },
                  {
                    "reference": "urn:uuid:a0748e8d-2011-4ca3-a6d6-0eeaaee5e8db"
                  },
                  {
                    "reference": "urn:uuid:43879ec6-05a4-4705-bed7-c2893386fbaa"
                  },
                  {
                    "reference": "urn:uuid:002a9679-1f12-4834-b19b-5ea460a9e200"
                  },
                  {
                    "reference": "urn:uuid:fb8bb9e3-98af-41c2-a4b3-f226091d7013"
                  },
                  {
                    "reference": "urn:uuid:48ff68fc-ac5c-43c1-8b7b-5eb5ac885224"
                  },
                  {
                    "reference": "urn:uuid:120d724b-419e-4eae-9f3d-ce0bbb76c441"
                  },
                  {
                    "reference": "urn:uuid:db0bba7a-d288-4af3-889f-22bc19f47a90"
                  },
                  {
                    "reference": "urn:uuid:b08dc54d-fe15-4587-b8ed-d2dcd5452ce9"
                  }
                ],
                "text": {
                  "status": "generated",
                  "div": "<div xmlns=\"http://www.w3.org/1999/xhtml\"><h3>Chemistry</h3><table class=\"hl7__eu__lab__report\"><thead><tr><th>Test</th><th>28-FEB-2022</th><th>Reference&#xA0;Range</th><th>Unit</th></tr></thead><tbody><tr><td>Hemoglobin A1c/Hemoglobin.total in Blood</td><td><strong>6.2 H</strong></td><td>4.8 - 5.7</td><td>%</td></tr><tr><td>Glucose [Mass/volume] in Blood</td><td>76.7</td><td>70 - 99</td><td>mg/dL</td></tr><tr><td>Urea nitrogen [Mass/volume] in Blood</td><td>17.9</td><td>7 - 20</td><td>mg/dL</td></tr><tr><td>Creatinine [Mass/volume] in Blood</td><td><strong>1.4 H</strong></td><td>0.6 - 1.1</td><td>mg/dL</td></tr><tr><td>Calcium [Mass/volume] in Blood</td><td>9.4</td><td>8.5 - 10.5</td><td>mg/dL</td></tr><tr><td>Sodium [Moles/volume] in Blood</td><td>136.9</td><td>135 - 145</td><td>mmol/L</td></tr><tr><td>Potassium [Moles/volume] in Blood</td><td>4.4</td><td>3.5 - 5.3</td><td>mmol/L</td></tr><tr><td>Chloride [Moles/volume] in Blood</td><td>101.5</td><td>98 - 114</td><td>mmol/L</td></tr><tr><td>Carbon dioxide, total [Moles/volume] in Blood</td><td>25.6</td><td>22 - 29</td><td>mmol/L</td></tr></tbody></table></div>"
                },
                "title": "Chemistry"
              }
            ],
            "title": "Laboratory Report"
          },
          {
            "text": {
              "status": "generated",
              "div": "<div xmlns=\"http://www.w3.org/1999/xhtml\"><h3>Annotation</h3><table class=\"hl7__eu__lab__report\"><tr><th>Conclusion and Recommendations based on this report and previous findings known to us</th></tr><tr><td>The patient shows elevated HbA1c, indicating suboptimal long-term glycemic control, suggestive of prediabetes or diabetes. Creatinine is mildly elevated, which may reflect reduced renal function. Other parameters, including glucose, electrolytes, urea, and calcium, are within normal limits. Recommend further evaluation of renal function and glycemic management.</td></tr></table></div>"
            },
            "code": {
              "coding": [
                {
                  "system": "http://loinc.org",
                  "code": "48767-8",
                  "display": "Annotation comment"
                }
              ]
            },
            "title": "Annotation comment"
          }
        ],
        "status": "final",
        "subject": {
          "reference": "urn:uuid:639cc307-9dd4-4c8c-b48d-95a514e708c0",
          "display": "Pauline Grenier"
        },
        "date": "2022-02-28T12:54:46Z",
        "title": "Laboratory Report",
        "confidentiality": "N"
      }
    },
    {
      "fullUrl": "urn:uuid:3ddc35d2-4003-4526-9134-ffd575eff504",
      "resource": {
        "resourceType": "DiagnosticReport",
        "id": "3ddc35d2-4003-4526-9134-ffd575eff504",
        "meta": {
          "profile": [
            "http://hl7.eu/fhir/laboratory/StructureDefinition/DiagnosticReport-eu-lab"
          ]
        },
        "identifier": [
          {
            "assigner": {
              "display": "HL7 Europe"
            },
            "system": "urn:oid:2.16.840.1.113883.2.51.999",
            "value": "a1b64210-58f6-489b-bf82-7f41aed5c97a"
          }
        ],
        "extension": [
          {
            "url": "http://hl7.org/fhir/5.0/StructureDefinition/extension-DiagnosticReport.composition",
            "valueReference": {
              "reference": "urn:uuid:5bac3f36-835d-4342-abb7-127a21c7e7a7"
            }
          }
        ],
        "category": [
          {
            "coding": [
              {
                "code": "26436-6",
                "system": "http://loinc.org",
                "display": "Laboratory studies (set)"
              }
            ]
          }
        ],
        "specimen": [
          {
            "reference": "urn:uuid:c69458dc-1cb7-4a00-8f5b-c4a351b3477a"
          }
        ],
        "result": [
          {
            "reference": "urn:uuid:50936fd0-7969-4c83-8316-268ffc31b70f"
          },
          {
            "reference": "urn:uuid:a0748e8d-2011-4ca3-a6d6-0eeaaee5e8db"
          },
          {
            "reference": "urn:uuid:43879ec6-05a4-4705-bed7-c2893386fbaa"
          },
          {
            "reference": "urn:uuid:002a9679-1f12-4834-b19b-5ea460a9e200"
          },
          {
            "reference": "urn:uuid:fb8bb9e3-98af-41c2-a4b3-f226091d7013"
          },
          {
            "reference": "urn:uuid:48ff68fc-ac5c-43c1-8b7b-5eb5ac885224"
          },
          {
            "reference": "urn:uuid:120d724b-419e-4eae-9f3d-ce0bbb76c441"
          },
          {
            "reference": "urn:uuid:db0bba7a-d288-4af3-889f-22bc19f47a90"
          },
          {
            "reference": "urn:uuid:b08dc54d-fe15-4587-b8ed-d2dcd5452ce9"
          }
        ],
        "status": "registered",
        "code": {
          "coding": [
            {
              "code": "11502-2",
              "system": "http://loinc.org",
              "display": "Laboratory report"
            }
          ]
        },
        "subject": {
          "reference": "urn:uuid:639cc307-9dd4-4c8c-b48d-95a514e708c0",
          "display": "Pauline Grenier"
        }
      }
    },
    {
      "fullUrl": "urn:uuid:639cc307-9dd4-4c8c-b48d-95a514e708c0",
      "resource": {
        "resourceType": "Patient",
        "id": "639cc307-9dd4-4c8c-b48d-95a514e708c0",
        "meta": {
          "security": [
            {
              "system": "http://terminology.hl7.org/CodeSystem/v3-ActReason",
              "code": "HTEST"
            },
            {
              "system": "http://terminology.hl7.org/CodeSystem/v3-ActReason",
              "code": "TRAIN"
            }
          ],
          "tag": [
            {
              "system": "https://synderai.net/fhir/CodeSystem/tags",
              "code": "synthetic",
              "display": "SYNDERAI Synthetic data"
            }
          ],
          "profile": [
            "http://hl7.eu/fhir/base/StructureDefinition/patient-eu-core"
          ]
        },
        "identifier": [
          {
            "type": {
              "coding": [
                {
                  "code": "PT",
                  "system": "http://terminology.hl7.org/CodeSystem/v2-0203"
                }
              ]
            },
            "system": "http://ec.europa.eu/identifier/eci",
            "value": "6776-872657-1"
          },
          {
            "type": {
              "coding": [
                {
                  "code": "MR",
                  "system": "http://terminology.hl7.org/CodeSystem/v2-0203"
                }
              ]
            },
            "system": "http://local.setting.eu/identifier",
            "value": "a90ff566-3092-3af0-91f2-c0514ba66d35"
          }
        ],
        "name": [
          {
            "family": "Grenier"
          },
          {
            "given": [
              "Pauline"
            ]
          },
          {
            "text": "Pauline Grenier"
          }
        ],
        "address": [
          {
            "line": [
              "114, avenue Georges"
            ],
            "use": "home",
            "type": "physical",
            "postalCode": "71110",
            "city": "Caron",
            "country": "France"
          }
        ],
        "telecom": [
          {
            "system": "phone",
            "value": "+33 4 26 27 51 56"
          }
        ],
        "extension": [
          {
            "url": "http://hl7.org/fhir/StructureDefinition/patient-nationality",
            "valueCodeableConcept": {
              "coding": [
                {
                  "code": "FR",
                  "system": "http://hl7.org/fhir/ValueSet/country"
                }
              ]
            }
          }
        ],
        "text": {
          "status": "generated",
          "div": "<div xmlns=\"http://www.w3.org/1999/xhtml\"><table class=\"hl7__ips\"><tr><td>Pauline Grenier</td><td>female</td><td>03-May-1971</td></tr></table></div>"
        },
        "gender": "female",
        "birthDate": "1971-05-03"
      }
    },
    {
      "fullUrl": "urn:uuid:e439116f-169d-475e-81e2-c599c8b43c99",
      "resource": {
        "resourceType": "ServiceRequest",
        "id": "e439116f-169d-475e-81e2-c599c8b43c99",
        "meta": {
          "profile": [
            "http://hl7.eu/fhir/laboratory/StructureDefinition/ServiceRequest-eu-lab"
          ]
        },
        "identifier": [
          {
            "system": "http://example.org",
            "value": "5710d9d8-7d61-487f-a70f-8360e2eaf943"
          }
        ],
        "specimen": [
          {
            "reference": "urn:uuid:c69458dc-1cb7-4a00-8f5b-c4a351b3477a"
          }
        ],
        "reasonCode": [
          {
            "coding": [
              {
                "code": "59621000",
                "system": "http://snomed.info/sct",
                "display": "Essential hypertension"
              }
            ]
          },
          {
            "coding": [
              {
                "code": "237602007",
                "system": "http://snomed.info/sct",
                "display": "Metabolic syndrome X"
              }
            ]
          },
          {
            "coding": [
              {
                "code": "15777000",
                "system": "http://snomed.info/sct",
                "display": "Prediabetes"
              }
            ]
          }
        ],
        "status": "active",
        "intent": "order",
        "code": {
          "coding": [
            {
              "code": "108252007",
              "system": "http://snomed.info/sct",
              "display": "Laboratory procedure"
            }
          ]
        },
        "subject": {
          "reference": "urn:uuid:639cc307-9dd4-4c8c-b48d-95a514e708c0",
          "display": "Pauline Grenier"
        },
        "requester": {
          "reference": "urn:uuid:3e9f4ef4-d625-4921-b07c-193bab38b715"
        }
      }
    },
    {
      "fullUrl": "urn:uuid:3e9f4ef4-d625-4921-b07c-193bab38b715",
      "resource": {
        "resourceType": "PractitionerRole",
        "id": "3e9f4ef4-d625-4921-b07c-193bab38b715",
        "meta": {
          "profile": [
            "http://hl7.eu/fhir/base/StructureDefinition/practitionerRole-eu"
          ]
        },
        "text": {
          "status": "generated",
          "div": "<div xmlns=\"http://www.w3.org/1999/xhtml\">Provider Role Id: 3e9f4ef4-d625-4921-b07c-193bab38b715</div>"
        },
        "organization": {
          "reference": "urn:uuid:caa5bf7a-bf2c-4717-9718-897e1125cf32"
        }
      }
    },
    {
      "fullUrl": "urn:uuid:caa5bf7a-bf2c-4717-9718-897e1125cf32",
      "resource": {
        "resourceType": "Organization",
        "id": "caa5bf7a-bf2c-4717-9718-897e1125cf32",
        "meta": {
          "profile": [
            "http://hl7.eu/fhir/base/StructureDefinition/organization-eu"
          ]
        },
        "identifier": [
          {
            "assigner": {
              "display": "HL7 Europe"
            },
            "system": "urn:oid:2.16.840.1.113883.2.51.999",
            "value": "dbfeef0c-ad00-4180-97c8-adf6cad0086d"
          }
        ],
        "address": [
          {
            "city": "Le Creusot",
            "postalCode": "71200",
            "country": "France"
          }
        ],
        "text": {
          "status": "generated",
          "div": "<div xmlns=\"http://www.w3.org/1999/xhtml\">Provider Organization: Hôpital du Creusot - Site Foch</div>"
        },
        "name": "Hôpital du Creusot - Site Foch"
      }
    },
    {
      "fullUrl": "urn:uuid:c69458dc-1cb7-4a00-8f5b-c4a351b3477a",
      "resource": {
        "resourceType": "Specimen",
        "id": "c69458dc-1cb7-4a00-8f5b-c4a351b3477a",
        "meta": {
          "profile": [
            "http://hl7.eu/fhir/laboratory/StructureDefinition/Specimen-eu-lab"
          ]
        },
        "collection": {
          "collectedDateTime": "2022-02-28"
        },
        "text": {
          "status": "generated",
          "div": "<div xmlns=\"http://www.w3.org/1999/xhtml\"><table class=\"hl7__eu__lab__report\"><tr><th>Specimen</th><th>Collection Date</th></tr><tr><td>Whole blood specimen (specimen)</td><td><span class=\"nb\">28-Feb-2022</span></td></tr></table></div>"
        },
        "type": {
          "coding": [
            {
              "code": "258580003",
              "system": "http://snomed.info/sct",
              "display": "Whole blood specimen (specimen)"
            }
          ]
        }
      }
    },
    {
      "fullUrl": "urn:uuid:50936fd0-7969-4c83-8316-268ffc31b70f",
      "resource": {
        "resourceType": "Observation",
        "id": "50936fd0-7969-4c83-8316-268ffc31b70f",
        "meta": {
          "profile": [
            "http://hl7.eu/fhir/laboratory/StructureDefinition/Observation-resultslab-eu-lab"
          ]
        },
        "performer": [
          {
            "display": "The Central European Lab"
          }
        ],
        "category": [
          {
            "coding": [
              {
                "system": "http://terminology.hl7.org/CodeSystem/observation-category",
                "code": "laboratory"
              }
            ]
          }
        ],
        "code": {
          "coding": [
            {
              "code": "4548-4",
              "system": "http://loinc.org",
              "display": "Hemoglobin A1c/Hemoglobin.total in Blood"
            }
          ],
          "text": "Hemoglobin A1c/Hemoglobin.total in Blood"
        },
        "valueQuantity": {
          "system": "http://unitsofmeasure.org",
          "value": 6.2,
          "unit": "%",
          "code": "%"
        },
        "referenceRange": [
          {
            "low": {
              "value": 4.8,
              "code": "%",
              "system": "http://unitsofmeasure.org"
            }
          },
          {
            "high": {
              "value": 5.7,
              "code": "%",
              "system": "http://unitsofmeasure.org"
            }
          }
        ],
        "interpretation": [
          {
            "coding": [
              {
                "code": "H",
                "system": "http://terminology.hl7.org/CodeSystem/v3-ObservationInterpretation",
                "display": "High"
              }
            ]
          }
        ],
        "text": {
          "status": "generated",
          "div": "<div xmlns=\"http://www.w3.org/1999/xhtml\"><table class=\"hl7__eu__lab__report\"><tr><th>Test</th><th>28-Feb-2022</th><th>Reference&#xA0;Range</th><th>Unit</th></tr><tr><td>Hemoglobin A1c/Hemoglobin.total in Blood</td><td>6.2</td><td>4.8 - 5.7</td><td>H</td><td>%</td></tr></table></div>"
        },
        "status": "final",
        "subject": {
          "reference": "urn:uuid:639cc307-9dd4-4c8c-b48d-95a514e708c0",
          "display": "Pauline Grenier"
        },
        "effectiveDateTime": "2022-02-28T11:54:46Z",
        "specimen": {
          "reference": "urn:uuid:c69458dc-1cb7-4a00-8f5b-c4a351b3477a"
        }
      }
    },
    {
      "fullUrl": "urn:uuid:a0748e8d-2011-4ca3-a6d6-0eeaaee5e8db",
      "resource": {
        "resourceType": "Observation",
        "id": "a0748e8d-2011-4ca3-a6d6-0eeaaee5e8db",
        "meta": {
          "profile": [
            "http://hl7.eu/fhir/laboratory/StructureDefinition/Observation-resultslab-eu-lab"
          ]
        },
        "performer": [
          {
            "display": "The Central European Lab"
          }
        ],
        "category": [
          {
            "coding": [
              {
                "system": "http://terminology.hl7.org/CodeSystem/observation-category",
                "code": "laboratory"
              }
            ]
          }
        ],
        "code": {
          "coding": [
            {
              "code": "2339-0",
              "system": "http://loinc.org",
              "display": "Glucose [Mass/volume] in Blood"
            }
          ],
          "text": "Glucose [Mass/volume] in Blood"
        },
        "valueQuantity": {
          "system": "http://unitsofmeasure.org",
          "value": 76.7,
          "unit": "mg/dL",
          "code": "mg/dL"
        },
        "referenceRange": [
          {
            "low": {
              "value": 70,
              "code": "mg/dL",
              "system": "http://unitsofmeasure.org"
            }
          },
          {
            "high": {
              "value": 99,
              "code": "mg/dL",
              "system": "http://unitsofmeasure.org"
            }
          }
        ],
        "text": {
          "status": "generated",
          "div": "<div xmlns=\"http://www.w3.org/1999/xhtml\"><table class=\"hl7__eu__lab__report\"><tr><th>Test</th><th>28-Feb-2022</th><th>Reference&#xA0;Range</th><th>Unit</th></tr><tr><td>Glucose [Mass/volume] in Blood</td><td>76.7</td><td>70 - 99</td><td></td><td>mg/dL</td></tr></table></div>"
        },
        "status": "final",
        "subject": {
          "reference": "urn:uuid:639cc307-9dd4-4c8c-b48d-95a514e708c0",
          "display": "Pauline Grenier"
        },
        "effectiveDateTime": "2022-02-28T11:54:46Z",
        "specimen": {
          "reference": "urn:uuid:c69458dc-1cb7-4a00-8f5b-c4a351b3477a"
        }
      }
    },
    {
      "fullUrl": "urn:uuid:43879ec6-05a4-4705-bed7-c2893386fbaa",
      "resource": {
        "resourceType": "Observation",
        "id": "43879ec6-05a4-4705-bed7-c2893386fbaa",
        "meta": {
          "profile": [
            "http://hl7.eu/fhir/laboratory/StructureDefinition/Observation-resultslab-eu-lab"
          ]
        },
        "performer": [
          {
            "display": "The Central European Lab"
          }
        ],
        "category": [
          {
            "coding": [
              {
                "system": "http://terminology.hl7.org/CodeSystem/observation-category",
                "code": "laboratory"
              }
            ]
          }
        ],
        "code": {
          "coding": [
            {
              "code": "6299-2",
              "system": "http://loinc.org",
              "display": "Urea nitrogen [Mass/volume] in Blood"
            }
          ],
          "text": "Urea nitrogen [Mass/volume] in Blood"
        },
        "valueQuantity": {
          "system": "http://unitsofmeasure.org",
          "value": 17.9,
          "unit": "mg/dL",
          "code": "mg/dL"
        },
        "referenceRange": [
          {
            "low": {
              "value": 7,
              "code": "mg/dL",
              "system": "http://unitsofmeasure.org"
            }
          },
          {
            "high": {
              "value": 20,
              "code": "mg/dL",
              "system": "http://unitsofmeasure.org"
            }
          }
        ],
        "text": {
          "status": "generated",
          "div": "<div xmlns=\"http://www.w3.org/1999/xhtml\"><table class=\"hl7__eu__lab__report\"><tr><th>Test</th><th>28-Feb-2022</th><th>Reference&#xA0;Range</th><th>Unit</th></tr><tr><td>Urea nitrogen [Mass/volume] in Blood</td><td>17.9</td><td>7 - 20</td><td></td><td>mg/dL</td></tr></table></div>"
        },
        "status": "final",
        "subject": {
          "reference": "urn:uuid:639cc307-9dd4-4c8c-b48d-95a514e708c0",
          "display": "Pauline Grenier"
        },
        "effectiveDateTime": "2022-02-28T11:54:46Z",
        "specimen": {
          "reference": "urn:uuid:c69458dc-1cb7-4a00-8f5b-c4a351b3477a"
        }
      }
    },
    {
      "fullUrl": "urn:uuid:002a9679-1f12-4834-b19b-5ea460a9e200",
      "resource": {
        "resourceType": "Observation",
        "id": "002a9679-1f12-4834-b19b-5ea460a9e200",
        "meta": {
          "profile": [
            "http://hl7.eu/fhir/laboratory/StructureDefinition/Observation-resultslab-eu-lab"
          ]
        },
        "performer": [
          {
            "display": "The Central European Lab"
          }
        ],
        "category": [
          {
            "coding": [
              {
                "system": "http://terminology.hl7.org/CodeSystem/observation-category",
                "code": "laboratory"
              }
            ]
          }
        ],
        "code": {
          "coding": [
            {
              "code": "38483-4",
              "system": "http://loinc.org",
              "display": "Creatinine [Mass/volume] in Blood"
            }
          ],
          "text": "Creatinine [Mass/volume] in Blood"
        },
        "valueQuantity": {
          "system": "http://unitsofmeasure.org",
          "value": 1.4,
          "unit": "mg/dL",
          "code": "mg/dL"
        },
        "referenceRange": [
          {
            "low": {
              "value": 0.6,
              "code": "mg/dL",
              "system": "http://unitsofmeasure.org"
            }
          },
          {
            "high": {
              "value": 1.1,
              "code": "mg/dL",
              "system": "http://unitsofmeasure.org"
            }
          }
        ],
        "interpretation": [
          {
            "coding": [
              {
                "code": "H",
                "system": "http://terminology.hl7.org/CodeSystem/v3-ObservationInterpretation",
                "display": "High"
              }
            ]
          }
        ],
        "text": {
          "status": "generated",
          "div": "<div xmlns=\"http://www.w3.org/1999/xhtml\"><table class=\"hl7__eu__lab__report\"><tr><th>Test</th><th>28-Feb-2022</th><th>Reference&#xA0;Range</th><th>Unit</th></tr><tr><td>Creatinine [Mass/volume] in Blood</td><td>1.4</td><td>0.6 - 1.1</td><td>H</td><td>mg/dL</td></tr></table></div>"
        },
        "status": "final",
        "subject": {
          "reference": "urn:uuid:639cc307-9dd4-4c8c-b48d-95a514e708c0",
          "display": "Pauline Grenier"
        },
        "effectiveDateTime": "2022-02-28T11:54:46Z",
        "specimen": {
          "reference": "urn:uuid:c69458dc-1cb7-4a00-8f5b-c4a351b3477a"
        }
      }
    },
    {
      "fullUrl": "urn:uuid:fb8bb9e3-98af-41c2-a4b3-f226091d7013",
      "resource": {
        "resourceType": "Observation",
        "id": "fb8bb9e3-98af-41c2-a4b3-f226091d7013",
        "meta": {
          "profile": [
            "http://hl7.eu/fhir/laboratory/StructureDefinition/Observation-resultslab-eu-lab"
          ]
        },
        "performer": [
          {
            "display": "The Central European Lab"
          }
        ],
        "category": [
          {
            "coding": [
              {
                "system": "http://terminology.hl7.org/CodeSystem/observation-category",
                "code": "laboratory"
              }
            ]
          }
        ],
        "code": {
          "coding": [
            {
              "code": "49765-1",
              "system": "http://loinc.org",
              "display": "Calcium [Mass/volume] in Blood"
            }
          ],
          "text": "Calcium [Mass/volume] in Blood"
        },
        "valueQuantity": {
          "system": "http://unitsofmeasure.org",
          "value": 9.4,
          "unit": "mg/dL",
          "code": "mg/dL"
        },
        "referenceRange": [
          {
            "low": {
              "value": 8.5,
              "code": "mg/dL",
              "system": "http://unitsofmeasure.org"
            }
          },
          {
            "high": {
              "value": 10.5,
              "code": "mg/dL",
              "system": "http://unitsofmeasure.org"
            }
          }
        ],
        "text": {
          "status": "generated",
          "div": "<div xmlns=\"http://www.w3.org/1999/xhtml\"><table class=\"hl7__eu__lab__report\"><tr><th>Test</th><th>28-Feb-2022</th><th>Reference&#xA0;Range</th><th>Unit</th></tr><tr><td>Calcium [Mass/volume] in Blood</td><td>9.4</td><td>8.5 - 10.5</td><td></td><td>mg/dL</td></tr></table></div>"
        },
        "status": "final",
        "subject": {
          "reference": "urn:uuid:639cc307-9dd4-4c8c-b48d-95a514e708c0",
          "display": "Pauline Grenier"
        },
        "effectiveDateTime": "2022-02-28T11:54:46Z",
        "specimen": {
          "reference": "urn:uuid:c69458dc-1cb7-4a00-8f5b-c4a351b3477a"
        }
      }
    },
    {
      "fullUrl": "urn:uuid:48ff68fc-ac5c-43c1-8b7b-5eb5ac885224",
      "resource": {
        "resourceType": "Observation",
        "id": "48ff68fc-ac5c-43c1-8b7b-5eb5ac885224",
        "meta": {
          "profile": [
            "http://hl7.eu/fhir/laboratory/StructureDefinition/Observation-resultslab-eu-lab"
          ]
        },
        "performer": [
          {
            "display": "The Central European Lab"
          }
        ],
        "category": [
          {
            "coding": [
              {
                "system": "http://terminology.hl7.org/CodeSystem/observation-category",
                "code": "laboratory"
              }
            ]
          }
        ],
        "code": {
          "coding": [
            {
              "code": "2947-0",
              "system": "http://loinc.org",
              "display": "Sodium [Moles/volume] in Blood"
            }
          ],
          "text": "Sodium [Moles/volume] in Blood"
        },
        "valueQuantity": {
          "system": "http://unitsofmeasure.org",
          "value": 136.9,
          "unit": "mmol/L",
          "code": "mmol/L"
        },
        "referenceRange": [
          {
            "low": {
              "value": 135,
              "code": "mmol/L",
              "system": "http://unitsofmeasure.org"
            }
          },
          {
            "high": {
              "value": 145,
              "code": "mmol/L",
              "system": "http://unitsofmeasure.org"
            }
          }
        ],
        "text": {
          "status": "generated",
          "div": "<div xmlns=\"http://www.w3.org/1999/xhtml\"><table class=\"hl7__eu__lab__report\"><tr><th>Test</th><th>28-Feb-2022</th><th>Reference&#xA0;Range</th><th>Unit</th></tr><tr><td>Sodium [Moles/volume] in Blood</td><td>136.9</td><td>135 - 145</td><td></td><td>mmol/L</td></tr></table></div>"
        },
        "status": "final",
        "subject": {
          "reference": "urn:uuid:639cc307-9dd4-4c8c-b48d-95a514e708c0",
          "display": "Pauline Grenier"
        },
        "effectiveDateTime": "2022-02-28T11:54:46Z",
        "specimen": {
          "reference": "urn:uuid:c69458dc-1cb7-4a00-8f5b-c4a351b3477a"
        }
      }
    },
    {
      "fullUrl": "urn:uuid:120d724b-419e-4eae-9f3d-ce0bbb76c441",
      "resource": {
        "resourceType": "Observation",
        "id": "120d724b-419e-4eae-9f3d-ce0bbb76c441",
        "meta": {
          "profile": [
            "http://hl7.eu/fhir/laboratory/StructureDefinition/Observation-resultslab-eu-lab"
          ]
        },
        "performer": [
          {
            "display": "The Central European Lab"
          }
        ],
        "category": [
          {
            "coding": [
              {
                "system": "http://terminology.hl7.org/CodeSystem/observation-category",
                "code": "laboratory"
              }
            ]
          }
        ],
        "code": {
          "coding": [
            {
              "code": "6298-4",
              "system": "http://loinc.org",
              "display": "Potassium [Moles/volume] in Blood"
            }
          ],
          "text": "Potassium [Moles/volume] in Blood"
        },
        "valueQuantity": {
          "system": "http://unitsofmeasure.org",
          "value": 4.4,
          "unit": "mmol/L",
          "code": "mmol/L"
        },
        "referenceRange": [
          {
            "low": {
              "value": 3.5,
              "code": "mmol/L",
              "system": "http://unitsofmeasure.org"
            }
          },
          {
            "high": {
              "value": 5.3,
              "code": "mmol/L",
              "system": "http://unitsofmeasure.org"
            }
          }
        ],
        "text": {
          "status": "generated",
          "div": "<div xmlns=\"http://www.w3.org/1999/xhtml\"><table class=\"hl7__eu__lab__report\"><tr><th>Test</th><th>28-Feb-2022</th><th>Reference&#xA0;Range</th><th>Unit</th></tr><tr><td>Potassium [Moles/volume] in Blood</td><td>4.4</td><td>3.5 - 5.3</td><td></td><td>mmol/L</td></tr></table></div>"
        },
        "status": "final",
        "subject": {
          "reference": "urn:uuid:639cc307-9dd4-4c8c-b48d-95a514e708c0",
          "display": "Pauline Grenier"
        },
        "effectiveDateTime": "2022-02-28T11:54:46Z",
        "specimen": {
          "reference": "urn:uuid:c69458dc-1cb7-4a00-8f5b-c4a351b3477a"
        }
      }
    },
    {
      "fullUrl": "urn:uuid:db0bba7a-d288-4af3-889f-22bc19f47a90",
      "resource": {
        "resourceType": "Observation",
        "id": "db0bba7a-d288-4af3-889f-22bc19f47a90",
        "meta": {
          "profile": [
            "http://hl7.eu/fhir/laboratory/StructureDefinition/Observation-resultslab-eu-lab"
          ]
        },
        "performer": [
          {
            "display": "The Central European Lab"
          }
        ],
        "category": [
          {
            "coding": [
              {
                "system": "http://terminology.hl7.org/CodeSystem/observation-category",
                "code": "laboratory"
              }
            ]
          }
        ],
        "code": {
          "coding": [
            {
              "code": "2069-3",
              "system": "http://loinc.org",
              "display": "Chloride [Moles/volume] in Blood"
            }
          ],
          "text": "Chloride [Moles/volume] in Blood"
        },
        "valueQuantity": {
          "system": "http://unitsofmeasure.org",
          "value": 101.5,
          "unit": "mmol/L",
          "code": "mmol/L"
        },
        "referenceRange": [
          {
            "low": {
              "value": 98,
              "code": "mmol/L",
              "system": "http://unitsofmeasure.org"
            }
          },
          {
            "high": {
              "value": 114,
              "code": "mmol/L",
              "system": "http://unitsofmeasure.org"
            }
          }
        ],
        "text": {
          "status": "generated",
          "div": "<div xmlns=\"http://www.w3.org/1999/xhtml\"><table class=\"hl7__eu__lab__report\"><tr><th>Test</th><th>28-Feb-2022</th><th>Reference&#xA0;Range</th><th>Unit</th></tr><tr><td>Chloride [Moles/volume] in Blood</td><td>101.5</td><td>98 - 114</td><td></td><td>mmol/L</td></tr></table></div>"
        },
        "status": "final",
        "subject": {
          "reference": "urn:uuid:639cc307-9dd4-4c8c-b48d-95a514e708c0",
          "display": "Pauline Grenier"
        },
        "effectiveDateTime": "2022-02-28T11:54:46Z",
        "specimen": {
          "reference": "urn:uuid:c69458dc-1cb7-4a00-8f5b-c4a351b3477a"
        }
      }
    },
    {
      "fullUrl": "urn:uuid:b08dc54d-fe15-4587-b8ed-d2dcd5452ce9",
      "resource": {
        "resourceType": "Observation",
        "id": "b08dc54d-fe15-4587-b8ed-d2dcd5452ce9",
        "meta": {
          "profile": [
            "http://hl7.eu/fhir/laboratory/StructureDefinition/Observation-resultslab-eu-lab"
          ]
        },
        "performer": [
          {
            "display": "The Central European Lab"
          }
        ],
        "category": [
          {
            "coding": [
              {
                "system": "http://terminology.hl7.org/CodeSystem/observation-category",
                "code": "laboratory"
              }
            ]
          }
        ],
        "code": {
          "coding": [
            {
              "code": "20565-8",
              "system": "http://loinc.org",
              "display": "Carbon dioxide, total [Moles/volume] in Blood"
            }
          ],
          "text": "Carbon dioxide, total [Moles/volume] in Blood"
        },
        "valueQuantity": {
          "system": "http://unitsofmeasure.org",
          "value": 25.6,
          "unit": "mmol/L",
          "code": "mmol/L"
        },
        "referenceRange": [
          {
            "low": {
              "value": 22,
              "code": "mmol/L",
              "system": "http://unitsofmeasure.org"
            }
          },
          {
            "high": {
              "value": 29,
              "code": "mmol/L",
              "system": "http://unitsofmeasure.org"
            }
          }
        ],
        "text": {
          "status": "generated",
          "div": "<div xmlns=\"http://www.w3.org/1999/xhtml\"><table class=\"hl7__eu__lab__report\"><tr><th>Test</th><th>28-Feb-2022</th><th>Reference&#xA0;Range</th><th>Unit</th></tr><tr><td>Carbon dioxide, total [Moles/volume] in Blood</td><td>25.6</td><td>22 - 29</td><td></td><td>mmol/L</td></tr></table></div>"
        },
        "status": "final",
        "subject": {
          "reference": "urn:uuid:639cc307-9dd4-4c8c-b48d-95a514e708c0",
          "display": "Pauline Grenier"
        },
        "effectiveDateTime": "2022-02-28T11:54:46Z",
        "specimen": {
          "reference": "urn:uuid:c69458dc-1cb7-4a00-8f5b-c4a351b3477a"
        }
      }
    },
    {
      "fullUrl": "urn:uuid:3b73f783-e55c-435f-a321-a9fb8181570a",
      "resource": {
        "resourceType": "Device",
        "id": "3b73f783-e55c-435f-a321-a9fb8181570a",
        "deviceName": [
          {
            "name": "SYNDERAI Synthetic Generator",
            "type": "manufacturer-name"
          }
        ],
        "version": [
          {
            "value": "5.0"
          }
        ],
        "text": {
          "status": "generated",
          "div": "<div xmlns=\"http://www.w3.org/1999/xhtml\">SYNDERAI Synthetic Generator v5.0</div>"
        },
        "status": "active\"",
        "distinctIdentifier": "synderai-generator-50",
        "manufacturer": "SYNDERAI Project"
      }
    },
    {
      "fullUrl": "urn:uuid:324bc68a-2375-4d94-bcba-6cea8c382794",
      "resource": {
        "resourceType": "Provenance",
        "id": "324bc68a-2375-4d94-bcba-6cea8c382794",
        "target": [
          {
            "reference": "Patient/639cc307-9dd4-4c8c-b48d-95a514e708c0"
          },
          {
            "reference": "Bundle/34bd4aa6-a046-42f6-acb5-6c0d63b5ab25"
          },
          {
            "reference": "Composition/261ca951-c88c-40df-8214-b07744e05a22"
          },
          {
            "reference": "PractitionerRole/269d338f-8e2c-4504-a7dd-c9280b3cd773"
          },
          {
            "reference": "Practitioner/e8b9ce8e-ed3b-4c0c-ac4b-53780aff5adf"
          },
          {
            "reference": "PractitionerRole/3e9f4ef4-d625-4921-b07c-193bab38b715"
          },
          {
            "reference": "Organization/caa5bf7a-bf2c-4717-9718-897e1125cf32"
          }
        ],
        "activity": {
          "text": "Synthetic Example Data Generation"
        },
        "policy": [
          "https://synderai.net/synderai-synthetic-data-policy"
        ],
        "agent": [
          {
            "type": {
              "text": "author"
            },
            "who": {
              "reference": "Device/3b73f783-e55c-435f-a321-a9fb8181570a"
            }
          }
        ],
        "reason": [
          {
            "text": "Interoperability Testing and Training (non-clinical use)"
          }
        ],
        "text": {
          "status": "generated",
          "div": "<div xmlns=\"http://www.w3.org/1999/xhtml\">Provenance for SYNDERAI Synthetic Example Data Resource</div>"
        },
        "recorded": "2022-02-28T12:54:46Z"
      }
    },
    {
      "fullUrl": "urn:uuid:269d338f-8e2c-4504-a7dd-c9280b3cd773",
      "resource": {
        "resourceType": "PractitionerRole",
        "id": "269d338f-8e2c-4504-a7dd-c9280b3cd773",
        "meta": {
          "profile": [
            "http://hl7.eu/fhir/base/StructureDefinition/practitionerRole-eu"
          ]
        },
        "text": {
          "status": "generated",
          "div": "<div xmlns=\"http://www.w3.org/1999/xhtml\">Laboratory Role Id: 269d338f-8e2c-4504-a7dd-c9280b3cd773</div>"
        },
        "practitioner": {
          "reference": "urn:uuid:e8b9ce8e-ed3b-4c0c-ac4b-53780aff5adf"
        }
      }
    },
    {
      "fullUrl": "urn:uuid:e8b9ce8e-ed3b-4c0c-ac4b-53780aff5adf",
      "resource": {
        "resourceType": "Practitioner",
        "id": "e8b9ce8e-ed3b-4c0c-ac4b-53780aff5adf",
        "meta": {
          "profile": [
            "http://hl7.eu/fhir/base/StructureDefinition/practitioner-eu"
          ]
        },
        "identifier": [
          {
            "assigner": {
              "display": "HL7 Europe"
            },
            "system": "urn:oid:2.16.840.1.113883.2.51.999",
            "value": "415cbb9d-19f8-40d0-b734-a473bef6fc3f"
          }
        ],
        "name": [
          {
            "prefix": [
              "dr"
            ],
            "given": [
              "Ex"
            ],
            "family": "Ample"
          }
        ],
        "address": [
          {
            "line": [
              "Laboratoire Central Européenne",
              "Boulevard du Jardin Botanique 32"
            ],
            "postalCode": "1000",
            "city": "Brussels",
            "country": "Belgium"
          }
        ],
        "text": {
          "status": "generated",
          "div": "<div xmlns=\"http://www.w3.org/1999/xhtml\">Laboratory: Laboratoire Central Européenne, 1000 Brussels, Belgium</div>"
        }
      }
    }
  ],
  "type": "document",
  "timestamp": "2022-02-28T12:54:46Z"
}
