{
  "resourceType": "Bundle",
  "id": "58be40b2-45d1-485a-bb31-4ddb0654d872",
  "meta": {
    "profile": [
      "http://hl7.eu/fhir/laboratory/StructureDefinition/Bundle-eu-lab"
    ]
  },
  "identifier": {
    "assigner": {
      "display": "HL7 Europe"
    },
    "system": "urn:oid:2.16.840.1.113883.2.51.999",
    "value": "d8d3da3a-3e0c-4ef3-b7c4-3f06ce98fc50"
  },
  "entry": [
    {
      "fullUrl": "urn:uuid:469acd61-c80f-4af3-96bf-0de6987f2b7d",
      "resource": {
        "resourceType": "Composition",
        "id": "469acd61-c80f-4af3-96bf-0de6987f2b7d",
        "meta": {
          "profile": [
            "http://hl7.eu/fhir/laboratory/StructureDefinition/Composition-eu-lab"
          ]
        },
        "identifier": {
          "assigner": {
            "display": "HL7 Europe"
          },
          "system": "urn:oid:2.16.840.1.113883.2.51.999",
          "value": "d06af58f-99d5-4f87-8dcc-de4380b1fce8"
        },
        "author": [
          {
            "reference": "urn:uuid:2b0224d4-75dc-40bc-882c-cb74621421db"
          }
        ],
        "category": [
          {
            "coding": [
              {
                "code": "26436-6",
                "system": "http://loinc.org",
                "display": "Laboratory studies (set)"
              }
            ]
          }
        ],
        "type": {
          "coding": [
            {
              "code": "11502-2",
              "system": "http://loinc.org",
              "display": "Laboratory report"
            }
          ],
          "text": "Laboratory Report"
        },
        "section": [
          {
            "code": {
              "coding": [
                {
                  "code": "26436-6",
                  "system": "http://loinc.org",
                  "display": "Laboratory studies (set)"
                }
              ],
              "text": "Laboratory studies"
            },
            "section": [
              {
                "code": {
                  "coding": [
                    {
                      "code": "$18719-5",
                      "system": "http://loinc.org",
                      "display": "Chemistry studies (set)"
                    }
                  ],
                  "text": "Chemistry"
                },
                "entry": [
                  {
                    "reference": "urn:uuid:2d18586e-370b-4354-9892-4fb3cdf06c72"
                  },
                  {
                    "reference": "urn:uuid:af826f96-417a-4f9e-986e-4b39959927b9"
                  },
                  {
                    "reference": "urn:uuid:09baca47-991b-418d-a92e-3ca0f7e5b4c7"
                  },
                  {
                    "reference": "urn:uuid:22a345c7-f07a-4932-a0e4-2997a0ff189b"
                  },
                  {
                    "reference": "urn:uuid:d04eaa13-3b65-466e-8c9e-5ad3a13a1823"
                  },
                  {
                    "reference": "urn:uuid:872eb70f-3381-4c2a-a71b-e0b0d617a30a"
                  },
                  {
                    "reference": "urn:uuid:8d3ec14c-0072-48f0-bc6a-ba5d99498b43"
                  },
                  {
                    "reference": "urn:uuid:5a653a23-2e15-4d0e-a5d0-932eaf1c44bc"
                  },
                  {
                    "reference": "urn:uuid:e5c131ec-8009-4c04-baec-d84ecfea6622"
                  },
                  {
                    "reference": "urn:uuid:9ed02ab6-bd20-40c1-abf7-eb8c29e2eacc"
                  },
                  {
                    "reference": "urn:uuid:f6ae0d18-16da-4a56-83c5-d4449664548a"
                  },
                  {
                    "reference": "urn:uuid:9407f7e8-c8a3-4f90-8a3c-ac49977a987b"
                  },
                  {
                    "reference": "urn:uuid:950af2b6-a143-44af-86ca-12b70091a6f2"
                  },
                  {
                    "reference": "urn:uuid:a032a7a0-903e-447f-b9ae-c5ecc23dbbbe"
                  },
                  {
                    "reference": "urn:uuid:3a462a82-4706-4d7c-a7f1-98fca3744df6"
                  },
                  {
                    "reference": "urn:uuid:25dba352-9df9-45b3-893e-bb08719d792d"
                  },
                  {
                    "reference": "urn:uuid:ede832ac-ae4f-434d-835b-bb5d637f79f0"
                  },
                  {
                    "reference": "urn:uuid:0e544bda-755d-4c5b-bbf8-d6f86e86efb7"
                  },
                  {
                    "reference": "urn:uuid:de29a51e-9d4f-4f26-a2e4-0fe148708838"
                  },
                  {
                    "reference": "urn:uuid:4662ff5e-e28b-40ec-881e-a5ff378ffe45"
                  },
                  {
                    "reference": "urn:uuid:e85e30a9-1091-4d72-a324-b39288cc691a"
                  },
                  {
                    "reference": "urn:uuid:3853a267-f4b6-4b2d-b95e-65b841ab026d"
                  },
                  {
                    "reference": "urn:uuid:190c45bc-46ea-4b78-ae27-6439aff0541e"
                  },
                  {
                    "reference": "urn:uuid:85d29e2a-2b8b-4119-9de1-3719370b73f4"
                  },
                  {
                    "reference": "urn:uuid:a9aa25a5-dc92-4a8c-adb2-e1598010ff2f"
                  },
                  {
                    "reference": "urn:uuid:a5e62129-940a-4974-a410-24160ea27f93"
                  },
                  {
                    "reference": "urn:uuid:e95a78e3-0f38-4949-9754-fb23ba0adc04"
                  },
                  {
                    "reference": "urn:uuid:b9074d26-b9d1-4998-b58c-ab32d1ca6bbf"
                  }
                ],
                "text": {
                  "status": "generated",
                  "div": "<div xmlns=\"http://www.w3.org/1999/xhtml\"><h3>Chemistry</h3><table class=\"hl7__eu__lab__report\"><thead><tr><th>Test</th><th>12-AUG-2016</th><th>Reference&#xA0;Range</th><th>Unit</th></tr></thead><tbody><tr><td>Hemoglobin A1c/Hemoglobin.total in Blood</td><td><strong>6.3 H</strong></td><td>4.8 - 5.7</td><td>%</td></tr><tr><td>Cholesterol [Mass/volume] in Serum or Plasma</td><td><strong>279.3 H</strong></td><td>125 - 200</td><td>mg/dL</td></tr><tr><td>Triglyceride [Mass/volume] in Serum or Plasma</td><td>141.5</td><td>40 - 150</td><td>mg/dL</td></tr><tr><td>Cholesterol in LDL [Mass/volume] in Serum or Plasma by Direct assay</td><td>131.8</td><td>0 - 190</td><td>mg/dL</td></tr><tr><td>Cholesterol in HDL [Mass/volume] in Serum or Plasma</td><td>49.7</td><td>40 - 60</td><td>mg/dL</td></tr><tr><td>Glucose [Mass/volume] in Blood</td><td>88.9</td><td>70 - 140</td><td>mg/dL</td></tr><tr><td>Urea nitrogen [Mass/volume] in Blood</td><td>12.1</td><td>7 - 20</td><td>mg/dL</td></tr><tr><td>Creatinine [Mass/volume] in Blood</td><td><strong>3.1 H</strong></td><td>0.6 - 1.3</td><td>mg/dL</td></tr><tr><td>Calcium [Mass/volume] in Blood</td><td>9.7</td><td>8.5 - 10.5</td><td>mg/dL</td></tr><tr><td>Sodium [Moles/volume] in Blood</td><td>137.9</td><td>135 - 145</td><td>mmol/L</td></tr><tr><td>Potassium [Moles/volume] in Blood</td><td>5.0</td><td>3.5 - 5.1</td><td>mmol/L</td></tr><tr><td>Chloride [Moles/volume] in Blood</td><td><strong>110.4 H</strong></td><td>98 - 108</td><td>mmol/L</td></tr><tr><td>Carbon dioxide, total [Moles/volume] in Blood</td><td>27.7</td><td>22 - 32</td><td>mmol/L</td></tr><tr><td>Protein [Mass/volume] in Serum or Plasma</td><td>8.0</td><td>6.6 - 8.3</td><td>g/dL</td></tr><tr><td>Albumin [Mass/volume] in Serum or Plasma</td><td>4.2</td><td>3.5 - 5.5</td><td>g/dL</td></tr><tr><td>Globulin [Mass/volume] in Serum by calculation</td><td>2.9</td><td>2 - 3.5</td><td>g/L</td></tr><tr><td>Bilirubin.total [Mass/volume] in Serum or Plasma</td><td><strong>0.2 L</strong></td><td>0.3 - 1.2</td><td>mg/dL</td></tr><tr><td>Alkaline phosphatase [Enzymatic activity/volume] in Serum or Plasma</td><td>115.9</td><td>53 - 130</td><td>U/L</td></tr><tr><td>Alanine aminotransferase [Enzymatic activity/volume] in Serum or Plasma</td><td>43.2</td><td>7 - 60</td><td>U/L</td></tr><tr><td>Aspartate aminotransferase [Enzymatic activity/volume] in Serum or Plasma</td><td>16.0</td><td>10 - 49</td><td>U/L</td></tr><tr><td>Glucose [Mass/volume] in Blood</td><td>88.9</td><td>70 - 140</td><td>mg/dL</td></tr><tr><td>Urea nitrogen [Mass/volume] in Blood</td><td>12.1</td><td>7 - 20</td><td>mg/dL</td></tr><tr><td>Creatinine [Mass/volume] in Blood</td><td>1.0</td><td>0.6 - 1.3</td><td>mg/dL</td></tr><tr><td>Calcium [Mass/volume] in Blood</td><td>9.7</td><td>8.5 - 10.5</td><td>mg/dL</td></tr><tr><td>Sodium [Moles/volume] in Blood</td><td>137.9</td><td>135 - 145</td><td>mmol/L</td></tr><tr><td>Potassium [Moles/volume] in Blood</td><td>5.0</td><td>3.5 - 5.1</td><td>mmol/L</td></tr><tr><td>Chloride [Moles/volume] in Blood</td><td><strong>110.4 H</strong></td><td>98 - 108</td><td>mmol/L</td></tr><tr><td>Carbon dioxide, total [Moles/volume] in Blood</td><td>27.7</td><td>22 - 32</td><td>mmol/L</td></tr></tbody></table></div>"
                },
                "title": "Chemistry"
              }
            ],
            "title": "Laboratory Report"
          },
          {
            "text": {
              "status": "generated",
              "div": "<div xmlns=\"http://www.w3.org/1999/xhtml\"><h3>Annotation</h3><table class=\"hl7__eu__lab__report\"><tr><th>Conclusion and Recommendations based on this report and previous findings known to us</th></tr><tr><td>The patient shows elevated HbA1c, total cholesterol, and creatinine, with low total bilirubin and mildly elevated chloride. These findings suggest suboptimal glycemic control, significant hypercholesterolemia, and possible renal impairment. Other parameters, including liver enzymes and electrolytes, are within normal limits. Clinical correlation and further evaluation of renal function and cardiovascular risk are recommended.</td></tr></table></div>"
            },
            "code": {
              "coding": [
                {
                  "system": "http://loinc.org",
                  "code": "48767-8",
                  "display": "Annotation comment"
                }
              ]
            },
            "title": "Annotation comment"
          }
        ],
        "status": "final",
        "subject": {
          "reference": "urn:uuid:995689df-0e73-4aa8-804c-75028ddf8f9a",
          "display": "Leonhard Köhler"
        },
        "date": "2016-08-12T04:48:23Z",
        "title": "Laboratory Report",
        "confidentiality": "N"
      }
    },
    {
      "fullUrl": "urn:uuid:3a4e1cbf-d027-486c-9cfc-b3238153d04a",
      "resource": {
        "resourceType": "DiagnosticReport",
        "id": "3a4e1cbf-d027-486c-9cfc-b3238153d04a",
        "meta": {
          "profile": [
            "http://hl7.eu/fhir/laboratory/StructureDefinition/DiagnosticReport-eu-lab"
          ]
        },
        "identifier": [
          {
            "assigner": {
              "display": "HL7 Europe"
            },
            "system": "urn:oid:2.16.840.1.113883.2.51.999",
            "value": "161550d8-533c-422f-9caf-a3b620342841"
          }
        ],
        "extension": [
          {
            "url": "http://hl7.org/fhir/5.0/StructureDefinition/extension-DiagnosticReport.composition",
            "valueReference": {
              "reference": "urn:uuid:d06af58f-99d5-4f87-8dcc-de4380b1fce8"
            }
          }
        ],
        "category": [
          {
            "coding": [
              {
                "code": "26436-6",
                "system": "http://loinc.org",
                "display": "Laboratory studies (set)"
              }
            ]
          }
        ],
        "specimen": [
          {
            "reference": "urn:uuid:0d85eacd-08f7-4437-be4d-1b770477b237"
          },
          {
            "reference": "urn:uuid:795bc372-837f-4618-b7c0-6b6f06842300"
          },
          {
            "reference": "urn:uuid:9b03fc4e-7332-49d6-8451-08b819d94ca4"
          }
        ],
        "result": [
          {
            "reference": "urn:uuid:2d18586e-370b-4354-9892-4fb3cdf06c72"
          },
          {
            "reference": "urn:uuid:af826f96-417a-4f9e-986e-4b39959927b9"
          },
          {
            "reference": "urn:uuid:09baca47-991b-418d-a92e-3ca0f7e5b4c7"
          },
          {
            "reference": "urn:uuid:22a345c7-f07a-4932-a0e4-2997a0ff189b"
          },
          {
            "reference": "urn:uuid:d04eaa13-3b65-466e-8c9e-5ad3a13a1823"
          },
          {
            "reference": "urn:uuid:872eb70f-3381-4c2a-a71b-e0b0d617a30a"
          },
          {
            "reference": "urn:uuid:8d3ec14c-0072-48f0-bc6a-ba5d99498b43"
          },
          {
            "reference": "urn:uuid:5a653a23-2e15-4d0e-a5d0-932eaf1c44bc"
          },
          {
            "reference": "urn:uuid:e5c131ec-8009-4c04-baec-d84ecfea6622"
          },
          {
            "reference": "urn:uuid:9ed02ab6-bd20-40c1-abf7-eb8c29e2eacc"
          },
          {
            "reference": "urn:uuid:f6ae0d18-16da-4a56-83c5-d4449664548a"
          },
          {
            "reference": "urn:uuid:9407f7e8-c8a3-4f90-8a3c-ac49977a987b"
          },
          {
            "reference": "urn:uuid:950af2b6-a143-44af-86ca-12b70091a6f2"
          },
          {
            "reference": "urn:uuid:a032a7a0-903e-447f-b9ae-c5ecc23dbbbe"
          },
          {
            "reference": "urn:uuid:3a462a82-4706-4d7c-a7f1-98fca3744df6"
          },
          {
            "reference": "urn:uuid:25dba352-9df9-45b3-893e-bb08719d792d"
          },
          {
            "reference": "urn:uuid:ede832ac-ae4f-434d-835b-bb5d637f79f0"
          },
          {
            "reference": "urn:uuid:0e544bda-755d-4c5b-bbf8-d6f86e86efb7"
          },
          {
            "reference": "urn:uuid:de29a51e-9d4f-4f26-a2e4-0fe148708838"
          },
          {
            "reference": "urn:uuid:4662ff5e-e28b-40ec-881e-a5ff378ffe45"
          },
          {
            "reference": "urn:uuid:e85e30a9-1091-4d72-a324-b39288cc691a"
          },
          {
            "reference": "urn:uuid:3853a267-f4b6-4b2d-b95e-65b841ab026d"
          },
          {
            "reference": "urn:uuid:190c45bc-46ea-4b78-ae27-6439aff0541e"
          },
          {
            "reference": "urn:uuid:85d29e2a-2b8b-4119-9de1-3719370b73f4"
          },
          {
            "reference": "urn:uuid:a9aa25a5-dc92-4a8c-adb2-e1598010ff2f"
          },
          {
            "reference": "urn:uuid:a5e62129-940a-4974-a410-24160ea27f93"
          },
          {
            "reference": "urn:uuid:e95a78e3-0f38-4949-9754-fb23ba0adc04"
          },
          {
            "reference": "urn:uuid:b9074d26-b9d1-4998-b58c-ab32d1ca6bbf"
          }
        ],
        "status": "registered",
        "code": {
          "coding": [
            {
              "code": "11502-2",
              "system": "http://loinc.org",
              "display": "Laboratory report"
            }
          ]
        },
        "subject": {
          "reference": "urn:uuid:995689df-0e73-4aa8-804c-75028ddf8f9a",
          "display": "Leonhard Köhler"
        }
      }
    },
    {
      "fullUrl": "urn:uuid:995689df-0e73-4aa8-804c-75028ddf8f9a",
      "resource": {
        "resourceType": "Patient",
        "id": "995689df-0e73-4aa8-804c-75028ddf8f9a",
        "meta": {
          "security": [
            {
              "system": "http://terminology.hl7.org/CodeSystem/v3-ActReason",
              "code": "HTEST"
            },
            {
              "system": "http://terminology.hl7.org/CodeSystem/v3-ActReason",
              "code": "TRAIN"
            }
          ],
          "tag": [
            {
              "system": "https://synderai.net/fhir/CodeSystem/tags",
              "code": "synthetic",
              "display": "SYNDERAI Synthetic data"
            }
          ],
          "profile": [
            "http://hl7.eu/fhir/base/StructureDefinition/patient-eu-core"
          ]
        },
        "identifier": [
          {
            "type": {
              "coding": [
                {
                  "code": "PT",
                  "system": "http://terminology.hl7.org/CodeSystem/v2-0203"
                }
              ]
            },
            "system": "http://ec.europa.eu/identifier/eci",
            "value": "5321-442678-4"
          },
          {
            "type": {
              "coding": [
                {
                  "code": "MR",
                  "system": "http://terminology.hl7.org/CodeSystem/v2-0203"
                }
              ]
            },
            "system": "http://local.setting.eu/identifier",
            "value": "ffa9f0d8-c016-d46c-e666-000f53715b47"
          }
        ],
        "name": [
          {
            "family": "Köhler"
          },
          {
            "given": [
              "Leonhard"
            ]
          },
          {
            "text": "Leonhard Köhler"
          }
        ],
        "address": [
          {
            "line": [
              "Henckweg 97/34"
            ],
            "use": "home",
            "type": "physical",
            "postalCode": "87629",
            "city": "Füssen",
            "country": "Germany"
          }
        ],
        "telecom": [
          {
            "system": "phone",
            "value": "00028839855"
          }
        ],
        "extension": [
          {
            "url": "http://hl7.org/fhir/StructureDefinition/patient-nationality",
            "valueCodeableConcept": {
              "coding": [
                {
                  "code": "DE",
                  "system": "http://hl7.org/fhir/ValueSet/country"
                }
              ]
            }
          }
        ],
        "text": {
          "status": "generated",
          "div": "<div xmlns=\"http://www.w3.org/1999/xhtml\"><table class=\"hl7__ips\"><tr><td>Leonhard Köhler</td><td>male</td><td>19-Dec-1949</td></tr></table></div>"
        },
        "gender": "male",
        "birthDate": "1949-12-19"
      }
    },
    {
      "fullUrl": "urn:uuid:d8e8f90b-5caa-4da4-8645-f511e5439750",
      "resource": {
        "resourceType": "ServiceRequest",
        "id": "d8e8f90b-5caa-4da4-8645-f511e5439750",
        "meta": {
          "profile": [
            "http://hl7.eu/fhir/laboratory/StructureDefinition/ServiceRequest-eu-lab"
          ]
        },
        "identifier": [
          {
            "system": "http://example.org",
            "value": "7c004243-30c0-42a2-b396-aee6ec06c58f"
          }
        ],
        "specimen": [
          {
            "reference": "urn:uuid:0d85eacd-08f7-4437-be4d-1b770477b237"
          },
          {
            "reference": "urn:uuid:795bc372-837f-4618-b7c0-6b6f06842300"
          },
          {
            "reference": "urn:uuid:9b03fc4e-7332-49d6-8451-08b819d94ca4"
          }
        ],
        "reasonCode": [
          {
            "coding": [
              {
                "code": "55822004",
                "system": "http://snomed.info/sct",
                "display": "Hyperlipidemia"
              }
            ]
          },
          {
            "coding": [
              {
                "code": "414545008",
                "system": "http://snomed.info/sct",
                "display": "Ischemic heart disease"
              }
            ]
          },
          {
            "coding": [
              {
                "code": "59621000",
                "system": "http://snomed.info/sct",
                "display": "Essential hypertension"
              }
            ]
          },
          {
            "coding": [
              {
                "code": "239873007",
                "system": "http://snomed.info/sct",
                "display": "Osteoarthritis of knee"
              }
            ]
          },
          {
            "coding": [
              {
                "code": "271737000",
                "system": "http://snomed.info/sct",
                "display": "Anemia"
              }
            ]
          },
          {
            "coding": [
              {
                "code": "15777000",
                "system": "http://snomed.info/sct",
                "display": "Prediabetes"
              }
            ]
          }
        ],
        "status": "active",
        "intent": "order",
        "code": {
          "coding": [
            {
              "code": "108252007",
              "system": "http://snomed.info/sct",
              "display": "Laboratory procedure"
            }
          ]
        },
        "subject": {
          "reference": "urn:uuid:995689df-0e73-4aa8-804c-75028ddf8f9a",
          "display": "Leonhard Köhler"
        },
        "requester": {
          "reference": "urn:uuid:d4231657-6df6-485c-99b2-ebec31248775"
        }
      }
    },
    {
      "fullUrl": "urn:uuid:d4231657-6df6-485c-99b2-ebec31248775",
      "resource": {
        "resourceType": "PractitionerRole",
        "id": "d4231657-6df6-485c-99b2-ebec31248775",
        "meta": {
          "profile": [
            "http://hl7.eu/fhir/base/StructureDefinition/practitionerRole-eu"
          ]
        },
        "text": {
          "status": "generated",
          "div": "<div xmlns=\"http://www.w3.org/1999/xhtml\">Provider Role Id: d4231657-6df6-485c-99b2-ebec31248775</div>"
        },
        "organization": {
          "reference": "urn:uuid:dcacc7a8-083c-4a9a-b463-483e20434b7b"
        }
      }
    },
    {
      "fullUrl": "urn:uuid:dcacc7a8-083c-4a9a-b463-483e20434b7b",
      "resource": {
        "resourceType": "Organization",
        "id": "dcacc7a8-083c-4a9a-b463-483e20434b7b",
        "meta": {
          "profile": [
            "http://hl7.eu/fhir/base/StructureDefinition/organization-eu"
          ]
        },
        "identifier": [
          {
            "assigner": {
              "display": "HL7 Europe"
            },
            "system": "urn:oid:2.16.840.1.113883.2.51.999",
            "value": "f4d98c0d-64e1-4b4d-ade6-8a6a3f7b525a"
          }
        ],
        "address": [
          {
            "line": [
              "Feistlestraße 2"
            ],
            "city": "Füssen",
            "postalCode": "87629",
            "country": "Germany"
          }
        ],
        "text": {
          "status": "generated",
          "div": "<div xmlns=\"http://www.w3.org/1999/xhtml\">Provider Organization: hier ist kein Ärztehaus</div>"
        },
        "name": "hier ist kein Ärztehaus"
      }
    },
    {
      "fullUrl": "urn:uuid:0d85eacd-08f7-4437-be4d-1b770477b237",
      "resource": {
        "resourceType": "Specimen",
        "id": "0d85eacd-08f7-4437-be4d-1b770477b237",
        "meta": {
          "profile": [
            "http://hl7.eu/fhir/laboratory/StructureDefinition/Specimen-eu-lab"
          ]
        },
        "collection": {
          "collectedDateTime": "2016-08-12"
        },
        "text": {
          "status": "generated",
          "div": "<div xmlns=\"http://www.w3.org/1999/xhtml\"><table class=\"hl7__eu__lab__report\"><tr><th>Specimen</th><th>Collection Date</th></tr><tr><td>Whole blood specimen (specimen)</td><td><span class=\"nb\">12-Aug-2016</span></td></tr></table></div>"
        },
        "type": {
          "coding": [
            {
              "code": "258580003",
              "system": "http://snomed.info/sct",
              "display": "Whole blood specimen (specimen)"
            }
          ]
        }
      }
    },
    {
      "fullUrl": "urn:uuid:795bc372-837f-4618-b7c0-6b6f06842300",
      "resource": {
        "resourceType": "Specimen",
        "id": "795bc372-837f-4618-b7c0-6b6f06842300",
        "meta": {
          "profile": [
            "http://hl7.eu/fhir/laboratory/StructureDefinition/Specimen-eu-lab"
          ]
        },
        "collection": {
          "collectedDateTime": "2016-08-12"
        },
        "text": {
          "status": "generated",
          "div": "<div xmlns=\"http://www.w3.org/1999/xhtml\"><table class=\"hl7__eu__lab__report\"><tr><th>Specimen</th><th>Collection Date</th></tr><tr><td>Acellular blood (serum or plasma) specimen</td><td><span class=\"nb\">12-Aug-2016</span></td></tr></table></div>"
        },
        "type": {
          "coding": [
            {
              "code": "122592007",
              "system": "http://snomed.info/sct",
              "display": "Acellular blood (serum or plasma) specimen"
            }
          ]
        }
      }
    },
    {
      "fullUrl": "urn:uuid:9b03fc4e-7332-49d6-8451-08b819d94ca4",
      "resource": {
        "resourceType": "Specimen",
        "id": "9b03fc4e-7332-49d6-8451-08b819d94ca4",
        "meta": {
          "profile": [
            "http://hl7.eu/fhir/laboratory/StructureDefinition/Specimen-eu-lab"
          ]
        },
        "collection": {
          "collectedDateTime": "2016-08-12"
        },
        "text": {
          "status": "generated",
          "div": "<div xmlns=\"http://www.w3.org/1999/xhtml\"><table class=\"hl7__eu__lab__report\"><tr><th>Specimen</th><th>Collection Date</th></tr><tr><td>Serum specimen</td><td><span class=\"nb\">12-Aug-2016</span></td></tr></table></div>"
        },
        "type": {
          "coding": [
            {
              "code": "119364003",
              "system": "http://snomed.info/sct",
              "display": "Serum specimen"
            }
          ]
        }
      }
    },
    {
      "fullUrl": "urn:uuid:2d18586e-370b-4354-9892-4fb3cdf06c72",
      "resource": {
        "resourceType": "Observation",
        "id": "2d18586e-370b-4354-9892-4fb3cdf06c72",
        "meta": {
          "profile": [
            "http://hl7.eu/fhir/laboratory/StructureDefinition/Observation-resultslab-eu-lab"
          ]
        },
        "performer": [
          {
            "display": "The Central European Lab"
          }
        ],
        "category": [
          {
            "coding": [
              {
                "system": "http://terminology.hl7.org/CodeSystem/observation-category",
                "code": "laboratory"
              }
            ]
          }
        ],
        "code": {
          "coding": [
            {
              "code": "4548-4",
              "system": "http://loinc.org",
              "display": "Hemoglobin A1c/Hemoglobin.total in Blood"
            }
          ],
          "text": "Hemoglobin A1c/Hemoglobin.total in Blood"
        },
        "valueQuantity": {
          "system": "http://unitsofmeasure.org",
          "value": 6.3,
          "unit": "%",
          "code": "%"
        },
        "referenceRange": [
          {
            "low": {
              "value": 4.8,
              "code": "%",
              "system": "http://unitsofmeasure.org"
            }
          },
          {
            "high": {
              "value": 5.7,
              "code": "%",
              "system": "http://unitsofmeasure.org"
            }
          }
        ],
        "interpretation": [
          {
            "coding": [
              {
                "code": "H",
                "system": "http://terminology.hl7.org/CodeSystem/v3-ObservationInterpretation",
                "display": "High"
              }
            ]
          }
        ],
        "text": {
          "status": "generated",
          "div": "<div xmlns=\"http://www.w3.org/1999/xhtml\"><table class=\"hl7__eu__lab__report\"><tr><th>Test</th><th>12-Aug-2016</th><th>Reference&#xA0;Range</th><th>Unit</th></tr><tr><td>Hemoglobin A1c/Hemoglobin.total in Blood</td><td>6.3</td><td>4.8 - 5.7</td><td>H</td><td>%</td></tr></table></div>"
        },
        "status": "final",
        "subject": {
          "reference": "urn:uuid:995689df-0e73-4aa8-804c-75028ddf8f9a",
          "display": "Leonhard Köhler"
        },
        "effectiveDateTime": "2016-08-12T02:48:23Z",
        "specimen": {
          "reference": "urn:uuid:0d85eacd-08f7-4437-be4d-1b770477b237"
        }
      }
    },
    {
      "fullUrl": "urn:uuid:af826f96-417a-4f9e-986e-4b39959927b9",
      "resource": {
        "resourceType": "Observation",
        "id": "af826f96-417a-4f9e-986e-4b39959927b9",
        "meta": {
          "profile": [
            "http://hl7.eu/fhir/laboratory/StructureDefinition/Observation-resultslab-eu-lab"
          ]
        },
        "performer": [
          {
            "display": "The Central European Lab"
          }
        ],
        "category": [
          {
            "coding": [
              {
                "system": "http://terminology.hl7.org/CodeSystem/observation-category",
                "code": "laboratory"
              }
            ]
          }
        ],
        "code": {
          "coding": [
            {
              "code": "2093-3",
              "system": "http://loinc.org",
              "display": "Cholesterol [Mass/volume] in Serum or Plasma"
            }
          ],
          "text": "Cholesterol [Mass/volume] in Serum or Plasma"
        },
        "valueQuantity": {
          "system": "http://unitsofmeasure.org",
          "value": 279.3,
          "unit": "mg/dL",
          "code": "mg/dL"
        },
        "referenceRange": [
          {
            "low": {
              "value": 125,
              "code": "mg/dL",
              "system": "http://unitsofmeasure.org"
            }
          },
          {
            "high": {
              "value": 200,
              "code": "mg/dL",
              "system": "http://unitsofmeasure.org"
            }
          }
        ],
        "interpretation": [
          {
            "coding": [
              {
                "code": "H",
                "system": "http://terminology.hl7.org/CodeSystem/v3-ObservationInterpretation",
                "display": "High"
              }
            ]
          }
        ],
        "text": {
          "status": "generated",
          "div": "<div xmlns=\"http://www.w3.org/1999/xhtml\"><table class=\"hl7__eu__lab__report\"><tr><th>Test</th><th>12-Aug-2016</th><th>Reference&#xA0;Range</th><th>Unit</th></tr><tr><td>Cholesterol [Mass/volume] in Serum or Plasma</td><td>279.3</td><td>125 - 200</td><td>H</td><td>mg/dL</td></tr></table></div>"
        },
        "status": "final",
        "subject": {
          "reference": "urn:uuid:995689df-0e73-4aa8-804c-75028ddf8f9a",
          "display": "Leonhard Köhler"
        },
        "effectiveDateTime": "2016-08-12T02:48:23Z",
        "specimen": {
          "reference": "urn:uuid:795bc372-837f-4618-b7c0-6b6f06842300"
        }
      }
    },
    {
      "fullUrl": "urn:uuid:09baca47-991b-418d-a92e-3ca0f7e5b4c7",
      "resource": {
        "resourceType": "Observation",
        "id": "09baca47-991b-418d-a92e-3ca0f7e5b4c7",
        "meta": {
          "profile": [
            "http://hl7.eu/fhir/laboratory/StructureDefinition/Observation-resultslab-eu-lab"
          ]
        },
        "performer": [
          {
            "display": "The Central European Lab"
          }
        ],
        "category": [
          {
            "coding": [
              {
                "system": "http://terminology.hl7.org/CodeSystem/observation-category",
                "code": "laboratory"
              }
            ]
          }
        ],
        "code": {
          "coding": [
            {
              "code": "2571-8",
              "system": "http://loinc.org",
              "display": "Triglyceride [Mass/volume] in Serum or Plasma"
            }
          ],
          "text": "Triglyceride [Mass/volume] in Serum or Plasma"
        },
        "valueQuantity": {
          "system": "http://unitsofmeasure.org",
          "value": 141.5,
          "unit": "mg/dL",
          "code": "mg/dL"
        },
        "referenceRange": [
          {
            "low": {
              "value": 40,
              "code": "mg/dL",
              "system": "http://unitsofmeasure.org"
            }
          },
          {
            "high": {
              "value": 150,
              "code": "mg/dL",
              "system": "http://unitsofmeasure.org"
            }
          }
        ],
        "text": {
          "status": "generated",
          "div": "<div xmlns=\"http://www.w3.org/1999/xhtml\"><table class=\"hl7__eu__lab__report\"><tr><th>Test</th><th>12-Aug-2016</th><th>Reference&#xA0;Range</th><th>Unit</th></tr><tr><td>Triglyceride [Mass/volume] in Serum or Plasma</td><td>141.5</td><td>40 - 150</td><td></td><td>mg/dL</td></tr></table></div>"
        },
        "status": "final",
        "subject": {
          "reference": "urn:uuid:995689df-0e73-4aa8-804c-75028ddf8f9a",
          "display": "Leonhard Köhler"
        },
        "effectiveDateTime": "2016-08-12T02:48:23Z",
        "specimen": {
          "reference": "urn:uuid:795bc372-837f-4618-b7c0-6b6f06842300"
        }
      }
    },
    {
      "fullUrl": "urn:uuid:22a345c7-f07a-4932-a0e4-2997a0ff189b",
      "resource": {
        "resourceType": "Observation",
        "id": "22a345c7-f07a-4932-a0e4-2997a0ff189b",
        "meta": {
          "profile": [
            "http://hl7.eu/fhir/laboratory/StructureDefinition/Observation-resultslab-eu-lab"
          ]
        },
        "performer": [
          {
            "display": "The Central European Lab"
          }
        ],
        "category": [
          {
            "coding": [
              {
                "system": "http://terminology.hl7.org/CodeSystem/observation-category",
                "code": "laboratory"
              }
            ]
          }
        ],
        "code": {
          "coding": [
            {
              "code": "18262-6",
              "system": "http://loinc.org",
              "display": "Cholesterol in LDL [Mass/volume] in Serum or Plasma by Direct assay"
            }
          ],
          "text": "Cholesterol in LDL [Mass/volume] in Serum or Plasma by Direct assay"
        },
        "valueQuantity": {
          "system": "http://unitsofmeasure.org",
          "value": 131.8,
          "unit": "mg/dL",
          "code": "mg/dL"
        },
        "referenceRange": [
          {
            "low": {
              "value": 0,
              "code": "mg/dL",
              "system": "http://unitsofmeasure.org"
            }
          },
          {
            "high": {
              "value": 190,
              "code": "mg/dL",
              "system": "http://unitsofmeasure.org"
            }
          }
        ],
        "text": {
          "status": "generated",
          "div": "<div xmlns=\"http://www.w3.org/1999/xhtml\"><table class=\"hl7__eu__lab__report\"><tr><th>Test</th><th>12-Aug-2016</th><th>Reference&#xA0;Range</th><th>Unit</th></tr><tr><td>Cholesterol in LDL [Mass/volume] in Serum or Plasma by Direct assay</td><td>131.8</td><td>0 - 190</td><td></td><td>mg/dL</td></tr></table></div>"
        },
        "status": "final",
        "subject": {
          "reference": "urn:uuid:995689df-0e73-4aa8-804c-75028ddf8f9a",
          "display": "Leonhard Köhler"
        },
        "effectiveDateTime": "2016-08-12T02:48:23Z",
        "specimen": {
          "reference": "urn:uuid:795bc372-837f-4618-b7c0-6b6f06842300"
        }
      }
    },
    {
      "fullUrl": "urn:uuid:d04eaa13-3b65-466e-8c9e-5ad3a13a1823",
      "resource": {
        "resourceType": "Observation",
        "id": "d04eaa13-3b65-466e-8c9e-5ad3a13a1823",
        "meta": {
          "profile": [
            "http://hl7.eu/fhir/laboratory/StructureDefinition/Observation-resultslab-eu-lab"
          ]
        },
        "performer": [
          {
            "display": "The Central European Lab"
          }
        ],
        "category": [
          {
            "coding": [
              {
                "system": "http://terminology.hl7.org/CodeSystem/observation-category",
                "code": "laboratory"
              }
            ]
          }
        ],
        "code": {
          "coding": [
            {
              "code": "2085-9",
              "system": "http://loinc.org",
              "display": "Cholesterol in HDL [Mass/volume] in Serum or Plasma"
            }
          ],
          "text": "Cholesterol in HDL [Mass/volume] in Serum or Plasma"
        },
        "valueQuantity": {
          "system": "http://unitsofmeasure.org",
          "value": 49.7,
          "unit": "mg/dL",
          "code": "mg/dL"
        },
        "referenceRange": [
          {
            "low": {
              "value": 40,
              "code": "mg/dL",
              "system": "http://unitsofmeasure.org"
            }
          },
          {
            "high": {
              "value": 60,
              "code": "mg/dL",
              "system": "http://unitsofmeasure.org"
            }
          }
        ],
        "text": {
          "status": "generated",
          "div": "<div xmlns=\"http://www.w3.org/1999/xhtml\"><table class=\"hl7__eu__lab__report\"><tr><th>Test</th><th>12-Aug-2016</th><th>Reference&#xA0;Range</th><th>Unit</th></tr><tr><td>Cholesterol in HDL [Mass/volume] in Serum or Plasma</td><td>49.7</td><td>40 - 60</td><td></td><td>mg/dL</td></tr></table></div>"
        },
        "status": "final",
        "subject": {
          "reference": "urn:uuid:995689df-0e73-4aa8-804c-75028ddf8f9a",
          "display": "Leonhard Köhler"
        },
        "effectiveDateTime": "2016-08-12T02:48:23Z",
        "specimen": {
          "reference": "urn:uuid:795bc372-837f-4618-b7c0-6b6f06842300"
        }
      }
    },
    {
      "fullUrl": "urn:uuid:872eb70f-3381-4c2a-a71b-e0b0d617a30a",
      "resource": {
        "resourceType": "Observation",
        "id": "872eb70f-3381-4c2a-a71b-e0b0d617a30a",
        "meta": {
          "profile": [
            "http://hl7.eu/fhir/laboratory/StructureDefinition/Observation-resultslab-eu-lab"
          ]
        },
        "performer": [
          {
            "display": "The Central European Lab"
          }
        ],
        "category": [
          {
            "coding": [
              {
                "system": "http://terminology.hl7.org/CodeSystem/observation-category",
                "code": "laboratory"
              }
            ]
          }
        ],
        "code": {
          "coding": [
            {
              "code": "2339-0",
              "system": "http://loinc.org",
              "display": "Glucose [Mass/volume] in Blood"
            }
          ],
          "text": "Glucose [Mass/volume] in Blood"
        },
        "valueQuantity": {
          "system": "http://unitsofmeasure.org",
          "value": 88.9,
          "unit": "mg/dL",
          "code": "mg/dL"
        },
        "referenceRange": [
          {
            "low": {
              "value": 70,
              "code": "mg/dL",
              "system": "http://unitsofmeasure.org"
            }
          },
          {
            "high": {
              "value": 140,
              "code": "mg/dL",
              "system": "http://unitsofmeasure.org"
            }
          }
        ],
        "text": {
          "status": "generated",
          "div": "<div xmlns=\"http://www.w3.org/1999/xhtml\"><table class=\"hl7__eu__lab__report\"><tr><th>Test</th><th>12-Aug-2016</th><th>Reference&#xA0;Range</th><th>Unit</th></tr><tr><td>Glucose [Mass/volume] in Blood</td><td>88.9</td><td>70 - 140</td><td></td><td>mg/dL</td></tr></table></div>"
        },
        "status": "final",
        "subject": {
          "reference": "urn:uuid:995689df-0e73-4aa8-804c-75028ddf8f9a",
          "display": "Leonhard Köhler"
        },
        "effectiveDateTime": "2016-08-12T02:48:23Z",
        "specimen": {
          "reference": "urn:uuid:0d85eacd-08f7-4437-be4d-1b770477b237"
        }
      }
    },
    {
      "fullUrl": "urn:uuid:8d3ec14c-0072-48f0-bc6a-ba5d99498b43",
      "resource": {
        "resourceType": "Observation",
        "id": "8d3ec14c-0072-48f0-bc6a-ba5d99498b43",
        "meta": {
          "profile": [
            "http://hl7.eu/fhir/laboratory/StructureDefinition/Observation-resultslab-eu-lab"
          ]
        },
        "performer": [
          {
            "display": "The Central European Lab"
          }
        ],
        "category": [
          {
            "coding": [
              {
                "system": "http://terminology.hl7.org/CodeSystem/observation-category",
                "code": "laboratory"
              }
            ]
          }
        ],
        "code": {
          "coding": [
            {
              "code": "6299-2",
              "system": "http://loinc.org",
              "display": "Urea nitrogen [Mass/volume] in Blood"
            }
          ],
          "text": "Urea nitrogen [Mass/volume] in Blood"
        },
        "valueQuantity": {
          "system": "http://unitsofmeasure.org",
          "value": 12.1,
          "unit": "mg/dL",
          "code": "mg/dL"
        },
        "referenceRange": [
          {
            "low": {
              "value": 7,
              "code": "mg/dL",
              "system": "http://unitsofmeasure.org"
            }
          },
          {
            "high": {
              "value": 20,
              "code": "mg/dL",
              "system": "http://unitsofmeasure.org"
            }
          }
        ],
        "text": {
          "status": "generated",
          "div": "<div xmlns=\"http://www.w3.org/1999/xhtml\"><table class=\"hl7__eu__lab__report\"><tr><th>Test</th><th>12-Aug-2016</th><th>Reference&#xA0;Range</th><th>Unit</th></tr><tr><td>Urea nitrogen [Mass/volume] in Blood</td><td>12.1</td><td>7 - 20</td><td></td><td>mg/dL</td></tr></table></div>"
        },
        "status": "final",
        "subject": {
          "reference": "urn:uuid:995689df-0e73-4aa8-804c-75028ddf8f9a",
          "display": "Leonhard Köhler"
        },
        "effectiveDateTime": "2016-08-12T02:48:23Z",
        "specimen": {
          "reference": "urn:uuid:0d85eacd-08f7-4437-be4d-1b770477b237"
        }
      }
    },
    {
      "fullUrl": "urn:uuid:5a653a23-2e15-4d0e-a5d0-932eaf1c44bc",
      "resource": {
        "resourceType": "Observation",
        "id": "5a653a23-2e15-4d0e-a5d0-932eaf1c44bc",
        "meta": {
          "profile": [
            "http://hl7.eu/fhir/laboratory/StructureDefinition/Observation-resultslab-eu-lab"
          ]
        },
        "performer": [
          {
            "display": "The Central European Lab"
          }
        ],
        "category": [
          {
            "coding": [
              {
                "system": "http://terminology.hl7.org/CodeSystem/observation-category",
                "code": "laboratory"
              }
            ]
          }
        ],
        "code": {
          "coding": [
            {
              "code": "38483-4",
              "system": "http://loinc.org",
              "display": "Creatinine [Mass/volume] in Blood"
            }
          ],
          "text": "Creatinine [Mass/volume] in Blood"
        },
        "valueQuantity": {
          "system": "http://unitsofmeasure.org",
          "value": 3.1,
          "unit": "mg/dL",
          "code": "mg/dL"
        },
        "referenceRange": [
          {
            "low": {
              "value": 0.6,
              "code": "mg/dL",
              "system": "http://unitsofmeasure.org"
            }
          },
          {
            "high": {
              "value": 1.3,
              "code": "mg/dL",
              "system": "http://unitsofmeasure.org"
            }
          }
        ],
        "interpretation": [
          {
            "coding": [
              {
                "code": "H",
                "system": "http://terminology.hl7.org/CodeSystem/v3-ObservationInterpretation",
                "display": "High"
              }
            ]
          }
        ],
        "text": {
          "status": "generated",
          "div": "<div xmlns=\"http://www.w3.org/1999/xhtml\"><table class=\"hl7__eu__lab__report\"><tr><th>Test</th><th>12-Aug-2016</th><th>Reference&#xA0;Range</th><th>Unit</th></tr><tr><td>Creatinine [Mass/volume] in Blood</td><td>3.1</td><td>0.6 - 1.3</td><td>H</td><td>mg/dL</td></tr></table></div>"
        },
        "status": "final",
        "subject": {
          "reference": "urn:uuid:995689df-0e73-4aa8-804c-75028ddf8f9a",
          "display": "Leonhard Köhler"
        },
        "effectiveDateTime": "2016-08-12T02:48:23Z",
        "specimen": {
          "reference": "urn:uuid:0d85eacd-08f7-4437-be4d-1b770477b237"
        }
      }
    },
    {
      "fullUrl": "urn:uuid:e5c131ec-8009-4c04-baec-d84ecfea6622",
      "resource": {
        "resourceType": "Observation",
        "id": "e5c131ec-8009-4c04-baec-d84ecfea6622",
        "meta": {
          "profile": [
            "http://hl7.eu/fhir/laboratory/StructureDefinition/Observation-resultslab-eu-lab"
          ]
        },
        "performer": [
          {
            "display": "The Central European Lab"
          }
        ],
        "category": [
          {
            "coding": [
              {
                "system": "http://terminology.hl7.org/CodeSystem/observation-category",
                "code": "laboratory"
              }
            ]
          }
        ],
        "code": {
          "coding": [
            {
              "code": "49765-1",
              "system": "http://loinc.org",
              "display": "Calcium [Mass/volume] in Blood"
            }
          ],
          "text": "Calcium [Mass/volume] in Blood"
        },
        "valueQuantity": {
          "system": "http://unitsofmeasure.org",
          "value": 9.7,
          "unit": "mg/dL",
          "code": "mg/dL"
        },
        "referenceRange": [
          {
            "low": {
              "value": 8.5,
              "code": "mg/dL",
              "system": "http://unitsofmeasure.org"
            }
          },
          {
            "high": {
              "value": 10.5,
              "code": "mg/dL",
              "system": "http://unitsofmeasure.org"
            }
          }
        ],
        "text": {
          "status": "generated",
          "div": "<div xmlns=\"http://www.w3.org/1999/xhtml\"><table class=\"hl7__eu__lab__report\"><tr><th>Test</th><th>12-Aug-2016</th><th>Reference&#xA0;Range</th><th>Unit</th></tr><tr><td>Calcium [Mass/volume] in Blood</td><td>9.7</td><td>8.5 - 10.5</td><td></td><td>mg/dL</td></tr></table></div>"
        },
        "status": "final",
        "subject": {
          "reference": "urn:uuid:995689df-0e73-4aa8-804c-75028ddf8f9a",
          "display": "Leonhard Köhler"
        },
        "effectiveDateTime": "2016-08-12T02:48:23Z",
        "specimen": {
          "reference": "urn:uuid:0d85eacd-08f7-4437-be4d-1b770477b237"
        }
      }
    },
    {
      "fullUrl": "urn:uuid:9ed02ab6-bd20-40c1-abf7-eb8c29e2eacc",
      "resource": {
        "resourceType": "Observation",
        "id": "9ed02ab6-bd20-40c1-abf7-eb8c29e2eacc",
        "meta": {
          "profile": [
            "http://hl7.eu/fhir/laboratory/StructureDefinition/Observation-resultslab-eu-lab"
          ]
        },
        "performer": [
          {
            "display": "The Central European Lab"
          }
        ],
        "category": [
          {
            "coding": [
              {
                "system": "http://terminology.hl7.org/CodeSystem/observation-category",
                "code": "laboratory"
              }
            ]
          }
        ],
        "code": {
          "coding": [
            {
              "code": "2947-0",
              "system": "http://loinc.org",
              "display": "Sodium [Moles/volume] in Blood"
            }
          ],
          "text": "Sodium [Moles/volume] in Blood"
        },
        "valueQuantity": {
          "system": "http://unitsofmeasure.org",
          "value": 137.9,
          "unit": "mmol/L",
          "code": "mmol/L"
        },
        "referenceRange": [
          {
            "low": {
              "value": 135,
              "code": "mmol/L",
              "system": "http://unitsofmeasure.org"
            }
          },
          {
            "high": {
              "value": 145,
              "code": "mmol/L",
              "system": "http://unitsofmeasure.org"
            }
          }
        ],
        "text": {
          "status": "generated",
          "div": "<div xmlns=\"http://www.w3.org/1999/xhtml\"><table class=\"hl7__eu__lab__report\"><tr><th>Test</th><th>12-Aug-2016</th><th>Reference&#xA0;Range</th><th>Unit</th></tr><tr><td>Sodium [Moles/volume] in Blood</td><td>137.9</td><td>135 - 145</td><td></td><td>mmol/L</td></tr></table></div>"
        },
        "status": "final",
        "subject": {
          "reference": "urn:uuid:995689df-0e73-4aa8-804c-75028ddf8f9a",
          "display": "Leonhard Köhler"
        },
        "effectiveDateTime": "2016-08-12T02:48:23Z",
        "specimen": {
          "reference": "urn:uuid:0d85eacd-08f7-4437-be4d-1b770477b237"
        }
      }
    },
    {
      "fullUrl": "urn:uuid:f6ae0d18-16da-4a56-83c5-d4449664548a",
      "resource": {
        "resourceType": "Observation",
        "id": "f6ae0d18-16da-4a56-83c5-d4449664548a",
        "meta": {
          "profile": [
            "http://hl7.eu/fhir/laboratory/StructureDefinition/Observation-resultslab-eu-lab"
          ]
        },
        "performer": [
          {
            "display": "The Central European Lab"
          }
        ],
        "category": [
          {
            "coding": [
              {
                "system": "http://terminology.hl7.org/CodeSystem/observation-category",
                "code": "laboratory"
              }
            ]
          }
        ],
        "code": {
          "coding": [
            {
              "code": "6298-4",
              "system": "http://loinc.org",
              "display": "Potassium [Moles/volume] in Blood"
            }
          ],
          "text": "Potassium [Moles/volume] in Blood"
        },
        "valueQuantity": {
          "system": "http://unitsofmeasure.org",
          "value": 5,
          "unit": "mmol/L",
          "code": "mmol/L"
        },
        "referenceRange": [
          {
            "low": {
              "value": 3.5,
              "code": "mmol/L",
              "system": "http://unitsofmeasure.org"
            }
          },
          {
            "high": {
              "value": 5.1,
              "code": "mmol/L",
              "system": "http://unitsofmeasure.org"
            }
          }
        ],
        "text": {
          "status": "generated",
          "div": "<div xmlns=\"http://www.w3.org/1999/xhtml\"><table class=\"hl7__eu__lab__report\"><tr><th>Test</th><th>12-Aug-2016</th><th>Reference&#xA0;Range</th><th>Unit</th></tr><tr><td>Potassium [Moles/volume] in Blood</td><td>5.0</td><td>3.5 - 5.1</td><td></td><td>mmol/L</td></tr></table></div>"
        },
        "status": "final",
        "subject": {
          "reference": "urn:uuid:995689df-0e73-4aa8-804c-75028ddf8f9a",
          "display": "Leonhard Köhler"
        },
        "effectiveDateTime": "2016-08-12T02:48:23Z",
        "specimen": {
          "reference": "urn:uuid:0d85eacd-08f7-4437-be4d-1b770477b237"
        }
      }
    },
    {
      "fullUrl": "urn:uuid:9407f7e8-c8a3-4f90-8a3c-ac49977a987b",
      "resource": {
        "resourceType": "Observation",
        "id": "9407f7e8-c8a3-4f90-8a3c-ac49977a987b",
        "meta": {
          "profile": [
            "http://hl7.eu/fhir/laboratory/StructureDefinition/Observation-resultslab-eu-lab"
          ]
        },
        "performer": [
          {
            "display": "The Central European Lab"
          }
        ],
        "category": [
          {
            "coding": [
              {
                "system": "http://terminology.hl7.org/CodeSystem/observation-category",
                "code": "laboratory"
              }
            ]
          }
        ],
        "code": {
          "coding": [
            {
              "code": "2069-3",
              "system": "http://loinc.org",
              "display": "Chloride [Moles/volume] in Blood"
            }
          ],
          "text": "Chloride [Moles/volume] in Blood"
        },
        "valueQuantity": {
          "system": "http://unitsofmeasure.org",
          "value": 110.4,
          "unit": "mmol/L",
          "code": "mmol/L"
        },
        "referenceRange": [
          {
            "low": {
              "value": 98,
              "code": "mmol/L",
              "system": "http://unitsofmeasure.org"
            }
          },
          {
            "high": {
              "value": 108,
              "code": "mmol/L",
              "system": "http://unitsofmeasure.org"
            }
          }
        ],
        "interpretation": [
          {
            "coding": [
              {
                "code": "H",
                "system": "http://terminology.hl7.org/CodeSystem/v3-ObservationInterpretation",
                "display": "High"
              }
            ]
          }
        ],
        "text": {
          "status": "generated",
          "div": "<div xmlns=\"http://www.w3.org/1999/xhtml\"><table class=\"hl7__eu__lab__report\"><tr><th>Test</th><th>12-Aug-2016</th><th>Reference&#xA0;Range</th><th>Unit</th></tr><tr><td>Chloride [Moles/volume] in Blood</td><td>110.4</td><td>98 - 108</td><td>H</td><td>mmol/L</td></tr></table></div>"
        },
        "status": "final",
        "subject": {
          "reference": "urn:uuid:995689df-0e73-4aa8-804c-75028ddf8f9a",
          "display": "Leonhard Köhler"
        },
        "effectiveDateTime": "2016-08-12T02:48:23Z",
        "specimen": {
          "reference": "urn:uuid:0d85eacd-08f7-4437-be4d-1b770477b237"
        }
      }
    },
    {
      "fullUrl": "urn:uuid:950af2b6-a143-44af-86ca-12b70091a6f2",
      "resource": {
        "resourceType": "Observation",
        "id": "950af2b6-a143-44af-86ca-12b70091a6f2",
        "meta": {
          "profile": [
            "http://hl7.eu/fhir/laboratory/StructureDefinition/Observation-resultslab-eu-lab"
          ]
        },
        "performer": [
          {
            "display": "The Central European Lab"
          }
        ],
        "category": [
          {
            "coding": [
              {
                "system": "http://terminology.hl7.org/CodeSystem/observation-category",
                "code": "laboratory"
              }
            ]
          }
        ],
        "code": {
          "coding": [
            {
              "code": "20565-8",
              "system": "http://loinc.org",
              "display": "Carbon dioxide, total [Moles/volume] in Blood"
            }
          ],
          "text": "Carbon dioxide, total [Moles/volume] in Blood"
        },
        "valueQuantity": {
          "system": "http://unitsofmeasure.org",
          "value": 27.7,
          "unit": "mmol/L",
          "code": "mmol/L"
        },
        "referenceRange": [
          {
            "low": {
              "value": 22,
              "code": "mmol/L",
              "system": "http://unitsofmeasure.org"
            }
          },
          {
            "high": {
              "value": 32,
              "code": "mmol/L",
              "system": "http://unitsofmeasure.org"
            }
          }
        ],
        "text": {
          "status": "generated",
          "div": "<div xmlns=\"http://www.w3.org/1999/xhtml\"><table class=\"hl7__eu__lab__report\"><tr><th>Test</th><th>12-Aug-2016</th><th>Reference&#xA0;Range</th><th>Unit</th></tr><tr><td>Carbon dioxide, total [Moles/volume] in Blood</td><td>27.7</td><td>22 - 32</td><td></td><td>mmol/L</td></tr></table></div>"
        },
        "status": "final",
        "subject": {
          "reference": "urn:uuid:995689df-0e73-4aa8-804c-75028ddf8f9a",
          "display": "Leonhard Köhler"
        },
        "effectiveDateTime": "2016-08-12T02:48:23Z",
        "specimen": {
          "reference": "urn:uuid:0d85eacd-08f7-4437-be4d-1b770477b237"
        }
      }
    },
    {
      "fullUrl": "urn:uuid:a032a7a0-903e-447f-b9ae-c5ecc23dbbbe",
      "resource": {
        "resourceType": "Observation",
        "id": "a032a7a0-903e-447f-b9ae-c5ecc23dbbbe",
        "meta": {
          "profile": [
            "http://hl7.eu/fhir/laboratory/StructureDefinition/Observation-resultslab-eu-lab"
          ]
        },
        "performer": [
          {
            "display": "The Central European Lab"
          }
        ],
        "category": [
          {
            "coding": [
              {
                "system": "http://terminology.hl7.org/CodeSystem/observation-category",
                "code": "laboratory"
              }
            ]
          }
        ],
        "code": {
          "coding": [
            {
              "code": "2885-2",
              "system": "http://loinc.org",
              "display": "Protein [Mass/volume] in Serum or Plasma"
            }
          ],
          "text": "Protein [Mass/volume] in Serum or Plasma"
        },
        "valueQuantity": {
          "system": "http://unitsofmeasure.org",
          "value": 8,
          "unit": "g/dL",
          "code": "g/dL"
        },
        "referenceRange": [
          {
            "low": {
              "value": 6.6,
              "code": "g/dL",
              "system": "http://unitsofmeasure.org"
            }
          },
          {
            "high": {
              "value": 8.3,
              "code": "g/dL",
              "system": "http://unitsofmeasure.org"
            }
          }
        ],
        "text": {
          "status": "generated",
          "div": "<div xmlns=\"http://www.w3.org/1999/xhtml\"><table class=\"hl7__eu__lab__report\"><tr><th>Test</th><th>12-Aug-2016</th><th>Reference&#xA0;Range</th><th>Unit</th></tr><tr><td>Protein [Mass/volume] in Serum or Plasma</td><td>8.0</td><td>6.6 - 8.3</td><td></td><td>g/dL</td></tr></table></div>"
        },
        "status": "final",
        "subject": {
          "reference": "urn:uuid:995689df-0e73-4aa8-804c-75028ddf8f9a",
          "display": "Leonhard Köhler"
        },
        "effectiveDateTime": "2016-08-12T02:48:23Z",
        "specimen": {
          "reference": "urn:uuid:795bc372-837f-4618-b7c0-6b6f06842300"
        }
      }
    },
    {
      "fullUrl": "urn:uuid:3a462a82-4706-4d7c-a7f1-98fca3744df6",
      "resource": {
        "resourceType": "Observation",
        "id": "3a462a82-4706-4d7c-a7f1-98fca3744df6",
        "meta": {
          "profile": [
            "http://hl7.eu/fhir/laboratory/StructureDefinition/Observation-resultslab-eu-lab"
          ]
        },
        "performer": [
          {
            "display": "The Central European Lab"
          }
        ],
        "category": [
          {
            "coding": [
              {
                "system": "http://terminology.hl7.org/CodeSystem/observation-category",
                "code": "laboratory"
              }
            ]
          }
        ],
        "code": {
          "coding": [
            {
              "code": "1751-7",
              "system": "http://loinc.org",
              "display": "Albumin [Mass/volume] in Serum or Plasma"
            }
          ],
          "text": "Albumin [Mass/volume] in Serum or Plasma"
        },
        "valueQuantity": {
          "system": "http://unitsofmeasure.org",
          "value": 4.2,
          "unit": "g/dL",
          "code": "g/dL"
        },
        "referenceRange": [
          {
            "low": {
              "value": 3.5,
              "code": "g/dL",
              "system": "http://unitsofmeasure.org"
            }
          },
          {
            "high": {
              "value": 5.5,
              "code": "g/dL",
              "system": "http://unitsofmeasure.org"
            }
          }
        ],
        "text": {
          "status": "generated",
          "div": "<div xmlns=\"http://www.w3.org/1999/xhtml\"><table class=\"hl7__eu__lab__report\"><tr><th>Test</th><th>12-Aug-2016</th><th>Reference&#xA0;Range</th><th>Unit</th></tr><tr><td>Albumin [Mass/volume] in Serum or Plasma</td><td>4.2</td><td>3.5 - 5.5</td><td></td><td>g/dL</td></tr></table></div>"
        },
        "status": "final",
        "subject": {
          "reference": "urn:uuid:995689df-0e73-4aa8-804c-75028ddf8f9a",
          "display": "Leonhard Köhler"
        },
        "effectiveDateTime": "2016-08-12T02:48:23Z",
        "specimen": {
          "reference": "urn:uuid:795bc372-837f-4618-b7c0-6b6f06842300"
        }
      }
    },
    {
      "fullUrl": "urn:uuid:25dba352-9df9-45b3-893e-bb08719d792d",
      "resource": {
        "resourceType": "Observation",
        "id": "25dba352-9df9-45b3-893e-bb08719d792d",
        "meta": {
          "profile": [
            "http://hl7.eu/fhir/laboratory/StructureDefinition/Observation-resultslab-eu-lab"
          ]
        },
        "performer": [
          {
            "display": "The Central European Lab"
          }
        ],
        "category": [
          {
            "coding": [
              {
                "system": "http://terminology.hl7.org/CodeSystem/observation-category",
                "code": "laboratory"
              }
            ]
          }
        ],
        "code": {
          "coding": [
            {
              "code": "10834-0",
              "system": "http://loinc.org",
              "display": "Globulin [Mass/volume] in Serum by calculation"
            }
          ],
          "text": "Globulin [Mass/volume] in Serum by calculation"
        },
        "valueQuantity": {
          "system": "http://unitsofmeasure.org",
          "value": 2.9,
          "unit": "g/L",
          "code": "g/L"
        },
        "referenceRange": [
          {
            "low": {
              "value": 2,
              "code": "g/L",
              "system": "http://unitsofmeasure.org"
            }
          },
          {
            "high": {
              "value": 3.5,
              "code": "g/L",
              "system": "http://unitsofmeasure.org"
            }
          }
        ],
        "text": {
          "status": "generated",
          "div": "<div xmlns=\"http://www.w3.org/1999/xhtml\"><table class=\"hl7__eu__lab__report\"><tr><th>Test</th><th>12-Aug-2016</th><th>Reference&#xA0;Range</th><th>Unit</th></tr><tr><td>Globulin [Mass/volume] in Serum by calculation</td><td>2.9</td><td>2 - 3.5</td><td></td><td>g/L</td></tr></table></div>"
        },
        "status": "final",
        "subject": {
          "reference": "urn:uuid:995689df-0e73-4aa8-804c-75028ddf8f9a",
          "display": "Leonhard Köhler"
        },
        "effectiveDateTime": "2016-08-12T02:48:23Z",
        "specimen": {
          "reference": "urn:uuid:9b03fc4e-7332-49d6-8451-08b819d94ca4"
        }
      }
    },
    {
      "fullUrl": "urn:uuid:ede832ac-ae4f-434d-835b-bb5d637f79f0",
      "resource": {
        "resourceType": "Observation",
        "id": "ede832ac-ae4f-434d-835b-bb5d637f79f0",
        "meta": {
          "profile": [
            "http://hl7.eu/fhir/laboratory/StructureDefinition/Observation-resultslab-eu-lab"
          ]
        },
        "performer": [
          {
            "display": "The Central European Lab"
          }
        ],
        "category": [
          {
            "coding": [
              {
                "system": "http://terminology.hl7.org/CodeSystem/observation-category",
                "code": "laboratory"
              }
            ]
          }
        ],
        "code": {
          "coding": [
            {
              "code": "1975-2",
              "system": "http://loinc.org",
              "display": "Bilirubin.total [Mass/volume] in Serum or Plasma"
            }
          ],
          "text": "Bilirubin.total [Mass/volume] in Serum or Plasma"
        },
        "valueQuantity": {
          "system": "http://unitsofmeasure.org",
          "value": 0.2,
          "unit": "mg/dL",
          "code": "mg/dL"
        },
        "referenceRange": [
          {
            "low": {
              "value": 0.3,
              "code": "mg/dL",
              "system": "http://unitsofmeasure.org"
            }
          },
          {
            "high": {
              "value": 1.2,
              "code": "mg/dL",
              "system": "http://unitsofmeasure.org"
            }
          }
        ],
        "interpretation": [
          {
            "coding": [
              {
                "code": "L",
                "system": "http://terminology.hl7.org/CodeSystem/v3-ObservationInterpretation",
                "display": "Low"
              }
            ]
          }
        ],
        "text": {
          "status": "generated",
          "div": "<div xmlns=\"http://www.w3.org/1999/xhtml\"><table class=\"hl7__eu__lab__report\"><tr><th>Test</th><th>12-Aug-2016</th><th>Reference&#xA0;Range</th><th>Unit</th></tr><tr><td>Bilirubin.total [Mass/volume] in Serum or Plasma</td><td>0.2</td><td>0.3 - 1.2</td><td>L</td><td>mg/dL</td></tr></table></div>"
        },
        "status": "final",
        "subject": {
          "reference": "urn:uuid:995689df-0e73-4aa8-804c-75028ddf8f9a",
          "display": "Leonhard Köhler"
        },
        "effectiveDateTime": "2016-08-12T02:48:23Z",
        "specimen": {
          "reference": "urn:uuid:795bc372-837f-4618-b7c0-6b6f06842300"
        }
      }
    },
    {
      "fullUrl": "urn:uuid:0e544bda-755d-4c5b-bbf8-d6f86e86efb7",
      "resource": {
        "resourceType": "Observation",
        "id": "0e544bda-755d-4c5b-bbf8-d6f86e86efb7",
        "meta": {
          "profile": [
            "http://hl7.eu/fhir/laboratory/StructureDefinition/Observation-resultslab-eu-lab"
          ]
        },
        "performer": [
          {
            "display": "The Central European Lab"
          }
        ],
        "category": [
          {
            "coding": [
              {
                "system": "http://terminology.hl7.org/CodeSystem/observation-category",
                "code": "laboratory"
              }
            ]
          }
        ],
        "code": {
          "coding": [
            {
              "code": "6768-6",
              "system": "http://loinc.org",
              "display": "Alkaline phosphatase [Enzymatic activity/volume] in Serum or Plasma"
            }
          ],
          "text": "Alkaline phosphatase [Enzymatic activity/volume] in Serum or Plasma"
        },
        "valueQuantity": {
          "system": "http://unitsofmeasure.org",
          "value": 115.9,
          "unit": "U/L",
          "code": "U/L"
        },
        "referenceRange": [
          {
            "low": {
              "value": 53,
              "code": "U/L",
              "system": "http://unitsofmeasure.org"
            }
          },
          {
            "high": {
              "value": 130,
              "code": "U/L",
              "system": "http://unitsofmeasure.org"
            }
          }
        ],
        "text": {
          "status": "generated",
          "div": "<div xmlns=\"http://www.w3.org/1999/xhtml\"><table class=\"hl7__eu__lab__report\"><tr><th>Test</th><th>12-Aug-2016</th><th>Reference&#xA0;Range</th><th>Unit</th></tr><tr><td>Alkaline phosphatase [Enzymatic activity/volume] in Serum or Plasma</td><td>115.9</td><td>53 - 130</td><td></td><td>U/L</td></tr></table></div>"
        },
        "status": "final",
        "subject": {
          "reference": "urn:uuid:995689df-0e73-4aa8-804c-75028ddf8f9a",
          "display": "Leonhard Köhler"
        },
        "effectiveDateTime": "2016-08-12T02:48:23Z",
        "specimen": {
          "reference": "urn:uuid:795bc372-837f-4618-b7c0-6b6f06842300"
        }
      }
    },
    {
      "fullUrl": "urn:uuid:de29a51e-9d4f-4f26-a2e4-0fe148708838",
      "resource": {
        "resourceType": "Observation",
        "id": "de29a51e-9d4f-4f26-a2e4-0fe148708838",
        "meta": {
          "profile": [
            "http://hl7.eu/fhir/laboratory/StructureDefinition/Observation-resultslab-eu-lab"
          ]
        },
        "performer": [
          {
            "display": "The Central European Lab"
          }
        ],
        "category": [
          {
            "coding": [
              {
                "system": "http://terminology.hl7.org/CodeSystem/observation-category",
                "code": "laboratory"
              }
            ]
          }
        ],
        "code": {
          "coding": [
            {
              "code": "1742-6",
              "system": "http://loinc.org",
              "display": "Alanine aminotransferase [Enzymatic activity/volume] in Serum or Plasma"
            }
          ],
          "text": "Alanine aminotransferase [Enzymatic activity/volume] in Serum or Plasma"
        },
        "valueQuantity": {
          "system": "http://unitsofmeasure.org",
          "value": 43.2,
          "unit": "U/L",
          "code": "U/L"
        },
        "referenceRange": [
          {
            "low": {
              "value": 7,
              "code": "U/L",
              "system": "http://unitsofmeasure.org"
            }
          },
          {
            "high": {
              "value": 60,
              "code": "U/L",
              "system": "http://unitsofmeasure.org"
            }
          }
        ],
        "text": {
          "status": "generated",
          "div": "<div xmlns=\"http://www.w3.org/1999/xhtml\"><table class=\"hl7__eu__lab__report\"><tr><th>Test</th><th>12-Aug-2016</th><th>Reference&#xA0;Range</th><th>Unit</th></tr><tr><td>Alanine aminotransferase [Enzymatic activity/volume] in Serum or Plasma</td><td>43.2</td><td>7 - 60</td><td></td><td>U/L</td></tr></table></div>"
        },
        "status": "final",
        "subject": {
          "reference": "urn:uuid:995689df-0e73-4aa8-804c-75028ddf8f9a",
          "display": "Leonhard Köhler"
        },
        "effectiveDateTime": "2016-08-12T02:48:23Z",
        "specimen": {
          "reference": "urn:uuid:795bc372-837f-4618-b7c0-6b6f06842300"
        }
      }
    },
    {
      "fullUrl": "urn:uuid:4662ff5e-e28b-40ec-881e-a5ff378ffe45",
      "resource": {
        "resourceType": "Observation",
        "id": "4662ff5e-e28b-40ec-881e-a5ff378ffe45",
        "meta": {
          "profile": [
            "http://hl7.eu/fhir/laboratory/StructureDefinition/Observation-resultslab-eu-lab"
          ]
        },
        "performer": [
          {
            "display": "The Central European Lab"
          }
        ],
        "category": [
          {
            "coding": [
              {
                "system": "http://terminology.hl7.org/CodeSystem/observation-category",
                "code": "laboratory"
              }
            ]
          }
        ],
        "code": {
          "coding": [
            {
              "code": "1920-8",
              "system": "http://loinc.org",
              "display": "Aspartate aminotransferase [Enzymatic activity/volume] in Serum or Plasma"
            }
          ],
          "text": "Aspartate aminotransferase [Enzymatic activity/volume] in Serum or Plasma"
        },
        "valueQuantity": {
          "system": "http://unitsofmeasure.org",
          "value": 16,
          "unit": "U/L",
          "code": "U/L"
        },
        "referenceRange": [
          {
            "low": {
              "value": 10,
              "code": "U/L",
              "system": "http://unitsofmeasure.org"
            }
          },
          {
            "high": {
              "value": 49,
              "code": "U/L",
              "system": "http://unitsofmeasure.org"
            }
          }
        ],
        "text": {
          "status": "generated",
          "div": "<div xmlns=\"http://www.w3.org/1999/xhtml\"><table class=\"hl7__eu__lab__report\"><tr><th>Test</th><th>12-Aug-2016</th><th>Reference&#xA0;Range</th><th>Unit</th></tr><tr><td>Aspartate aminotransferase [Enzymatic activity/volume] in Serum or Plasma</td><td>16.0</td><td>10 - 49</td><td></td><td>U/L</td></tr></table></div>"
        },
        "status": "final",
        "subject": {
          "reference": "urn:uuid:995689df-0e73-4aa8-804c-75028ddf8f9a",
          "display": "Leonhard Köhler"
        },
        "effectiveDateTime": "2016-08-12T02:48:23Z",
        "specimen": {
          "reference": "urn:uuid:795bc372-837f-4618-b7c0-6b6f06842300"
        }
      }
    },
    {
      "fullUrl": "urn:uuid:e85e30a9-1091-4d72-a324-b39288cc691a",
      "resource": {
        "resourceType": "Observation",
        "id": "e85e30a9-1091-4d72-a324-b39288cc691a",
        "meta": {
          "profile": [
            "http://hl7.eu/fhir/laboratory/StructureDefinition/Observation-resultslab-eu-lab"
          ]
        },
        "performer": [
          {
            "display": "The Central European Lab"
          }
        ],
        "category": [
          {
            "coding": [
              {
                "system": "http://terminology.hl7.org/CodeSystem/observation-category",
                "code": "laboratory"
              }
            ]
          }
        ],
        "code": {
          "coding": [
            {
              "code": "2339-0",
              "system": "http://loinc.org",
              "display": "Glucose [Mass/volume] in Blood"
            }
          ],
          "text": "Glucose [Mass/volume] in Blood"
        },
        "valueQuantity": {
          "system": "http://unitsofmeasure.org",
          "value": 88.9,
          "unit": "mg/dL",
          "code": "mg/dL"
        },
        "referenceRange": [
          {
            "low": {
              "value": 70,
              "code": "mg/dL",
              "system": "http://unitsofmeasure.org"
            }
          },
          {
            "high": {
              "value": 140,
              "code": "mg/dL",
              "system": "http://unitsofmeasure.org"
            }
          }
        ],
        "text": {
          "status": "generated",
          "div": "<div xmlns=\"http://www.w3.org/1999/xhtml\"><table class=\"hl7__eu__lab__report\"><tr><th>Test</th><th>12-Aug-2016</th><th>Reference&#xA0;Range</th><th>Unit</th></tr><tr><td>Glucose [Mass/volume] in Blood</td><td>88.9</td><td>70 - 140</td><td></td><td>mg/dL</td></tr></table></div>"
        },
        "status": "final",
        "subject": {
          "reference": "urn:uuid:995689df-0e73-4aa8-804c-75028ddf8f9a",
          "display": "Leonhard Köhler"
        },
        "effectiveDateTime": "2016-08-12T02:48:23Z",
        "specimen": {
          "reference": "urn:uuid:0d85eacd-08f7-4437-be4d-1b770477b237"
        }
      }
    },
    {
      "fullUrl": "urn:uuid:3853a267-f4b6-4b2d-b95e-65b841ab026d",
      "resource": {
        "resourceType": "Observation",
        "id": "3853a267-f4b6-4b2d-b95e-65b841ab026d",
        "meta": {
          "profile": [
            "http://hl7.eu/fhir/laboratory/StructureDefinition/Observation-resultslab-eu-lab"
          ]
        },
        "performer": [
          {
            "display": "The Central European Lab"
          }
        ],
        "category": [
          {
            "coding": [
              {
                "system": "http://terminology.hl7.org/CodeSystem/observation-category",
                "code": "laboratory"
              }
            ]
          }
        ],
        "code": {
          "coding": [
            {
              "code": "6299-2",
              "system": "http://loinc.org",
              "display": "Urea nitrogen [Mass/volume] in Blood"
            }
          ],
          "text": "Urea nitrogen [Mass/volume] in Blood"
        },
        "valueQuantity": {
          "system": "http://unitsofmeasure.org",
          "value": 12.1,
          "unit": "mg/dL",
          "code": "mg/dL"
        },
        "referenceRange": [
          {
            "low": {
              "value": 7,
              "code": "mg/dL",
              "system": "http://unitsofmeasure.org"
            }
          },
          {
            "high": {
              "value": 20,
              "code": "mg/dL",
              "system": "http://unitsofmeasure.org"
            }
          }
        ],
        "text": {
          "status": "generated",
          "div": "<div xmlns=\"http://www.w3.org/1999/xhtml\"><table class=\"hl7__eu__lab__report\"><tr><th>Test</th><th>12-Aug-2016</th><th>Reference&#xA0;Range</th><th>Unit</th></tr><tr><td>Urea nitrogen [Mass/volume] in Blood</td><td>12.1</td><td>7 - 20</td><td></td><td>mg/dL</td></tr></table></div>"
        },
        "status": "final",
        "subject": {
          "reference": "urn:uuid:995689df-0e73-4aa8-804c-75028ddf8f9a",
          "display": "Leonhard Köhler"
        },
        "effectiveDateTime": "2016-08-12T02:48:23Z",
        "specimen": {
          "reference": "urn:uuid:0d85eacd-08f7-4437-be4d-1b770477b237"
        }
      }
    },
    {
      "fullUrl": "urn:uuid:190c45bc-46ea-4b78-ae27-6439aff0541e",
      "resource": {
        "resourceType": "Observation",
        "id": "190c45bc-46ea-4b78-ae27-6439aff0541e",
        "meta": {
          "profile": [
            "http://hl7.eu/fhir/laboratory/StructureDefinition/Observation-resultslab-eu-lab"
          ]
        },
        "performer": [
          {
            "display": "The Central European Lab"
          }
        ],
        "category": [
          {
            "coding": [
              {
                "system": "http://terminology.hl7.org/CodeSystem/observation-category",
                "code": "laboratory"
              }
            ]
          }
        ],
        "code": {
          "coding": [
            {
              "code": "38483-4",
              "system": "http://loinc.org",
              "display": "Creatinine [Mass/volume] in Blood"
            }
          ],
          "text": "Creatinine [Mass/volume] in Blood"
        },
        "valueQuantity": {
          "system": "http://unitsofmeasure.org",
          "value": 1,
          "unit": "mg/dL",
          "code": "mg/dL"
        },
        "referenceRange": [
          {
            "low": {
              "value": 0.6,
              "code": "mg/dL",
              "system": "http://unitsofmeasure.org"
            }
          },
          {
            "high": {
              "value": 1.3,
              "code": "mg/dL",
              "system": "http://unitsofmeasure.org"
            }
          }
        ],
        "text": {
          "status": "generated",
          "div": "<div xmlns=\"http://www.w3.org/1999/xhtml\"><table class=\"hl7__eu__lab__report\"><tr><th>Test</th><th>12-Aug-2016</th><th>Reference&#xA0;Range</th><th>Unit</th></tr><tr><td>Creatinine [Mass/volume] in Blood</td><td>1.0</td><td>0.6 - 1.3</td><td></td><td>mg/dL</td></tr></table></div>"
        },
        "status": "final",
        "subject": {
          "reference": "urn:uuid:995689df-0e73-4aa8-804c-75028ddf8f9a",
          "display": "Leonhard Köhler"
        },
        "effectiveDateTime": "2016-08-12T02:48:23Z",
        "specimen": {
          "reference": "urn:uuid:0d85eacd-08f7-4437-be4d-1b770477b237"
        }
      }
    },
    {
      "fullUrl": "urn:uuid:85d29e2a-2b8b-4119-9de1-3719370b73f4",
      "resource": {
        "resourceType": "Observation",
        "id": "85d29e2a-2b8b-4119-9de1-3719370b73f4",
        "meta": {
          "profile": [
            "http://hl7.eu/fhir/laboratory/StructureDefinition/Observation-resultslab-eu-lab"
          ]
        },
        "performer": [
          {
            "display": "The Central European Lab"
          }
        ],
        "category": [
          {
            "coding": [
              {
                "system": "http://terminology.hl7.org/CodeSystem/observation-category",
                "code": "laboratory"
              }
            ]
          }
        ],
        "code": {
          "coding": [
            {
              "code": "49765-1",
              "system": "http://loinc.org",
              "display": "Calcium [Mass/volume] in Blood"
            }
          ],
          "text": "Calcium [Mass/volume] in Blood"
        },
        "valueQuantity": {
          "system": "http://unitsofmeasure.org",
          "value": 9.7,
          "unit": "mg/dL",
          "code": "mg/dL"
        },
        "referenceRange": [
          {
            "low": {
              "value": 8.5,
              "code": "mg/dL",
              "system": "http://unitsofmeasure.org"
            }
          },
          {
            "high": {
              "value": 10.5,
              "code": "mg/dL",
              "system": "http://unitsofmeasure.org"
            }
          }
        ],
        "text": {
          "status": "generated",
          "div": "<div xmlns=\"http://www.w3.org/1999/xhtml\"><table class=\"hl7__eu__lab__report\"><tr><th>Test</th><th>12-Aug-2016</th><th>Reference&#xA0;Range</th><th>Unit</th></tr><tr><td>Calcium [Mass/volume] in Blood</td><td>9.7</td><td>8.5 - 10.5</td><td></td><td>mg/dL</td></tr></table></div>"
        },
        "status": "final",
        "subject": {
          "reference": "urn:uuid:995689df-0e73-4aa8-804c-75028ddf8f9a",
          "display": "Leonhard Köhler"
        },
        "effectiveDateTime": "2016-08-12T02:48:23Z",
        "specimen": {
          "reference": "urn:uuid:0d85eacd-08f7-4437-be4d-1b770477b237"
        }
      }
    },
    {
      "fullUrl": "urn:uuid:a9aa25a5-dc92-4a8c-adb2-e1598010ff2f",
      "resource": {
        "resourceType": "Observation",
        "id": "a9aa25a5-dc92-4a8c-adb2-e1598010ff2f",
        "meta": {
          "profile": [
            "http://hl7.eu/fhir/laboratory/StructureDefinition/Observation-resultslab-eu-lab"
          ]
        },
        "performer": [
          {
            "display": "The Central European Lab"
          }
        ],
        "category": [
          {
            "coding": [
              {
                "system": "http://terminology.hl7.org/CodeSystem/observation-category",
                "code": "laboratory"
              }
            ]
          }
        ],
        "code": {
          "coding": [
            {
              "code": "2947-0",
              "system": "http://loinc.org",
              "display": "Sodium [Moles/volume] in Blood"
            }
          ],
          "text": "Sodium [Moles/volume] in Blood"
        },
        "valueQuantity": {
          "system": "http://unitsofmeasure.org",
          "value": 137.9,
          "unit": "mmol/L",
          "code": "mmol/L"
        },
        "referenceRange": [
          {
            "low": {
              "value": 135,
              "code": "mmol/L",
              "system": "http://unitsofmeasure.org"
            }
          },
          {
            "high": {
              "value": 145,
              "code": "mmol/L",
              "system": "http://unitsofmeasure.org"
            }
          }
        ],
        "text": {
          "status": "generated",
          "div": "<div xmlns=\"http://www.w3.org/1999/xhtml\"><table class=\"hl7__eu__lab__report\"><tr><th>Test</th><th>12-Aug-2016</th><th>Reference&#xA0;Range</th><th>Unit</th></tr><tr><td>Sodium [Moles/volume] in Blood</td><td>137.9</td><td>135 - 145</td><td></td><td>mmol/L</td></tr></table></div>"
        },
        "status": "final",
        "subject": {
          "reference": "urn:uuid:995689df-0e73-4aa8-804c-75028ddf8f9a",
          "display": "Leonhard Köhler"
        },
        "effectiveDateTime": "2016-08-12T02:48:23Z",
        "specimen": {
          "reference": "urn:uuid:0d85eacd-08f7-4437-be4d-1b770477b237"
        }
      }
    },
    {
      "fullUrl": "urn:uuid:a5e62129-940a-4974-a410-24160ea27f93",
      "resource": {
        "resourceType": "Observation",
        "id": "a5e62129-940a-4974-a410-24160ea27f93",
        "meta": {
          "profile": [
            "http://hl7.eu/fhir/laboratory/StructureDefinition/Observation-resultslab-eu-lab"
          ]
        },
        "performer": [
          {
            "display": "The Central European Lab"
          }
        ],
        "category": [
          {
            "coding": [
              {
                "system": "http://terminology.hl7.org/CodeSystem/observation-category",
                "code": "laboratory"
              }
            ]
          }
        ],
        "code": {
          "coding": [
            {
              "code": "6298-4",
              "system": "http://loinc.org",
              "display": "Potassium [Moles/volume] in Blood"
            }
          ],
          "text": "Potassium [Moles/volume] in Blood"
        },
        "valueQuantity": {
          "system": "http://unitsofmeasure.org",
          "value": 5,
          "unit": "mmol/L",
          "code": "mmol/L"
        },
        "referenceRange": [
          {
            "low": {
              "value": 3.5,
              "code": "mmol/L",
              "system": "http://unitsofmeasure.org"
            }
          },
          {
            "high": {
              "value": 5.1,
              "code": "mmol/L",
              "system": "http://unitsofmeasure.org"
            }
          }
        ],
        "text": {
          "status": "generated",
          "div": "<div xmlns=\"http://www.w3.org/1999/xhtml\"><table class=\"hl7__eu__lab__report\"><tr><th>Test</th><th>12-Aug-2016</th><th>Reference&#xA0;Range</th><th>Unit</th></tr><tr><td>Potassium [Moles/volume] in Blood</td><td>5.0</td><td>3.5 - 5.1</td><td></td><td>mmol/L</td></tr></table></div>"
        },
        "status": "final",
        "subject": {
          "reference": "urn:uuid:995689df-0e73-4aa8-804c-75028ddf8f9a",
          "display": "Leonhard Köhler"
        },
        "effectiveDateTime": "2016-08-12T02:48:23Z",
        "specimen": {
          "reference": "urn:uuid:0d85eacd-08f7-4437-be4d-1b770477b237"
        }
      }
    },
    {
      "fullUrl": "urn:uuid:e95a78e3-0f38-4949-9754-fb23ba0adc04",
      "resource": {
        "resourceType": "Observation",
        "id": "e95a78e3-0f38-4949-9754-fb23ba0adc04",
        "meta": {
          "profile": [
            "http://hl7.eu/fhir/laboratory/StructureDefinition/Observation-resultslab-eu-lab"
          ]
        },
        "performer": [
          {
            "display": "The Central European Lab"
          }
        ],
        "category": [
          {
            "coding": [
              {
                "system": "http://terminology.hl7.org/CodeSystem/observation-category",
                "code": "laboratory"
              }
            ]
          }
        ],
        "code": {
          "coding": [
            {
              "code": "2069-3",
              "system": "http://loinc.org",
              "display": "Chloride [Moles/volume] in Blood"
            }
          ],
          "text": "Chloride [Moles/volume] in Blood"
        },
        "valueQuantity": {
          "system": "http://unitsofmeasure.org",
          "value": 110.4,
          "unit": "mmol/L",
          "code": "mmol/L"
        },
        "referenceRange": [
          {
            "low": {
              "value": 98,
              "code": "mmol/L",
              "system": "http://unitsofmeasure.org"
            }
          },
          {
            "high": {
              "value": 108,
              "code": "mmol/L",
              "system": "http://unitsofmeasure.org"
            }
          }
        ],
        "interpretation": [
          {
            "coding": [
              {
                "code": "H",
                "system": "http://terminology.hl7.org/CodeSystem/v3-ObservationInterpretation",
                "display": "High"
              }
            ]
          }
        ],
        "text": {
          "status": "generated",
          "div": "<div xmlns=\"http://www.w3.org/1999/xhtml\"><table class=\"hl7__eu__lab__report\"><tr><th>Test</th><th>12-Aug-2016</th><th>Reference&#xA0;Range</th><th>Unit</th></tr><tr><td>Chloride [Moles/volume] in Blood</td><td>110.4</td><td>98 - 108</td><td>H</td><td>mmol/L</td></tr></table></div>"
        },
        "status": "final",
        "subject": {
          "reference": "urn:uuid:995689df-0e73-4aa8-804c-75028ddf8f9a",
          "display": "Leonhard Köhler"
        },
        "effectiveDateTime": "2016-08-12T02:48:23Z",
        "specimen": {
          "reference": "urn:uuid:0d85eacd-08f7-4437-be4d-1b770477b237"
        }
      }
    },
    {
      "fullUrl": "urn:uuid:b9074d26-b9d1-4998-b58c-ab32d1ca6bbf",
      "resource": {
        "resourceType": "Observation",
        "id": "b9074d26-b9d1-4998-b58c-ab32d1ca6bbf",
        "meta": {
          "profile": [
            "http://hl7.eu/fhir/laboratory/StructureDefinition/Observation-resultslab-eu-lab"
          ]
        },
        "performer": [
          {
            "display": "The Central European Lab"
          }
        ],
        "category": [
          {
            "coding": [
              {
                "system": "http://terminology.hl7.org/CodeSystem/observation-category",
                "code": "laboratory"
              }
            ]
          }
        ],
        "code": {
          "coding": [
            {
              "code": "20565-8",
              "system": "http://loinc.org",
              "display": "Carbon dioxide, total [Moles/volume] in Blood"
            }
          ],
          "text": "Carbon dioxide, total [Moles/volume] in Blood"
        },
        "valueQuantity": {
          "system": "http://unitsofmeasure.org",
          "value": 27.7,
          "unit": "mmol/L",
          "code": "mmol/L"
        },
        "referenceRange": [
          {
            "low": {
              "value": 22,
              "code": "mmol/L",
              "system": "http://unitsofmeasure.org"
            }
          },
          {
            "high": {
              "value": 32,
              "code": "mmol/L",
              "system": "http://unitsofmeasure.org"
            }
          }
        ],
        "text": {
          "status": "generated",
          "div": "<div xmlns=\"http://www.w3.org/1999/xhtml\"><table class=\"hl7__eu__lab__report\"><tr><th>Test</th><th>12-Aug-2016</th><th>Reference&#xA0;Range</th><th>Unit</th></tr><tr><td>Carbon dioxide, total [Moles/volume] in Blood</td><td>27.7</td><td>22 - 32</td><td></td><td>mmol/L</td></tr></table></div>"
        },
        "status": "final",
        "subject": {
          "reference": "urn:uuid:995689df-0e73-4aa8-804c-75028ddf8f9a",
          "display": "Leonhard Köhler"
        },
        "effectiveDateTime": "2016-08-12T02:48:23Z",
        "specimen": {
          "reference": "urn:uuid:0d85eacd-08f7-4437-be4d-1b770477b237"
        }
      }
    },
    {
      "fullUrl": "urn:uuid:6cb4d250-a563-4cbe-aba4-c1e2dd1717a9",
      "resource": {
        "resourceType": "Device",
        "id": "6cb4d250-a563-4cbe-aba4-c1e2dd1717a9",
        "deviceName": [
          {
            "name": "SYNDERAI Synthetic Generator",
            "type": "manufacturer-name"
          }
        ],
        "version": [
          {
            "value": "5.0"
          }
        ],
        "text": {
          "status": "generated",
          "div": "<div xmlns=\"http://www.w3.org/1999/xhtml\">SYNDERAI Synthetic Generator v5.0</div>"
        },
        "status": "active\"",
        "distinctIdentifier": "synderai-generator-50",
        "manufacturer": "SYNDERAI Project"
      }
    },
    {
      "fullUrl": "urn:uuid:1adc6ae0-eb40-42e5-8061-aacfd988c06b",
      "resource": {
        "resourceType": "Provenance",
        "id": "1adc6ae0-eb40-42e5-8061-aacfd988c06b",
        "target": [
          {
            "reference": "Patient/995689df-0e73-4aa8-804c-75028ddf8f9a"
          },
          {
            "reference": "Bundle/58be40b2-45d1-485a-bb31-4ddb0654d872"
          },
          {
            "reference": "Composition/469acd61-c80f-4af3-96bf-0de6987f2b7d"
          },
          {
            "reference": "PractitionerRole/2b0224d4-75dc-40bc-882c-cb74621421db"
          },
          {
            "reference": "Practitioner/49361b36-a1ec-4e1f-9d75-563e1a02f7fa"
          },
          {
            "reference": "PractitionerRole/d4231657-6df6-485c-99b2-ebec31248775"
          },
          {
            "reference": "Organization/dcacc7a8-083c-4a9a-b463-483e20434b7b"
          }
        ],
        "activity": {
          "text": "Synthetic Example Data Generation"
        },
        "policy": [
          "https://synderai.net/synderai-synthetic-data-policy"
        ],
        "agent": [
          {
            "type": {
              "text": "author"
            },
            "who": {
              "reference": "Device/6cb4d250-a563-4cbe-aba4-c1e2dd1717a9"
            }
          }
        ],
        "reason": [
          {
            "text": "Interoperability Testing and Training (non-clinical use)"
          }
        ],
        "text": {
          "status": "generated",
          "div": "<div xmlns=\"http://www.w3.org/1999/xhtml\">Provenance for SYNDERAI Synthetic Example Data Resource</div>"
        },
        "recorded": "2016-08-12T04:48:23Z"
      }
    },
    {
      "fullUrl": "urn:uuid:2b0224d4-75dc-40bc-882c-cb74621421db",
      "resource": {
        "resourceType": "PractitionerRole",
        "id": "2b0224d4-75dc-40bc-882c-cb74621421db",
        "meta": {
          "profile": [
            "http://hl7.eu/fhir/base/StructureDefinition/practitionerRole-eu"
          ]
        },
        "text": {
          "status": "generated",
          "div": "<div xmlns=\"http://www.w3.org/1999/xhtml\">Laboratory Role Id: 2b0224d4-75dc-40bc-882c-cb74621421db</div>"
        },
        "practitioner": {
          "reference": "urn:uuid:49361b36-a1ec-4e1f-9d75-563e1a02f7fa"
        }
      }
    },
    {
      "fullUrl": "urn:uuid:49361b36-a1ec-4e1f-9d75-563e1a02f7fa",
      "resource": {
        "resourceType": "Practitioner",
        "id": "49361b36-a1ec-4e1f-9d75-563e1a02f7fa",
        "meta": {
          "profile": [
            "http://hl7.eu/fhir/base/StructureDefinition/practitioner-eu"
          ]
        },
        "identifier": [
          {
            "assigner": {
              "display": "HL7 Europe"
            },
            "system": "urn:oid:2.16.840.1.113883.2.51.999",
            "value": "0f17ae2e-9895-4b7a-8109-91ff0509ce4f"
          }
        ],
        "name": [
          {
            "prefix": [
              "dr"
            ],
            "given": [
              "Ex"
            ],
            "family": "Ample"
          }
        ],
        "address": [
          {
            "line": [
              "Laboratoire Central Européenne",
              "Boulevard du Jardin Botanique 32"
            ],
            "postalCode": "1000",
            "city": "Brussels",
            "country": "Belgium"
          }
        ],
        "text": {
          "status": "generated",
          "div": "<div xmlns=\"http://www.w3.org/1999/xhtml\">Laboratory: Laboratoire Central Européenne, 1000 Brussels, Belgium</div>"
        }
      }
    }
  ],
  "type": "document",
  "timestamp": "2016-08-12T04:48:23Z"
}
