{
  "resourceType": "Bundle",
  "id": "67e92644-db13-454a-ac07-edfff8d25f03",
  "meta": {
    "profile": [
      "http://hl7.eu/fhir/laboratory/StructureDefinition/Bundle-eu-lab"
    ]
  },
  "identifier": {
    "assigner": {
      "display": "HL7 Europe"
    },
    "system": "urn:oid:2.16.840.1.113883.2.51.999",
    "value": "cd704047-6351-4a51-acbb-ff4d77d89d93"
  },
  "entry": [
    {
      "fullUrl": "urn:uuid:fc6b5824-94d0-4a87-add0-4f8ab54ef429",
      "resource": {
        "resourceType": "Composition",
        "id": "fc6b5824-94d0-4a87-add0-4f8ab54ef429",
        "meta": {
          "profile": [
            "http://hl7.eu/fhir/laboratory/StructureDefinition/Composition-eu-lab"
          ]
        },
        "identifier": {
          "assigner": {
            "display": "HL7 Europe"
          },
          "system": "urn:oid:2.16.840.1.113883.2.51.999",
          "value": "df375cd7-9fb5-4347-a677-2697d60084b5"
        },
        "author": [
          {
            "reference": "urn:uuid:9a681191-d6ec-4b61-8011-c47fb3b31582"
          }
        ],
        "category": [
          {
            "coding": [
              {
                "code": "26436-6",
                "system": "http://loinc.org",
                "display": "Laboratory studies (set)"
              }
            ]
          }
        ],
        "type": {
          "coding": [
            {
              "code": "11502-2",
              "system": "http://loinc.org",
              "display": "Laboratory report"
            }
          ],
          "text": "Laboratory Report"
        },
        "section": [
          {
            "code": {
              "coding": [
                {
                  "code": "26436-6",
                  "system": "http://loinc.org",
                  "display": "Laboratory studies (set)"
                }
              ],
              "text": "Laboratory studies"
            },
            "section": [
              {
                "code": {
                  "coding": [
                    {
                      "code": "$18723-7",
                      "system": "http://loinc.org",
                      "display": "Hematology studies (set)"
                    }
                  ],
                  "text": "Hematology"
                },
                "entry": [
                  {
                    "reference": "urn:uuid:362c5d93-469a-447f-b3c3-2abf38990e82"
                  },
                  {
                    "reference": "urn:uuid:1815fa68-577f-43d6-8e34-98a991855d3f"
                  },
                  {
                    "reference": "urn:uuid:e8f69c9c-d1dd-414a-aecc-fec9bf6150a8"
                  },
                  {
                    "reference": "urn:uuid:18af8b92-ffce-4548-a53d-d039cc0495d1"
                  },
                  {
                    "reference": "urn:uuid:051cb99b-d24c-4d20-bc49-42bcea28c79e"
                  },
                  {
                    "reference": "urn:uuid:6ffd2d58-aa7d-4277-9e77-7d975ed12d9f"
                  },
                  {
                    "reference": "urn:uuid:26c843a4-b02f-42d4-8210-825224eb4354"
                  },
                  {
                    "reference": "urn:uuid:69144b56-3f0b-4270-af99-d54bdd5680ab"
                  },
                  {
                    "reference": "urn:uuid:fefc8f92-bf1e-473f-b5f9-48ce00352b95"
                  },
                  {
                    "reference": "urn:uuid:17cb45b7-b932-4fa3-a32f-a30cae73345f"
                  },
                  {
                    "reference": "urn:uuid:1d63db3a-92a8-4c35-9fb2-941c7f602a50"
                  }
                ],
                "text": {
                  "status": "generated",
                  "div": "<div xmlns=\"http://www.w3.org/1999/xhtml\"><h3>Hematology</h3><table class=\"hl7__eu__lab__report\"><thead><tr><th>Test</th><th>05-JAN-2017</th><th>Reference&#xA0;Range</th><th>Unit</th></tr></thead><tbody><tr><td>Leukocytes [#/volume] in Blood by Automated count</td><td>8.8</td><td>3.4 - 10.6</td><td>10*3/uL</td></tr><tr><td>Erythrocytes [#/volume] in Blood by Automated count</td><td><strong>3.9 L</strong></td><td>4.5 - 6.2</td><td>10*6/uL</td></tr><tr><td>Hemoglobin [Mass/volume] in Blood</td><td>16.4</td><td>13.5 - 17.5</td><td>g/dL</td></tr><tr><td>Hematocrit [Volume Fraction] of Blood by Automated count</td><td>41.8</td><td>38 - 50</td><td>%</td></tr><tr><td>MCV [Entitic volume] by Automated count</td><td>86.3</td><td>82 - 98</td><td>fL</td></tr><tr><td>MCH [Entitic mass] by Automated count</td><td>27.3</td><td>27 - 35</td><td>pg</td></tr><tr><td>MCHC [Mass/volume] by Automated count</td><td>33.1</td><td>31 - 37</td><td>g/dL</td></tr><tr><td>Erythrocyte distribution width [Entitic volume] by Automated count</td><td>43.1</td><td>39 - 55</td><td>fL</td></tr><tr><td>Platelets [#/volume] in Blood by Automated count</td><td>304.7</td><td>150 - 450</td><td>10*3/uL</td></tr><tr><td>Platelet distribution width [Entitic volume] in Blood by Automated count</td><td><strong>360.4 H</strong></td><td>9.7 - 17.4</td><td>fL</td></tr><tr><td>Platelet mean volume [Entitic volume] in Blood by Automated count</td><td>9.9</td><td>9.7 - 13.5</td><td>fL</td></tr></tbody></table></div>"
                },
                "title": "Hematology"
              },
              {
                "code": {
                  "coding": [
                    {
                      "code": "$18719-5",
                      "system": "http://loinc.org",
                      "display": "Chemistry studies (set)"
                    }
                  ],
                  "text": "Chemistry"
                },
                "entry": [
                  {
                    "reference": "urn:uuid:1860295c-edb1-4c0b-8246-37154713d8b1"
                  },
                  {
                    "reference": "urn:uuid:8faa1423-8ba6-4a92-a763-7ebe25593946"
                  },
                  {
                    "reference": "urn:uuid:1f294655-0418-4ef8-aec1-98064e7d2fa9"
                  },
                  {
                    "reference": "urn:uuid:f17ec3a4-7aae-496f-9f43-a1a093ac6dd4"
                  },
                  {
                    "reference": "urn:uuid:32818ee6-e1a9-4547-8bd0-4c857b4e23cb"
                  },
                  {
                    "reference": "urn:uuid:404cdb91-79c5-49dc-b038-79006ef90dc6"
                  },
                  {
                    "reference": "urn:uuid:9ae21ad6-0150-4f8b-91a2-07f3e88c3c7e"
                  },
                  {
                    "reference": "urn:uuid:c72071c1-b04e-4cf0-ae7c-67fdc4cf65f6"
                  },
                  {
                    "reference": "urn:uuid:82d0be1b-e43c-4ed0-a08d-ac9d3a36ed6f"
                  }
                ],
                "text": {
                  "status": "generated",
                  "div": "<div xmlns=\"http://www.w3.org/1999/xhtml\"><h3>Chemistry</h3><table class=\"hl7__eu__lab__report\"><thead><tr><th>Test</th><th>05-JAN-2017</th><th>Reference&#xA0;Range</th><th>Unit</th></tr></thead><tbody><tr><td>Hemoglobin A1c/Hemoglobin.total in Blood</td><td>5.9</td><td>4.5 - 6.4</td><td>%</td></tr><tr><td>Glucose [Mass/volume] in Blood</td><td><strong>99.4 H</strong></td><td>70 - 99</td><td>mg/dL</td></tr><tr><td>Urea nitrogen [Mass/volume] in Blood</td><td>7.2</td><td>7 - 20</td><td>mg/dL</td></tr><tr><td>Creatinine [Mass/volume] in Blood</td><td>1.1</td><td>0.7 - 1.3</td><td>mg/dL</td></tr><tr><td>Calcium [Mass/volume] in Blood</td><td>8.6</td><td>8.5 - 10.5</td><td>mg/dL</td></tr><tr><td>Sodium [Moles/volume] in Blood</td><td>142.4</td><td>135 - 145</td><td>mmol/L</td></tr><tr><td>Potassium [Moles/volume] in Blood</td><td>3.8</td><td>3.5 - 5.3</td><td>mmol/L</td></tr><tr><td>Chloride [Moles/volume] in Blood</td><td>109.6</td><td>98 - 110</td><td>mmol/L</td></tr><tr><td>Carbon dioxide, total [Moles/volume] in Blood</td><td>28.4</td><td>22 - 29</td><td>mmol/L</td></tr></tbody></table></div>"
                },
                "title": "Chemistry"
              }
            ],
            "title": "Laboratory Report"
          },
          {
            "text": {
              "status": "generated",
              "div": "<div xmlns=\"http://www.w3.org/1999/xhtml\"><h3>Annotation</h3><table class=\"hl7__eu__lab__report\"><tr><th>Conclusion and Recommendations based on this report and previous findings known to us</th></tr><tr><td>The results show mildly elevated fasting glucose and normal HbA1c, suggesting possible impaired fasting glucose or early dysglycemia. Erythrocyte count is slightly low, but other red cell indices are normal, indicating mild, likely clinically insignificant anemia. Platelet distribution width is elevated, which may reflect increased platelet size variability but with normal platelet count and mean volume. Renal and electrolyte parameters are within normal limits. No acute pathology is evident; recommend clinical correlation and monitoring of glucose metabolism.</td></tr></table></div>"
            },
            "code": {
              "coding": [
                {
                  "system": "http://loinc.org",
                  "code": "48767-8",
                  "display": "Annotation comment"
                }
              ]
            },
            "title": "Annotation comment"
          }
        ],
        "status": "final",
        "subject": {
          "reference": "urn:uuid:8ab1428a-ed42-4061-90c4-bc0a2908d1a3",
          "display": "Alfred Rémy"
        },
        "date": "2017-01-05T07:54:36Z",
        "title": "Laboratory Report",
        "confidentiality": "N"
      }
    },
    {
      "fullUrl": "urn:uuid:9527be47-aeef-4b0a-be92-cf0f56424585",
      "resource": {
        "resourceType": "DiagnosticReport",
        "id": "9527be47-aeef-4b0a-be92-cf0f56424585",
        "meta": {
          "profile": [
            "http://hl7.eu/fhir/laboratory/StructureDefinition/DiagnosticReport-eu-lab"
          ]
        },
        "identifier": [
          {
            "assigner": {
              "display": "HL7 Europe"
            },
            "system": "urn:oid:2.16.840.1.113883.2.51.999",
            "value": "5976b24c-28c3-4d6d-be53-2c313f7328f8"
          }
        ],
        "extension": [
          {
            "url": "http://hl7.org/fhir/5.0/StructureDefinition/extension-DiagnosticReport.composition",
            "valueReference": {
              "reference": "urn:uuid:df375cd7-9fb5-4347-a677-2697d60084b5"
            }
          }
        ],
        "category": [
          {
            "coding": [
              {
                "code": "26436-6",
                "system": "http://loinc.org",
                "display": "Laboratory studies (set)"
              }
            ]
          }
        ],
        "specimen": [
          {
            "reference": "urn:uuid:faa9ad4d-4aa9-47ba-8ec8-f69ee0a5d8b6"
          },
          {
            "reference": "urn:uuid:faa9ad4d-4aa9-47ba-8ec8-f69ee0a5d8b6"
          }
        ],
        "result": [
          {
            "reference": "urn:uuid:1860295c-edb1-4c0b-8246-37154713d8b1"
          },
          {
            "reference": "urn:uuid:8faa1423-8ba6-4a92-a763-7ebe25593946"
          },
          {
            "reference": "urn:uuid:1f294655-0418-4ef8-aec1-98064e7d2fa9"
          },
          {
            "reference": "urn:uuid:f17ec3a4-7aae-496f-9f43-a1a093ac6dd4"
          },
          {
            "reference": "urn:uuid:32818ee6-e1a9-4547-8bd0-4c857b4e23cb"
          },
          {
            "reference": "urn:uuid:404cdb91-79c5-49dc-b038-79006ef90dc6"
          },
          {
            "reference": "urn:uuid:9ae21ad6-0150-4f8b-91a2-07f3e88c3c7e"
          },
          {
            "reference": "urn:uuid:c72071c1-b04e-4cf0-ae7c-67fdc4cf65f6"
          },
          {
            "reference": "urn:uuid:82d0be1b-e43c-4ed0-a08d-ac9d3a36ed6f"
          },
          {
            "reference": "urn:uuid:362c5d93-469a-447f-b3c3-2abf38990e82"
          },
          {
            "reference": "urn:uuid:1815fa68-577f-43d6-8e34-98a991855d3f"
          },
          {
            "reference": "urn:uuid:e8f69c9c-d1dd-414a-aecc-fec9bf6150a8"
          },
          {
            "reference": "urn:uuid:18af8b92-ffce-4548-a53d-d039cc0495d1"
          },
          {
            "reference": "urn:uuid:051cb99b-d24c-4d20-bc49-42bcea28c79e"
          },
          {
            "reference": "urn:uuid:6ffd2d58-aa7d-4277-9e77-7d975ed12d9f"
          },
          {
            "reference": "urn:uuid:26c843a4-b02f-42d4-8210-825224eb4354"
          },
          {
            "reference": "urn:uuid:69144b56-3f0b-4270-af99-d54bdd5680ab"
          },
          {
            "reference": "urn:uuid:fefc8f92-bf1e-473f-b5f9-48ce00352b95"
          },
          {
            "reference": "urn:uuid:17cb45b7-b932-4fa3-a32f-a30cae73345f"
          },
          {
            "reference": "urn:uuid:1d63db3a-92a8-4c35-9fb2-941c7f602a50"
          }
        ],
        "status": "registered",
        "code": {
          "coding": [
            {
              "code": "11502-2",
              "system": "http://loinc.org",
              "display": "Laboratory report"
            }
          ]
        },
        "subject": {
          "reference": "urn:uuid:8ab1428a-ed42-4061-90c4-bc0a2908d1a3",
          "display": "Alfred Rémy"
        }
      }
    },
    {
      "fullUrl": "urn:uuid:8ab1428a-ed42-4061-90c4-bc0a2908d1a3",
      "resource": {
        "resourceType": "Patient",
        "id": "8ab1428a-ed42-4061-90c4-bc0a2908d1a3",
        "meta": {
          "security": [
            {
              "system": "http://terminology.hl7.org/CodeSystem/v3-ActReason",
              "code": "HTEST"
            },
            {
              "system": "http://terminology.hl7.org/CodeSystem/v3-ActReason",
              "code": "TRAIN"
            }
          ],
          "tag": [
            {
              "system": "https://synderai.net/fhir/CodeSystem/tags",
              "code": "synthetic",
              "display": "SYNDERAI Synthetic data"
            }
          ],
          "profile": [
            "http://hl7.eu/fhir/base/StructureDefinition/patient-eu-core"
          ]
        },
        "identifier": [
          {
            "type": {
              "coding": [
                {
                  "code": "PT",
                  "system": "http://terminology.hl7.org/CodeSystem/v2-0203"
                }
              ]
            },
            "system": "http://ec.europa.eu/identifier/eci",
            "value": "9962-084919-2"
          },
          {
            "type": {
              "coding": [
                {
                  "code": "MR",
                  "system": "http://terminology.hl7.org/CodeSystem/v2-0203"
                }
              ]
            },
            "system": "http://local.setting.eu/identifier",
            "value": "cc3b7d7f-bed4-5811-99b9-3468e2f4203c"
          }
        ],
        "name": [
          {
            "family": "Rémy"
          },
          {
            "given": [
              "Alfred"
            ]
          },
          {
            "text": "Alfred Rémy"
          }
        ],
        "address": [
          {
            "line": [
              "88, rue de Jacquot"
            ],
            "use": "home",
            "type": "physical",
            "postalCode": "75018",
            "city": "Paris",
            "country": "France"
          }
        ],
        "telecom": [
          {
            "system": "phone",
            "value": "+33 (0)4 73 74 17 67"
          }
        ],
        "extension": [
          {
            "url": "http://hl7.org/fhir/StructureDefinition/patient-nationality",
            "valueCodeableConcept": {
              "coding": [
                {
                  "code": "FR",
                  "system": "http://hl7.org/fhir/ValueSet/country"
                }
              ]
            }
          }
        ],
        "text": {
          "status": "generated",
          "div": "<div xmlns=\"http://www.w3.org/1999/xhtml\"><table class=\"hl7__ips\"><tr><td>Alfred Rémy</td><td>male</td><td>05-Jul-1967</td></tr></table></div>"
        },
        "gender": "male",
        "birthDate": "1967-07-05"
      }
    },
    {
      "fullUrl": "urn:uuid:71aec5f2-8a62-472b-9740-cad5c16abf56",
      "resource": {
        "resourceType": "ServiceRequest",
        "id": "71aec5f2-8a62-472b-9740-cad5c16abf56",
        "meta": {
          "profile": [
            "http://hl7.eu/fhir/laboratory/StructureDefinition/ServiceRequest-eu-lab"
          ]
        },
        "identifier": [
          {
            "system": "http://example.org",
            "value": "6ceeabae-0835-48c6-b338-246d45d31805"
          }
        ],
        "specimen": [
          {
            "reference": "urn:uuid:faa9ad4d-4aa9-47ba-8ec8-f69ee0a5d8b6"
          }
        ],
        "reasonCode": [
          {
            "coding": [
              {
                "code": "271737000",
                "system": "http://snomed.info/sct",
                "display": "Anemia"
              }
            ]
          },
          {
            "coding": [
              {
                "code": "15777000",
                "system": "http://snomed.info/sct",
                "display": "Prediabetes"
              }
            ]
          }
        ],
        "status": "active",
        "intent": "order",
        "code": {
          "coding": [
            {
              "code": "108252007",
              "system": "http://snomed.info/sct",
              "display": "Laboratory procedure"
            }
          ]
        },
        "subject": {
          "reference": "urn:uuid:8ab1428a-ed42-4061-90c4-bc0a2908d1a3",
          "display": "Alfred Rémy"
        },
        "requester": {
          "reference": "urn:uuid:36adaaa8-2de1-44e0-8b1f-a5ff43a6e7bb"
        }
      }
    },
    {
      "fullUrl": "urn:uuid:36adaaa8-2de1-44e0-8b1f-a5ff43a6e7bb",
      "resource": {
        "resourceType": "PractitionerRole",
        "id": "36adaaa8-2de1-44e0-8b1f-a5ff43a6e7bb",
        "meta": {
          "profile": [
            "http://hl7.eu/fhir/base/StructureDefinition/practitionerRole-eu"
          ]
        },
        "text": {
          "status": "generated",
          "div": "<div xmlns=\"http://www.w3.org/1999/xhtml\">Provider Role Id: 36adaaa8-2de1-44e0-8b1f-a5ff43a6e7bb</div>"
        },
        "organization": {
          "reference": "urn:uuid:6efe1d55-f3e9-44d0-a960-14693f859c05"
        }
      }
    },
    {
      "fullUrl": "urn:uuid:6efe1d55-f3e9-44d0-a960-14693f859c05",
      "resource": {
        "resourceType": "Organization",
        "id": "6efe1d55-f3e9-44d0-a960-14693f859c05",
        "meta": {
          "profile": [
            "http://hl7.eu/fhir/base/StructureDefinition/organization-eu"
          ]
        },
        "identifier": [
          {
            "assigner": {
              "display": "HL7 Europe"
            },
            "system": "urn:oid:2.16.840.1.113883.2.51.999",
            "value": "00d5c6ab-e730-4991-9c1a-39207d18c753"
          }
        ],
        "address": [
          {
            "city": "Paris",
            "postalCode": "75005",
            "country": "France"
          }
        ],
        "text": {
          "status": "generated",
          "div": "<div xmlns=\"http://www.w3.org/1999/xhtml\">Provider Organization: Maison des parents Irène Joliot-Curie</div>"
        },
        "name": "Maison des parents Irène Joliot-Curie"
      }
    },
    {
      "fullUrl": "urn:uuid:faa9ad4d-4aa9-47ba-8ec8-f69ee0a5d8b6",
      "resource": {
        "resourceType": "Specimen",
        "id": "faa9ad4d-4aa9-47ba-8ec8-f69ee0a5d8b6",
        "meta": {
          "profile": [
            "http://hl7.eu/fhir/laboratory/StructureDefinition/Specimen-eu-lab"
          ]
        },
        "collection": {
          "collectedDateTime": "2017-01-05"
        },
        "text": {
          "status": "generated",
          "div": "<div xmlns=\"http://www.w3.org/1999/xhtml\"><table class=\"hl7__eu__lab__report\"><tr><th>Specimen</th><th>Collection Date</th></tr><tr><td>Whole blood specimen (specimen)</td><td><span class=\"nb\">05-Jan-2017</span></td></tr></table></div>"
        },
        "type": {
          "coding": [
            {
              "code": "258580003",
              "system": "http://snomed.info/sct",
              "display": "Whole blood specimen (specimen)"
            }
          ]
        }
      }
    },
    {
      "fullUrl": "urn:uuid:faa9ad4d-4aa9-47ba-8ec8-f69ee0a5d8b6",
      "resource": {
        "resourceType": "Specimen",
        "id": "faa9ad4d-4aa9-47ba-8ec8-f69ee0a5d8b6",
        "meta": {
          "profile": [
            "http://hl7.eu/fhir/laboratory/StructureDefinition/Specimen-eu-lab"
          ]
        },
        "collection": {
          "collectedDateTime": "2017-01-05"
        },
        "text": {
          "status": "generated",
          "div": "<div xmlns=\"http://www.w3.org/1999/xhtml\"><table class=\"hl7__eu__lab__report\"><tr><th>Specimen</th><th>Collection Date</th></tr><tr><td>Whole blood specimen (specimen)</td><td><span class=\"nb\">05-Jan-2017</span></td></tr></table></div>"
        },
        "type": {
          "coding": [
            {
              "code": "258580003",
              "system": "http://snomed.info/sct",
              "display": "Whole blood specimen (specimen)"
            }
          ]
        }
      }
    },
    {
      "fullUrl": "urn:uuid:1860295c-edb1-4c0b-8246-37154713d8b1",
      "resource": {
        "resourceType": "Observation",
        "id": "1860295c-edb1-4c0b-8246-37154713d8b1",
        "meta": {
          "profile": [
            "http://hl7.eu/fhir/laboratory/StructureDefinition/Observation-resultslab-eu-lab"
          ]
        },
        "performer": [
          {
            "display": "The Central European Lab"
          }
        ],
        "category": [
          {
            "coding": [
              {
                "system": "http://terminology.hl7.org/CodeSystem/observation-category",
                "code": "laboratory"
              }
            ]
          }
        ],
        "code": {
          "coding": [
            {
              "code": "4548-4",
              "system": "http://loinc.org",
              "display": "Hemoglobin A1c/Hemoglobin.total in Blood"
            }
          ],
          "text": "Hemoglobin A1c/Hemoglobin.total in Blood"
        },
        "valueQuantity": {
          "system": "http://unitsofmeasure.org",
          "value": 5.9,
          "unit": "%",
          "code": "%"
        },
        "referenceRange": [
          {
            "low": {
              "value": 4.5,
              "code": "%",
              "system": "http://unitsofmeasure.org"
            }
          },
          {
            "high": {
              "value": 6.4,
              "code": "%",
              "system": "http://unitsofmeasure.org"
            }
          }
        ],
        "text": {
          "status": "generated",
          "div": "<div xmlns=\"http://www.w3.org/1999/xhtml\"><table class=\"hl7__eu__lab__report\"><tr><th>Test</th><th>05-Jan-2017</th><th>Reference&#xA0;Range</th><th>Unit</th></tr><tr><td>Hemoglobin A1c/Hemoglobin.total in Blood</td><td>5.9</td><td>4.5 - 6.4</td><td></td><td>%</td></tr></table></div>"
        },
        "status": "final",
        "subject": {
          "reference": "urn:uuid:8ab1428a-ed42-4061-90c4-bc0a2908d1a3",
          "display": "Alfred Rémy"
        },
        "effectiveDateTime": "2017-01-05T06:54:36Z",
        "specimen": {
          "reference": "urn:uuid:faa9ad4d-4aa9-47ba-8ec8-f69ee0a5d8b6"
        }
      }
    },
    {
      "fullUrl": "urn:uuid:8faa1423-8ba6-4a92-a763-7ebe25593946",
      "resource": {
        "resourceType": "Observation",
        "id": "8faa1423-8ba6-4a92-a763-7ebe25593946",
        "meta": {
          "profile": [
            "http://hl7.eu/fhir/laboratory/StructureDefinition/Observation-resultslab-eu-lab"
          ]
        },
        "performer": [
          {
            "display": "The Central European Lab"
          }
        ],
        "category": [
          {
            "coding": [
              {
                "system": "http://terminology.hl7.org/CodeSystem/observation-category",
                "code": "laboratory"
              }
            ]
          }
        ],
        "code": {
          "coding": [
            {
              "code": "2339-0",
              "system": "http://loinc.org",
              "display": "Glucose [Mass/volume] in Blood"
            }
          ],
          "text": "Glucose [Mass/volume] in Blood"
        },
        "valueQuantity": {
          "system": "http://unitsofmeasure.org",
          "value": 99.4,
          "unit": "mg/dL",
          "code": "mg/dL"
        },
        "referenceRange": [
          {
            "low": {
              "value": 70,
              "code": "mg/dL",
              "system": "http://unitsofmeasure.org"
            }
          },
          {
            "high": {
              "value": 99,
              "code": "mg/dL",
              "system": "http://unitsofmeasure.org"
            }
          }
        ],
        "interpretation": [
          {
            "coding": [
              {
                "code": "H",
                "system": "http://terminology.hl7.org/CodeSystem/v3-ObservationInterpretation",
                "display": "High"
              }
            ]
          }
        ],
        "text": {
          "status": "generated",
          "div": "<div xmlns=\"http://www.w3.org/1999/xhtml\"><table class=\"hl7__eu__lab__report\"><tr><th>Test</th><th>05-Jan-2017</th><th>Reference&#xA0;Range</th><th>Unit</th></tr><tr><td>Glucose [Mass/volume] in Blood</td><td>99.4</td><td>70 - 99</td><td>H</td><td>mg/dL</td></tr></table></div>"
        },
        "status": "final",
        "subject": {
          "reference": "urn:uuid:8ab1428a-ed42-4061-90c4-bc0a2908d1a3",
          "display": "Alfred Rémy"
        },
        "effectiveDateTime": "2017-01-05T06:54:36Z",
        "specimen": {
          "reference": "urn:uuid:faa9ad4d-4aa9-47ba-8ec8-f69ee0a5d8b6"
        }
      }
    },
    {
      "fullUrl": "urn:uuid:1f294655-0418-4ef8-aec1-98064e7d2fa9",
      "resource": {
        "resourceType": "Observation",
        "id": "1f294655-0418-4ef8-aec1-98064e7d2fa9",
        "meta": {
          "profile": [
            "http://hl7.eu/fhir/laboratory/StructureDefinition/Observation-resultslab-eu-lab"
          ]
        },
        "performer": [
          {
            "display": "The Central European Lab"
          }
        ],
        "category": [
          {
            "coding": [
              {
                "system": "http://terminology.hl7.org/CodeSystem/observation-category",
                "code": "laboratory"
              }
            ]
          }
        ],
        "code": {
          "coding": [
            {
              "code": "6299-2",
              "system": "http://loinc.org",
              "display": "Urea nitrogen [Mass/volume] in Blood"
            }
          ],
          "text": "Urea nitrogen [Mass/volume] in Blood"
        },
        "valueQuantity": {
          "system": "http://unitsofmeasure.org",
          "value": 7.2,
          "unit": "mg/dL",
          "code": "mg/dL"
        },
        "referenceRange": [
          {
            "low": {
              "value": 7,
              "code": "mg/dL",
              "system": "http://unitsofmeasure.org"
            }
          },
          {
            "high": {
              "value": 20,
              "code": "mg/dL",
              "system": "http://unitsofmeasure.org"
            }
          }
        ],
        "text": {
          "status": "generated",
          "div": "<div xmlns=\"http://www.w3.org/1999/xhtml\"><table class=\"hl7__eu__lab__report\"><tr><th>Test</th><th>05-Jan-2017</th><th>Reference&#xA0;Range</th><th>Unit</th></tr><tr><td>Urea nitrogen [Mass/volume] in Blood</td><td>7.2</td><td>7 - 20</td><td></td><td>mg/dL</td></tr></table></div>"
        },
        "status": "final",
        "subject": {
          "reference": "urn:uuid:8ab1428a-ed42-4061-90c4-bc0a2908d1a3",
          "display": "Alfred Rémy"
        },
        "effectiveDateTime": "2017-01-05T06:54:36Z",
        "specimen": {
          "reference": "urn:uuid:faa9ad4d-4aa9-47ba-8ec8-f69ee0a5d8b6"
        }
      }
    },
    {
      "fullUrl": "urn:uuid:f17ec3a4-7aae-496f-9f43-a1a093ac6dd4",
      "resource": {
        "resourceType": "Observation",
        "id": "f17ec3a4-7aae-496f-9f43-a1a093ac6dd4",
        "meta": {
          "profile": [
            "http://hl7.eu/fhir/laboratory/StructureDefinition/Observation-resultslab-eu-lab"
          ]
        },
        "performer": [
          {
            "display": "The Central European Lab"
          }
        ],
        "category": [
          {
            "coding": [
              {
                "system": "http://terminology.hl7.org/CodeSystem/observation-category",
                "code": "laboratory"
              }
            ]
          }
        ],
        "code": {
          "coding": [
            {
              "code": "38483-4",
              "system": "http://loinc.org",
              "display": "Creatinine [Mass/volume] in Blood"
            }
          ],
          "text": "Creatinine [Mass/volume] in Blood"
        },
        "valueQuantity": {
          "system": "http://unitsofmeasure.org",
          "value": 1.1,
          "unit": "mg/dL",
          "code": "mg/dL"
        },
        "referenceRange": [
          {
            "low": {
              "value": 0.7,
              "code": "mg/dL",
              "system": "http://unitsofmeasure.org"
            }
          },
          {
            "high": {
              "value": 1.3,
              "code": "mg/dL",
              "system": "http://unitsofmeasure.org"
            }
          }
        ],
        "text": {
          "status": "generated",
          "div": "<div xmlns=\"http://www.w3.org/1999/xhtml\"><table class=\"hl7__eu__lab__report\"><tr><th>Test</th><th>05-Jan-2017</th><th>Reference&#xA0;Range</th><th>Unit</th></tr><tr><td>Creatinine [Mass/volume] in Blood</td><td>1.1</td><td>0.7 - 1.3</td><td></td><td>mg/dL</td></tr></table></div>"
        },
        "status": "final",
        "subject": {
          "reference": "urn:uuid:8ab1428a-ed42-4061-90c4-bc0a2908d1a3",
          "display": "Alfred Rémy"
        },
        "effectiveDateTime": "2017-01-05T06:54:36Z",
        "specimen": {
          "reference": "urn:uuid:faa9ad4d-4aa9-47ba-8ec8-f69ee0a5d8b6"
        }
      }
    },
    {
      "fullUrl": "urn:uuid:32818ee6-e1a9-4547-8bd0-4c857b4e23cb",
      "resource": {
        "resourceType": "Observation",
        "id": "32818ee6-e1a9-4547-8bd0-4c857b4e23cb",
        "meta": {
          "profile": [
            "http://hl7.eu/fhir/laboratory/StructureDefinition/Observation-resultslab-eu-lab"
          ]
        },
        "performer": [
          {
            "display": "The Central European Lab"
          }
        ],
        "category": [
          {
            "coding": [
              {
                "system": "http://terminology.hl7.org/CodeSystem/observation-category",
                "code": "laboratory"
              }
            ]
          }
        ],
        "code": {
          "coding": [
            {
              "code": "49765-1",
              "system": "http://loinc.org",
              "display": "Calcium [Mass/volume] in Blood"
            }
          ],
          "text": "Calcium [Mass/volume] in Blood"
        },
        "valueQuantity": {
          "system": "http://unitsofmeasure.org",
          "value": 8.6,
          "unit": "mg/dL",
          "code": "mg/dL"
        },
        "referenceRange": [
          {
            "low": {
              "value": 8.5,
              "code": "mg/dL",
              "system": "http://unitsofmeasure.org"
            }
          },
          {
            "high": {
              "value": 10.5,
              "code": "mg/dL",
              "system": "http://unitsofmeasure.org"
            }
          }
        ],
        "text": {
          "status": "generated",
          "div": "<div xmlns=\"http://www.w3.org/1999/xhtml\"><table class=\"hl7__eu__lab__report\"><tr><th>Test</th><th>05-Jan-2017</th><th>Reference&#xA0;Range</th><th>Unit</th></tr><tr><td>Calcium [Mass/volume] in Blood</td><td>8.6</td><td>8.5 - 10.5</td><td></td><td>mg/dL</td></tr></table></div>"
        },
        "status": "final",
        "subject": {
          "reference": "urn:uuid:8ab1428a-ed42-4061-90c4-bc0a2908d1a3",
          "display": "Alfred Rémy"
        },
        "effectiveDateTime": "2017-01-05T06:54:36Z",
        "specimen": {
          "reference": "urn:uuid:faa9ad4d-4aa9-47ba-8ec8-f69ee0a5d8b6"
        }
      }
    },
    {
      "fullUrl": "urn:uuid:404cdb91-79c5-49dc-b038-79006ef90dc6",
      "resource": {
        "resourceType": "Observation",
        "id": "404cdb91-79c5-49dc-b038-79006ef90dc6",
        "meta": {
          "profile": [
            "http://hl7.eu/fhir/laboratory/StructureDefinition/Observation-resultslab-eu-lab"
          ]
        },
        "performer": [
          {
            "display": "The Central European Lab"
          }
        ],
        "category": [
          {
            "coding": [
              {
                "system": "http://terminology.hl7.org/CodeSystem/observation-category",
                "code": "laboratory"
              }
            ]
          }
        ],
        "code": {
          "coding": [
            {
              "code": "2947-0",
              "system": "http://loinc.org",
              "display": "Sodium [Moles/volume] in Blood"
            }
          ],
          "text": "Sodium [Moles/volume] in Blood"
        },
        "valueQuantity": {
          "system": "http://unitsofmeasure.org",
          "value": 142.4,
          "unit": "mmol/L",
          "code": "mmol/L"
        },
        "referenceRange": [
          {
            "low": {
              "value": 135,
              "code": "mmol/L",
              "system": "http://unitsofmeasure.org"
            }
          },
          {
            "high": {
              "value": 145,
              "code": "mmol/L",
              "system": "http://unitsofmeasure.org"
            }
          }
        ],
        "text": {
          "status": "generated",
          "div": "<div xmlns=\"http://www.w3.org/1999/xhtml\"><table class=\"hl7__eu__lab__report\"><tr><th>Test</th><th>05-Jan-2017</th><th>Reference&#xA0;Range</th><th>Unit</th></tr><tr><td>Sodium [Moles/volume] in Blood</td><td>142.4</td><td>135 - 145</td><td></td><td>mmol/L</td></tr></table></div>"
        },
        "status": "final",
        "subject": {
          "reference": "urn:uuid:8ab1428a-ed42-4061-90c4-bc0a2908d1a3",
          "display": "Alfred Rémy"
        },
        "effectiveDateTime": "2017-01-05T06:54:36Z",
        "specimen": {
          "reference": "urn:uuid:faa9ad4d-4aa9-47ba-8ec8-f69ee0a5d8b6"
        }
      }
    },
    {
      "fullUrl": "urn:uuid:9ae21ad6-0150-4f8b-91a2-07f3e88c3c7e",
      "resource": {
        "resourceType": "Observation",
        "id": "9ae21ad6-0150-4f8b-91a2-07f3e88c3c7e",
        "meta": {
          "profile": [
            "http://hl7.eu/fhir/laboratory/StructureDefinition/Observation-resultslab-eu-lab"
          ]
        },
        "performer": [
          {
            "display": "The Central European Lab"
          }
        ],
        "category": [
          {
            "coding": [
              {
                "system": "http://terminology.hl7.org/CodeSystem/observation-category",
                "code": "laboratory"
              }
            ]
          }
        ],
        "code": {
          "coding": [
            {
              "code": "6298-4",
              "system": "http://loinc.org",
              "display": "Potassium [Moles/volume] in Blood"
            }
          ],
          "text": "Potassium [Moles/volume] in Blood"
        },
        "valueQuantity": {
          "system": "http://unitsofmeasure.org",
          "value": 3.8,
          "unit": "mmol/L",
          "code": "mmol/L"
        },
        "referenceRange": [
          {
            "low": {
              "value": 3.5,
              "code": "mmol/L",
              "system": "http://unitsofmeasure.org"
            }
          },
          {
            "high": {
              "value": 5.3,
              "code": "mmol/L",
              "system": "http://unitsofmeasure.org"
            }
          }
        ],
        "text": {
          "status": "generated",
          "div": "<div xmlns=\"http://www.w3.org/1999/xhtml\"><table class=\"hl7__eu__lab__report\"><tr><th>Test</th><th>05-Jan-2017</th><th>Reference&#xA0;Range</th><th>Unit</th></tr><tr><td>Potassium [Moles/volume] in Blood</td><td>3.8</td><td>3.5 - 5.3</td><td></td><td>mmol/L</td></tr></table></div>"
        },
        "status": "final",
        "subject": {
          "reference": "urn:uuid:8ab1428a-ed42-4061-90c4-bc0a2908d1a3",
          "display": "Alfred Rémy"
        },
        "effectiveDateTime": "2017-01-05T06:54:36Z",
        "specimen": {
          "reference": "urn:uuid:faa9ad4d-4aa9-47ba-8ec8-f69ee0a5d8b6"
        }
      }
    },
    {
      "fullUrl": "urn:uuid:c72071c1-b04e-4cf0-ae7c-67fdc4cf65f6",
      "resource": {
        "resourceType": "Observation",
        "id": "c72071c1-b04e-4cf0-ae7c-67fdc4cf65f6",
        "meta": {
          "profile": [
            "http://hl7.eu/fhir/laboratory/StructureDefinition/Observation-resultslab-eu-lab"
          ]
        },
        "performer": [
          {
            "display": "The Central European Lab"
          }
        ],
        "category": [
          {
            "coding": [
              {
                "system": "http://terminology.hl7.org/CodeSystem/observation-category",
                "code": "laboratory"
              }
            ]
          }
        ],
        "code": {
          "coding": [
            {
              "code": "2069-3",
              "system": "http://loinc.org",
              "display": "Chloride [Moles/volume] in Blood"
            }
          ],
          "text": "Chloride [Moles/volume] in Blood"
        },
        "valueQuantity": {
          "system": "http://unitsofmeasure.org",
          "value": 109.6,
          "unit": "mmol/L",
          "code": "mmol/L"
        },
        "referenceRange": [
          {
            "low": {
              "value": 98,
              "code": "mmol/L",
              "system": "http://unitsofmeasure.org"
            }
          },
          {
            "high": {
              "value": 110,
              "code": "mmol/L",
              "system": "http://unitsofmeasure.org"
            }
          }
        ],
        "text": {
          "status": "generated",
          "div": "<div xmlns=\"http://www.w3.org/1999/xhtml\"><table class=\"hl7__eu__lab__report\"><tr><th>Test</th><th>05-Jan-2017</th><th>Reference&#xA0;Range</th><th>Unit</th></tr><tr><td>Chloride [Moles/volume] in Blood</td><td>109.6</td><td>98 - 110</td><td></td><td>mmol/L</td></tr></table></div>"
        },
        "status": "final",
        "subject": {
          "reference": "urn:uuid:8ab1428a-ed42-4061-90c4-bc0a2908d1a3",
          "display": "Alfred Rémy"
        },
        "effectiveDateTime": "2017-01-05T06:54:36Z",
        "specimen": {
          "reference": "urn:uuid:faa9ad4d-4aa9-47ba-8ec8-f69ee0a5d8b6"
        }
      }
    },
    {
      "fullUrl": "urn:uuid:82d0be1b-e43c-4ed0-a08d-ac9d3a36ed6f",
      "resource": {
        "resourceType": "Observation",
        "id": "82d0be1b-e43c-4ed0-a08d-ac9d3a36ed6f",
        "meta": {
          "profile": [
            "http://hl7.eu/fhir/laboratory/StructureDefinition/Observation-resultslab-eu-lab"
          ]
        },
        "performer": [
          {
            "display": "The Central European Lab"
          }
        ],
        "category": [
          {
            "coding": [
              {
                "system": "http://terminology.hl7.org/CodeSystem/observation-category",
                "code": "laboratory"
              }
            ]
          }
        ],
        "code": {
          "coding": [
            {
              "code": "20565-8",
              "system": "http://loinc.org",
              "display": "Carbon dioxide, total [Moles/volume] in Blood"
            }
          ],
          "text": "Carbon dioxide, total [Moles/volume] in Blood"
        },
        "valueQuantity": {
          "system": "http://unitsofmeasure.org",
          "value": 28.4,
          "unit": "mmol/L",
          "code": "mmol/L"
        },
        "referenceRange": [
          {
            "low": {
              "value": 22,
              "code": "mmol/L",
              "system": "http://unitsofmeasure.org"
            }
          },
          {
            "high": {
              "value": 29,
              "code": "mmol/L",
              "system": "http://unitsofmeasure.org"
            }
          }
        ],
        "text": {
          "status": "generated",
          "div": "<div xmlns=\"http://www.w3.org/1999/xhtml\"><table class=\"hl7__eu__lab__report\"><tr><th>Test</th><th>05-Jan-2017</th><th>Reference&#xA0;Range</th><th>Unit</th></tr><tr><td>Carbon dioxide, total [Moles/volume] in Blood</td><td>28.4</td><td>22 - 29</td><td></td><td>mmol/L</td></tr></table></div>"
        },
        "status": "final",
        "subject": {
          "reference": "urn:uuid:8ab1428a-ed42-4061-90c4-bc0a2908d1a3",
          "display": "Alfred Rémy"
        },
        "effectiveDateTime": "2017-01-05T06:54:36Z",
        "specimen": {
          "reference": "urn:uuid:faa9ad4d-4aa9-47ba-8ec8-f69ee0a5d8b6"
        }
      }
    },
    {
      "fullUrl": "urn:uuid:362c5d93-469a-447f-b3c3-2abf38990e82",
      "resource": {
        "resourceType": "Observation",
        "id": "362c5d93-469a-447f-b3c3-2abf38990e82",
        "meta": {
          "profile": [
            "http://hl7.eu/fhir/laboratory/StructureDefinition/Observation-resultslab-eu-lab"
          ]
        },
        "performer": [
          {
            "display": "The Central European Lab"
          }
        ],
        "category": [
          {
            "coding": [
              {
                "system": "http://terminology.hl7.org/CodeSystem/observation-category",
                "code": "laboratory"
              }
            ]
          }
        ],
        "code": {
          "coding": [
            {
              "code": "6690-2",
              "system": "http://loinc.org",
              "display": "Leukocytes [#/volume] in Blood by Automated count"
            }
          ],
          "text": "Leukocytes [#/volume] in Blood by Automated count"
        },
        "valueQuantity": {
          "system": "http://unitsofmeasure.org",
          "value": 8.8,
          "unit": "10*3/uL",
          "code": "10*3/uL"
        },
        "referenceRange": [
          {
            "low": {
              "value": 3.4,
              "code": "10*3/uL",
              "system": "http://unitsofmeasure.org"
            }
          },
          {
            "high": {
              "value": 10.6,
              "code": "10*3/uL",
              "system": "http://unitsofmeasure.org"
            }
          }
        ],
        "text": {
          "status": "generated",
          "div": "<div xmlns=\"http://www.w3.org/1999/xhtml\"><table class=\"hl7__eu__lab__report\"><tr><th>Test</th><th>05-Jan-2017</th><th>Reference&#xA0;Range</th><th>Unit</th></tr><tr><td>Leukocytes [#/volume] in Blood by Automated count</td><td>8.8</td><td>3.4 - 10.6</td><td></td><td>10*3/uL</td></tr></table></div>"
        },
        "status": "final",
        "subject": {
          "reference": "urn:uuid:8ab1428a-ed42-4061-90c4-bc0a2908d1a3",
          "display": "Alfred Rémy"
        },
        "effectiveDateTime": "2017-01-05T06:54:36Z",
        "specimen": {
          "reference": "urn:uuid:faa9ad4d-4aa9-47ba-8ec8-f69ee0a5d8b6"
        }
      }
    },
    {
      "fullUrl": "urn:uuid:1815fa68-577f-43d6-8e34-98a991855d3f",
      "resource": {
        "resourceType": "Observation",
        "id": "1815fa68-577f-43d6-8e34-98a991855d3f",
        "meta": {
          "profile": [
            "http://hl7.eu/fhir/laboratory/StructureDefinition/Observation-resultslab-eu-lab"
          ]
        },
        "performer": [
          {
            "display": "The Central European Lab"
          }
        ],
        "category": [
          {
            "coding": [
              {
                "system": "http://terminology.hl7.org/CodeSystem/observation-category",
                "code": "laboratory"
              }
            ]
          }
        ],
        "code": {
          "coding": [
            {
              "code": "789-8",
              "system": "http://loinc.org",
              "display": "Erythrocytes [#/volume] in Blood by Automated count"
            }
          ],
          "text": "Erythrocytes [#/volume] in Blood by Automated count"
        },
        "valueQuantity": {
          "system": "http://unitsofmeasure.org",
          "value": 3.9,
          "unit": "10*6/uL",
          "code": "10*6/uL"
        },
        "referenceRange": [
          {
            "low": {
              "value": 4.5,
              "code": "10*6/uL",
              "system": "http://unitsofmeasure.org"
            }
          },
          {
            "high": {
              "value": 6.2,
              "code": "10*6/uL",
              "system": "http://unitsofmeasure.org"
            }
          }
        ],
        "interpretation": [
          {
            "coding": [
              {
                "code": "L",
                "system": "http://terminology.hl7.org/CodeSystem/v3-ObservationInterpretation",
                "display": "Low"
              }
            ]
          }
        ],
        "text": {
          "status": "generated",
          "div": "<div xmlns=\"http://www.w3.org/1999/xhtml\"><table class=\"hl7__eu__lab__report\"><tr><th>Test</th><th>05-Jan-2017</th><th>Reference&#xA0;Range</th><th>Unit</th></tr><tr><td>Erythrocytes [#/volume] in Blood by Automated count</td><td>3.9</td><td>4.5 - 6.2</td><td>L</td><td>10*6/uL</td></tr></table></div>"
        },
        "status": "final",
        "subject": {
          "reference": "urn:uuid:8ab1428a-ed42-4061-90c4-bc0a2908d1a3",
          "display": "Alfred Rémy"
        },
        "effectiveDateTime": "2017-01-05T06:54:36Z",
        "specimen": {
          "reference": "urn:uuid:faa9ad4d-4aa9-47ba-8ec8-f69ee0a5d8b6"
        }
      }
    },
    {
      "fullUrl": "urn:uuid:e8f69c9c-d1dd-414a-aecc-fec9bf6150a8",
      "resource": {
        "resourceType": "Observation",
        "id": "e8f69c9c-d1dd-414a-aecc-fec9bf6150a8",
        "meta": {
          "profile": [
            "http://hl7.eu/fhir/laboratory/StructureDefinition/Observation-resultslab-eu-lab"
          ]
        },
        "performer": [
          {
            "display": "The Central European Lab"
          }
        ],
        "category": [
          {
            "coding": [
              {
                "system": "http://terminology.hl7.org/CodeSystem/observation-category",
                "code": "laboratory"
              }
            ]
          }
        ],
        "code": {
          "coding": [
            {
              "code": "718-7",
              "system": "http://loinc.org",
              "display": "Hemoglobin [Mass/volume] in Blood"
            }
          ],
          "text": "Hemoglobin [Mass/volume] in Blood"
        },
        "valueQuantity": {
          "system": "http://unitsofmeasure.org",
          "value": 16.4,
          "unit": "g/dL",
          "code": "g/dL"
        },
        "referenceRange": [
          {
            "low": {
              "value": 13.5,
              "code": "g/dL",
              "system": "http://unitsofmeasure.org"
            }
          },
          {
            "high": {
              "value": 17.5,
              "code": "g/dL",
              "system": "http://unitsofmeasure.org"
            }
          }
        ],
        "text": {
          "status": "generated",
          "div": "<div xmlns=\"http://www.w3.org/1999/xhtml\"><table class=\"hl7__eu__lab__report\"><tr><th>Test</th><th>05-Jan-2017</th><th>Reference&#xA0;Range</th><th>Unit</th></tr><tr><td>Hemoglobin [Mass/volume] in Blood</td><td>16.4</td><td>13.5 - 17.5</td><td></td><td>g/dL</td></tr></table></div>"
        },
        "status": "final",
        "subject": {
          "reference": "urn:uuid:8ab1428a-ed42-4061-90c4-bc0a2908d1a3",
          "display": "Alfred Rémy"
        },
        "effectiveDateTime": "2017-01-05T06:54:36Z",
        "specimen": {
          "reference": "urn:uuid:faa9ad4d-4aa9-47ba-8ec8-f69ee0a5d8b6"
        }
      }
    },
    {
      "fullUrl": "urn:uuid:18af8b92-ffce-4548-a53d-d039cc0495d1",
      "resource": {
        "resourceType": "Observation",
        "id": "18af8b92-ffce-4548-a53d-d039cc0495d1",
        "meta": {
          "profile": [
            "http://hl7.eu/fhir/laboratory/StructureDefinition/Observation-resultslab-eu-lab"
          ]
        },
        "performer": [
          {
            "display": "The Central European Lab"
          }
        ],
        "category": [
          {
            "coding": [
              {
                "system": "http://terminology.hl7.org/CodeSystem/observation-category",
                "code": "laboratory"
              }
            ]
          }
        ],
        "code": {
          "coding": [
            {
              "code": "4544-3",
              "system": "http://loinc.org",
              "display": "Hematocrit [Volume Fraction] of Blood by Automated count"
            }
          ],
          "text": "Hematocrit [Volume Fraction] of Blood by Automated count"
        },
        "valueQuantity": {
          "system": "http://unitsofmeasure.org",
          "value": 41.8,
          "unit": "%",
          "code": "%"
        },
        "referenceRange": [
          {
            "low": {
              "value": 38,
              "code": "%",
              "system": "http://unitsofmeasure.org"
            }
          },
          {
            "high": {
              "value": 50,
              "code": "%",
              "system": "http://unitsofmeasure.org"
            }
          }
        ],
        "text": {
          "status": "generated",
          "div": "<div xmlns=\"http://www.w3.org/1999/xhtml\"><table class=\"hl7__eu__lab__report\"><tr><th>Test</th><th>05-Jan-2017</th><th>Reference&#xA0;Range</th><th>Unit</th></tr><tr><td>Hematocrit [Volume Fraction] of Blood by Automated count</td><td>41.8</td><td>38 - 50</td><td></td><td>%</td></tr></table></div>"
        },
        "status": "final",
        "subject": {
          "reference": "urn:uuid:8ab1428a-ed42-4061-90c4-bc0a2908d1a3",
          "display": "Alfred Rémy"
        },
        "effectiveDateTime": "2017-01-05T06:54:36Z",
        "specimen": {
          "reference": "urn:uuid:faa9ad4d-4aa9-47ba-8ec8-f69ee0a5d8b6"
        }
      }
    },
    {
      "fullUrl": "urn:uuid:051cb99b-d24c-4d20-bc49-42bcea28c79e",
      "resource": {
        "resourceType": "Observation",
        "id": "051cb99b-d24c-4d20-bc49-42bcea28c79e",
        "meta": {
          "profile": [
            "http://hl7.eu/fhir/laboratory/StructureDefinition/Observation-resultslab-eu-lab"
          ]
        },
        "performer": [
          {
            "display": "The Central European Lab"
          }
        ],
        "category": [
          {
            "coding": [
              {
                "system": "http://terminology.hl7.org/CodeSystem/observation-category",
                "code": "laboratory"
              }
            ]
          }
        ],
        "code": {
          "coding": [
            {
              "code": "787-2",
              "system": "http://loinc.org",
              "display": "MCV [Entitic volume] by Automated count"
            }
          ],
          "text": "MCV [Entitic volume] by Automated count"
        },
        "valueQuantity": {
          "system": "http://unitsofmeasure.org",
          "value": 86.3,
          "unit": "fL",
          "code": "fL"
        },
        "referenceRange": [
          {
            "low": {
              "value": 82,
              "code": "fL",
              "system": "http://unitsofmeasure.org"
            }
          },
          {
            "high": {
              "value": 98,
              "code": "fL",
              "system": "http://unitsofmeasure.org"
            }
          }
        ],
        "text": {
          "status": "generated",
          "div": "<div xmlns=\"http://www.w3.org/1999/xhtml\"><table class=\"hl7__eu__lab__report\"><tr><th>Test</th><th>05-Jan-2017</th><th>Reference&#xA0;Range</th><th>Unit</th></tr><tr><td>MCV [Entitic volume] by Automated count</td><td>86.3</td><td>82 - 98</td><td></td><td>fL</td></tr></table></div>"
        },
        "status": "final",
        "subject": {
          "reference": "urn:uuid:8ab1428a-ed42-4061-90c4-bc0a2908d1a3",
          "display": "Alfred Rémy"
        },
        "effectiveDateTime": "2017-01-05T06:54:36Z",
        "specimen": {
          "reference": "urn:uuid:faa9ad4d-4aa9-47ba-8ec8-f69ee0a5d8b6"
        }
      }
    },
    {
      "fullUrl": "urn:uuid:6ffd2d58-aa7d-4277-9e77-7d975ed12d9f",
      "resource": {
        "resourceType": "Observation",
        "id": "6ffd2d58-aa7d-4277-9e77-7d975ed12d9f",
        "meta": {
          "profile": [
            "http://hl7.eu/fhir/laboratory/StructureDefinition/Observation-resultslab-eu-lab"
          ]
        },
        "performer": [
          {
            "display": "The Central European Lab"
          }
        ],
        "category": [
          {
            "coding": [
              {
                "system": "http://terminology.hl7.org/CodeSystem/observation-category",
                "code": "laboratory"
              }
            ]
          }
        ],
        "code": {
          "coding": [
            {
              "code": "785-6",
              "system": "http://loinc.org",
              "display": "MCH [Entitic mass] by Automated count"
            }
          ],
          "text": "MCH [Entitic mass] by Automated count"
        },
        "valueQuantity": {
          "system": "http://unitsofmeasure.org",
          "value": 27.3,
          "unit": "pg",
          "code": "pg"
        },
        "referenceRange": [
          {
            "low": {
              "value": 27,
              "code": "pg",
              "system": "http://unitsofmeasure.org"
            }
          },
          {
            "high": {
              "value": 35,
              "code": "pg",
              "system": "http://unitsofmeasure.org"
            }
          }
        ],
        "text": {
          "status": "generated",
          "div": "<div xmlns=\"http://www.w3.org/1999/xhtml\"><table class=\"hl7__eu__lab__report\"><tr><th>Test</th><th>05-Jan-2017</th><th>Reference&#xA0;Range</th><th>Unit</th></tr><tr><td>MCH [Entitic mass] by Automated count</td><td>27.3</td><td>27 - 35</td><td></td><td>pg</td></tr></table></div>"
        },
        "status": "final",
        "subject": {
          "reference": "urn:uuid:8ab1428a-ed42-4061-90c4-bc0a2908d1a3",
          "display": "Alfred Rémy"
        },
        "effectiveDateTime": "2017-01-05T06:54:36Z",
        "specimen": {
          "reference": "urn:uuid:faa9ad4d-4aa9-47ba-8ec8-f69ee0a5d8b6"
        }
      }
    },
    {
      "fullUrl": "urn:uuid:26c843a4-b02f-42d4-8210-825224eb4354",
      "resource": {
        "resourceType": "Observation",
        "id": "26c843a4-b02f-42d4-8210-825224eb4354",
        "meta": {
          "profile": [
            "http://hl7.eu/fhir/laboratory/StructureDefinition/Observation-resultslab-eu-lab"
          ]
        },
        "performer": [
          {
            "display": "The Central European Lab"
          }
        ],
        "category": [
          {
            "coding": [
              {
                "system": "http://terminology.hl7.org/CodeSystem/observation-category",
                "code": "laboratory"
              }
            ]
          }
        ],
        "code": {
          "coding": [
            {
              "code": "786-4",
              "system": "http://loinc.org",
              "display": "MCHC [Mass/volume] by Automated count"
            }
          ],
          "text": "MCHC [Mass/volume] by Automated count"
        },
        "valueQuantity": {
          "system": "http://unitsofmeasure.org",
          "value": 33.1,
          "unit": "g/dL",
          "code": "g/dL"
        },
        "referenceRange": [
          {
            "low": {
              "value": 31,
              "code": "g/dL",
              "system": "http://unitsofmeasure.org"
            }
          },
          {
            "high": {
              "value": 37,
              "code": "g/dL",
              "system": "http://unitsofmeasure.org"
            }
          }
        ],
        "text": {
          "status": "generated",
          "div": "<div xmlns=\"http://www.w3.org/1999/xhtml\"><table class=\"hl7__eu__lab__report\"><tr><th>Test</th><th>05-Jan-2017</th><th>Reference&#xA0;Range</th><th>Unit</th></tr><tr><td>MCHC [Mass/volume] by Automated count</td><td>33.1</td><td>31 - 37</td><td></td><td>g/dL</td></tr></table></div>"
        },
        "status": "final",
        "subject": {
          "reference": "urn:uuid:8ab1428a-ed42-4061-90c4-bc0a2908d1a3",
          "display": "Alfred Rémy"
        },
        "effectiveDateTime": "2017-01-05T06:54:36Z",
        "specimen": {
          "reference": "urn:uuid:faa9ad4d-4aa9-47ba-8ec8-f69ee0a5d8b6"
        }
      }
    },
    {
      "fullUrl": "urn:uuid:69144b56-3f0b-4270-af99-d54bdd5680ab",
      "resource": {
        "resourceType": "Observation",
        "id": "69144b56-3f0b-4270-af99-d54bdd5680ab",
        "meta": {
          "profile": [
            "http://hl7.eu/fhir/laboratory/StructureDefinition/Observation-resultslab-eu-lab"
          ]
        },
        "performer": [
          {
            "display": "The Central European Lab"
          }
        ],
        "category": [
          {
            "coding": [
              {
                "system": "http://terminology.hl7.org/CodeSystem/observation-category",
                "code": "laboratory"
              }
            ]
          }
        ],
        "code": {
          "coding": [
            {
              "code": "21000-5",
              "system": "http://loinc.org",
              "display": "Erythrocyte distribution width [Entitic volume] by Automated count"
            }
          ],
          "text": "Erythrocyte distribution width [Entitic volume] by Automated count"
        },
        "valueQuantity": {
          "system": "http://unitsofmeasure.org",
          "value": 43.1,
          "unit": "fL",
          "code": "fL"
        },
        "referenceRange": [
          {
            "low": {
              "value": 39,
              "code": "fL",
              "system": "http://unitsofmeasure.org"
            }
          },
          {
            "high": {
              "value": 55,
              "code": "fL",
              "system": "http://unitsofmeasure.org"
            }
          }
        ],
        "text": {
          "status": "generated",
          "div": "<div xmlns=\"http://www.w3.org/1999/xhtml\"><table class=\"hl7__eu__lab__report\"><tr><th>Test</th><th>05-Jan-2017</th><th>Reference&#xA0;Range</th><th>Unit</th></tr><tr><td>Erythrocyte distribution width [Entitic volume] by Automated count</td><td>43.1</td><td>39 - 55</td><td></td><td>fL</td></tr></table></div>"
        },
        "status": "final",
        "subject": {
          "reference": "urn:uuid:8ab1428a-ed42-4061-90c4-bc0a2908d1a3",
          "display": "Alfred Rémy"
        },
        "effectiveDateTime": "2017-01-05T06:54:36Z",
        "specimen": {
          "reference": "urn:uuid:faa9ad4d-4aa9-47ba-8ec8-f69ee0a5d8b6"
        }
      }
    },
    {
      "fullUrl": "urn:uuid:fefc8f92-bf1e-473f-b5f9-48ce00352b95",
      "resource": {
        "resourceType": "Observation",
        "id": "fefc8f92-bf1e-473f-b5f9-48ce00352b95",
        "meta": {
          "profile": [
            "http://hl7.eu/fhir/laboratory/StructureDefinition/Observation-resultslab-eu-lab"
          ]
        },
        "performer": [
          {
            "display": "The Central European Lab"
          }
        ],
        "category": [
          {
            "coding": [
              {
                "system": "http://terminology.hl7.org/CodeSystem/observation-category",
                "code": "laboratory"
              }
            ]
          }
        ],
        "code": {
          "coding": [
            {
              "code": "777-3",
              "system": "http://loinc.org",
              "display": "Platelets [#/volume] in Blood by Automated count"
            }
          ],
          "text": "Platelets [#/volume] in Blood by Automated count"
        },
        "valueQuantity": {
          "system": "http://unitsofmeasure.org",
          "value": 304.7,
          "unit": "10*3/uL",
          "code": "10*3/uL"
        },
        "referenceRange": [
          {
            "low": {
              "value": 150,
              "code": "10*3/uL",
              "system": "http://unitsofmeasure.org"
            }
          },
          {
            "high": {
              "value": 450,
              "code": "10*3/uL",
              "system": "http://unitsofmeasure.org"
            }
          }
        ],
        "text": {
          "status": "generated",
          "div": "<div xmlns=\"http://www.w3.org/1999/xhtml\"><table class=\"hl7__eu__lab__report\"><tr><th>Test</th><th>05-Jan-2017</th><th>Reference&#xA0;Range</th><th>Unit</th></tr><tr><td>Platelets [#/volume] in Blood by Automated count</td><td>304.7</td><td>150 - 450</td><td></td><td>10*3/uL</td></tr></table></div>"
        },
        "status": "final",
        "subject": {
          "reference": "urn:uuid:8ab1428a-ed42-4061-90c4-bc0a2908d1a3",
          "display": "Alfred Rémy"
        },
        "effectiveDateTime": "2017-01-05T06:54:36Z",
        "specimen": {
          "reference": "urn:uuid:faa9ad4d-4aa9-47ba-8ec8-f69ee0a5d8b6"
        }
      }
    },
    {
      "fullUrl": "urn:uuid:17cb45b7-b932-4fa3-a32f-a30cae73345f",
      "resource": {
        "resourceType": "Observation",
        "id": "17cb45b7-b932-4fa3-a32f-a30cae73345f",
        "meta": {
          "profile": [
            "http://hl7.eu/fhir/laboratory/StructureDefinition/Observation-resultslab-eu-lab"
          ]
        },
        "performer": [
          {
            "display": "The Central European Lab"
          }
        ],
        "category": [
          {
            "coding": [
              {
                "system": "http://terminology.hl7.org/CodeSystem/observation-category",
                "code": "laboratory"
              }
            ]
          }
        ],
        "code": {
          "coding": [
            {
              "code": "32207-3",
              "system": "http://loinc.org",
              "display": "Platelet distribution width [Entitic volume] in Blood by Automated count"
            }
          ],
          "text": "Platelet distribution width [Entitic volume] in Blood by Automated count"
        },
        "valueQuantity": {
          "system": "http://unitsofmeasure.org",
          "value": 360.4,
          "unit": "fL",
          "code": "fL"
        },
        "referenceRange": [
          {
            "low": {
              "value": 9.7,
              "code": "fL",
              "system": "http://unitsofmeasure.org"
            }
          },
          {
            "high": {
              "value": 17.4,
              "code": "fL",
              "system": "http://unitsofmeasure.org"
            }
          }
        ],
        "interpretation": [
          {
            "coding": [
              {
                "code": "H",
                "system": "http://terminology.hl7.org/CodeSystem/v3-ObservationInterpretation",
                "display": "High"
              }
            ]
          }
        ],
        "text": {
          "status": "generated",
          "div": "<div xmlns=\"http://www.w3.org/1999/xhtml\"><table class=\"hl7__eu__lab__report\"><tr><th>Test</th><th>05-Jan-2017</th><th>Reference&#xA0;Range</th><th>Unit</th></tr><tr><td>Platelet distribution width [Entitic volume] in Blood by Automated count</td><td>360.4</td><td>9.7 - 17.4</td><td>H</td><td>fL</td></tr></table></div>"
        },
        "status": "final",
        "subject": {
          "reference": "urn:uuid:8ab1428a-ed42-4061-90c4-bc0a2908d1a3",
          "display": "Alfred Rémy"
        },
        "effectiveDateTime": "2017-01-05T06:54:36Z",
        "specimen": {
          "reference": "urn:uuid:faa9ad4d-4aa9-47ba-8ec8-f69ee0a5d8b6"
        }
      }
    },
    {
      "fullUrl": "urn:uuid:1d63db3a-92a8-4c35-9fb2-941c7f602a50",
      "resource": {
        "resourceType": "Observation",
        "id": "1d63db3a-92a8-4c35-9fb2-941c7f602a50",
        "meta": {
          "profile": [
            "http://hl7.eu/fhir/laboratory/StructureDefinition/Observation-resultslab-eu-lab"
          ]
        },
        "performer": [
          {
            "display": "The Central European Lab"
          }
        ],
        "category": [
          {
            "coding": [
              {
                "system": "http://terminology.hl7.org/CodeSystem/observation-category",
                "code": "laboratory"
              }
            ]
          }
        ],
        "code": {
          "coding": [
            {
              "code": "32623-1",
              "system": "http://loinc.org",
              "display": "Platelet mean volume [Entitic volume] in Blood by Automated count"
            }
          ],
          "text": "Platelet mean volume [Entitic volume] in Blood by Automated count"
        },
        "valueQuantity": {
          "system": "http://unitsofmeasure.org",
          "value": 9.9,
          "unit": "fL",
          "code": "fL"
        },
        "referenceRange": [
          {
            "low": {
              "value": 9.7,
              "code": "fL",
              "system": "http://unitsofmeasure.org"
            }
          },
          {
            "high": {
              "value": 13.5,
              "code": "fL",
              "system": "http://unitsofmeasure.org"
            }
          }
        ],
        "text": {
          "status": "generated",
          "div": "<div xmlns=\"http://www.w3.org/1999/xhtml\"><table class=\"hl7__eu__lab__report\"><tr><th>Test</th><th>05-Jan-2017</th><th>Reference&#xA0;Range</th><th>Unit</th></tr><tr><td>Platelet mean volume [Entitic volume] in Blood by Automated count</td><td>9.9</td><td>9.7 - 13.5</td><td></td><td>fL</td></tr></table></div>"
        },
        "status": "final",
        "subject": {
          "reference": "urn:uuid:8ab1428a-ed42-4061-90c4-bc0a2908d1a3",
          "display": "Alfred Rémy"
        },
        "effectiveDateTime": "2017-01-05T06:54:36Z",
        "specimen": {
          "reference": "urn:uuid:faa9ad4d-4aa9-47ba-8ec8-f69ee0a5d8b6"
        }
      }
    },
    {
      "fullUrl": "urn:uuid:a84701b7-99ec-485a-847c-e28d4b0608cf",
      "resource": {
        "resourceType": "Device",
        "id": "a84701b7-99ec-485a-847c-e28d4b0608cf",
        "deviceName": [
          {
            "name": "SYNDERAI Synthetic Generator",
            "type": "manufacturer-name"
          }
        ],
        "version": [
          {
            "value": "5.0"
          }
        ],
        "text": {
          "status": "generated",
          "div": "<div xmlns=\"http://www.w3.org/1999/xhtml\">SYNDERAI Synthetic Generator v5.0</div>"
        },
        "status": "active\"",
        "distinctIdentifier": "synderai-generator-50",
        "manufacturer": "SYNDERAI Project"
      }
    },
    {
      "fullUrl": "urn:uuid:dcf0cdc5-a10e-4a6b-ab37-eeb2b33e1e63",
      "resource": {
        "resourceType": "Provenance",
        "id": "dcf0cdc5-a10e-4a6b-ab37-eeb2b33e1e63",
        "target": [
          {
            "reference": "Patient/8ab1428a-ed42-4061-90c4-bc0a2908d1a3"
          },
          {
            "reference": "Bundle/67e92644-db13-454a-ac07-edfff8d25f03"
          },
          {
            "reference": "Composition/fc6b5824-94d0-4a87-add0-4f8ab54ef429"
          },
          {
            "reference": "PractitionerRole/9a681191-d6ec-4b61-8011-c47fb3b31582"
          },
          {
            "reference": "Practitioner/1b664fd5-f3c8-41ee-b899-b5d884c07f05"
          },
          {
            "reference": "PractitionerRole/36adaaa8-2de1-44e0-8b1f-a5ff43a6e7bb"
          },
          {
            "reference": "Organization/6efe1d55-f3e9-44d0-a960-14693f859c05"
          }
        ],
        "activity": {
          "text": "Synthetic Example Data Generation"
        },
        "policy": [
          "https://synderai.net/synderai-synthetic-data-policy"
        ],
        "agent": [
          {
            "type": {
              "text": "author"
            },
            "who": {
              "reference": "Device/a84701b7-99ec-485a-847c-e28d4b0608cf"
            }
          }
        ],
        "reason": [
          {
            "text": "Interoperability Testing and Training (non-clinical use)"
          }
        ],
        "text": {
          "status": "generated",
          "div": "<div xmlns=\"http://www.w3.org/1999/xhtml\">Provenance for SYNDERAI Synthetic Example Data Resource</div>"
        },
        "recorded": "2017-01-05T07:54:36Z"
      }
    },
    {
      "fullUrl": "urn:uuid:9a681191-d6ec-4b61-8011-c47fb3b31582",
      "resource": {
        "resourceType": "PractitionerRole",
        "id": "9a681191-d6ec-4b61-8011-c47fb3b31582",
        "meta": {
          "profile": [
            "http://hl7.eu/fhir/base/StructureDefinition/practitionerRole-eu"
          ]
        },
        "text": {
          "status": "generated",
          "div": "<div xmlns=\"http://www.w3.org/1999/xhtml\">Laboratory Role Id: 9a681191-d6ec-4b61-8011-c47fb3b31582</div>"
        },
        "practitioner": {
          "reference": "urn:uuid:1b664fd5-f3c8-41ee-b899-b5d884c07f05"
        }
      }
    },
    {
      "fullUrl": "urn:uuid:1b664fd5-f3c8-41ee-b899-b5d884c07f05",
      "resource": {
        "resourceType": "Practitioner",
        "id": "1b664fd5-f3c8-41ee-b899-b5d884c07f05",
        "meta": {
          "profile": [
            "http://hl7.eu/fhir/base/StructureDefinition/practitioner-eu"
          ]
        },
        "identifier": [
          {
            "assigner": {
              "display": "HL7 Europe"
            },
            "system": "urn:oid:2.16.840.1.113883.2.51.999",
            "value": "ca537227-8c88-4973-ae77-becfb90607f9"
          }
        ],
        "name": [
          {
            "prefix": [
              "dr"
            ],
            "given": [
              "Ex"
            ],
            "family": "Ample"
          }
        ],
        "address": [
          {
            "line": [
              "Laboratoire Central Européenne",
              "Boulevard du Jardin Botanique 32"
            ],
            "postalCode": "1000",
            "city": "Brussels",
            "country": "Belgium"
          }
        ],
        "text": {
          "status": "generated",
          "div": "<div xmlns=\"http://www.w3.org/1999/xhtml\">Laboratory: Laboratoire Central Européenne, 1000 Brussels, Belgium</div>"
        }
      }
    }
  ],
  "type": "document",
  "timestamp": "2017-01-05T07:54:36Z"
}
