{
  "resourceType": "Bundle",
  "id": "04d614f8-33c7-4980-baf8-f067a67364d8",
  "meta": {
    "profile": [
      "http://hl7.eu/fhir/laboratory/StructureDefinition/Bundle-eu-lab"
    ]
  },
  "identifier": {
    "assigner": {
      "display": "HL7 Europe"
    },
    "system": "urn:oid:2.16.840.1.113883.2.51.999",
    "value": "cbc5b658-2b2e-4a92-aa9b-9cf59d33df17"
  },
  "entry": [
    {
      "fullUrl": "urn:uuid:95675f99-c943-430a-80dd-50bfe2e57138",
      "resource": {
        "resourceType": "Composition",
        "id": "95675f99-c943-430a-80dd-50bfe2e57138",
        "meta": {
          "profile": [
            "http://hl7.eu/fhir/laboratory/StructureDefinition/Composition-eu-lab"
          ]
        },
        "identifier": {
          "assigner": {
            "display": "HL7 Europe"
          },
          "system": "urn:oid:2.16.840.1.113883.2.51.999",
          "value": "0846857a-1493-40b6-84dc-a78eecb62e60"
        },
        "author": [
          {
            "reference": "urn:uuid:4f383d6a-8614-4382-82f3-262543530061"
          }
        ],
        "category": [
          {
            "coding": [
              {
                "code": "26436-6",
                "system": "http://loinc.org",
                "display": "Laboratory studies (set)"
              }
            ]
          }
        ],
        "type": {
          "coding": [
            {
              "code": "11502-2",
              "system": "http://loinc.org",
              "display": "Laboratory report"
            }
          ],
          "text": "Laboratory Report"
        },
        "section": [
          {
            "code": {
              "coding": [
                {
                  "code": "26436-6",
                  "system": "http://loinc.org",
                  "display": "Laboratory studies (set)"
                }
              ],
              "text": "Laboratory studies"
            },
            "section": [
              {
                "code": {
                  "coding": [
                    {
                      "code": "$18723-7",
                      "system": "http://loinc.org",
                      "display": "Hematology studies (set)"
                    }
                  ],
                  "text": "Hematology"
                },
                "entry": [
                  {
                    "reference": "urn:uuid:20096c81-8a70-4902-97da-8a7bca6a4ec5"
                  },
                  {
                    "reference": "urn:uuid:019c0218-ff7a-4225-a991-dc090321b744"
                  },
                  {
                    "reference": "urn:uuid:43d6ff6f-abca-4f8d-8bd1-0ff96d66ad37"
                  },
                  {
                    "reference": "urn:uuid:d368be6c-f0e7-42c8-b484-673ea381afc1"
                  },
                  {
                    "reference": "urn:uuid:2d1cd0d8-61f2-4a4c-ab4a-98fe09186123"
                  },
                  {
                    "reference": "urn:uuid:07546b59-e081-4c9f-ba53-841e84ec05d0"
                  },
                  {
                    "reference": "urn:uuid:2db3a2ae-7243-42a8-88d1-ca0fa0bf70f6"
                  },
                  {
                    "reference": "urn:uuid:161006f4-9ca4-4284-9f55-d4ffb041992f"
                  },
                  {
                    "reference": "urn:uuid:9a44d946-583b-4951-931b-6f0e8567b244"
                  },
                  {
                    "reference": "urn:uuid:2ae9c033-bad9-416c-97ed-dfffee93dc38"
                  },
                  {
                    "reference": "urn:uuid:fc57183f-e41e-4277-a30d-56e04377b20f"
                  }
                ],
                "text": {
                  "status": "generated",
                  "div": "<div xmlns=\"http://www.w3.org/1999/xhtml\"><h3>Hematology</h3><table class=\"hl7__eu__lab__report\"><thead><tr><th>Test</th><th>04-NOV-2020</th><th>Reference&#xA0;Range</th><th>Unit</th></tr></thead><tbody><tr><td>Leukocytes [#/volume] in Blood by Automated count</td><td>10.5</td><td>3.5 - 10.5</td><td>10*3/uL</td></tr><tr><td>Erythrocytes [#/volume] in Blood by Automated count</td><td>4.5</td><td>4.5 - 5.7</td><td>10*6/uL</td></tr><tr><td>Hemoglobin [Mass/volume] in Blood</td><td><strong>13.7 L</strong></td><td>14 - 18</td><td>g/dL</td></tr><tr><td>Hematocrit [Volume Fraction] of Blood by Automated count</td><td><strong>37.9 L</strong></td><td>38 - 50</td><td>%</td></tr><tr><td>MCV [Entitic volume] by Automated count</td><td>84.7</td><td>82 - 98</td><td>fL</td></tr><tr><td>MCH [Entitic mass] by Automated count</td><td>27.2</td><td>27 - 33</td><td>pg</td></tr><tr><td>MCHC [Mass/volume] by Automated count</td><td>35.7</td><td>31 - 36</td><td>g/dL</td></tr><tr><td>Erythrocyte distribution width [Entitic volume] by Automated count</td><td>39.9</td><td>39 - 55</td><td>fL</td></tr><tr><td>Platelets [#/volume] in Blood by Automated count</td><td>192.7</td><td>150 - 350</td><td>10*3/uL</td></tr><tr><td>Platelet distribution width [Entitic volume] in Blood by Automated count</td><td><strong>474.6 H</strong></td><td>144 - 366</td><td>fL</td></tr><tr><td>Platelet mean volume [Entitic volume] in Blood by Automated count</td><td>10.9</td><td>9.8 - 13.8</td><td>fL</td></tr></tbody></table></div>"
                },
                "title": "Hematology"
              },
              {
                "code": {
                  "coding": [
                    {
                      "code": "$18719-5",
                      "system": "http://loinc.org",
                      "display": "Chemistry studies (set)"
                    }
                  ],
                  "text": "Chemistry"
                },
                "entry": [
                  {
                    "reference": "urn:uuid:909d3a5e-75b1-43a7-87b5-ecb6ef9a214c"
                  },
                  {
                    "reference": "urn:uuid:b7759090-c96c-4091-adc5-7cb04f16b775"
                  },
                  {
                    "reference": "urn:uuid:d5d0c8d7-0baa-4fdb-af3b-e09f12ae9add"
                  },
                  {
                    "reference": "urn:uuid:238983c3-8e0a-43af-a06c-a7aa89febcf7"
                  },
                  {
                    "reference": "urn:uuid:c637e320-c87c-40ae-a77e-b99c9f4054a0"
                  },
                  {
                    "reference": "urn:uuid:d5883705-9a91-426c-951d-ff14f5a2b9ca"
                  },
                  {
                    "reference": "urn:uuid:06ece7ea-7ce4-4ec4-a80f-5e25357bcf3b"
                  },
                  {
                    "reference": "urn:uuid:d32478e5-7b0c-4892-958d-16a3458b25f4"
                  },
                  {
                    "reference": "urn:uuid:7ced0880-bec1-45ef-a96e-f599e3697a2e"
                  },
                  {
                    "reference": "urn:uuid:cc0b658a-eb22-44c0-9511-95713f2fcfc7"
                  },
                  {
                    "reference": "urn:uuid:59cf2354-2687-48eb-b444-4c6ae224c767"
                  },
                  {
                    "reference": "urn:uuid:69ca04cd-d54e-4f92-8cc7-abd9e8cb4eb5"
                  },
                  {
                    "reference": "urn:uuid:7102ad94-7c4d-4e4d-bdbe-3ba136aa17f5"
                  },
                  {
                    "reference": "urn:uuid:61c2772e-50d1-4311-a15f-fa37c66b1e79"
                  },
                  {
                    "reference": "urn:uuid:b97cd8b6-f98f-4b75-8588-742dfed6a1e4"
                  },
                  {
                    "reference": "urn:uuid:aa54aa39-01c4-42e4-a854-1a040f7feccf"
                  },
                  {
                    "reference": "urn:uuid:6c3839d7-0419-4b8f-9956-505451940dfa"
                  },
                  {
                    "reference": "urn:uuid:14fef0e2-ecab-446b-b651-adb40abe6067"
                  }
                ],
                "text": {
                  "status": "generated",
                  "div": "<div xmlns=\"http://www.w3.org/1999/xhtml\"><h3>Chemistry</h3><table class=\"hl7__eu__lab__report\"><thead><tr><th>Test</th><th>04-NOV-2020</th><th>Reference&#xA0;Range</th><th>Unit</th></tr></thead><tbody><tr><td>Glucose [Mass/volume] in Serum or Plasma</td><td>77.1</td><td>70 - 140</td><td>mg/dL</td></tr><tr><td>Urea nitrogen [Mass/volume] in Serum or Plasma</td><td>9.1</td><td>7 - 20</td><td>mg/dL</td></tr><tr><td>Creatinine [Mass/volume] in Serum or Plasma</td><td><strong>2.0 H</strong></td><td>0.9 - 1.3</td><td>mg/dL</td></tr><tr><td>Calcium [Mass/volume] in Serum or Plasma</td><td>9.8</td><td>8.5 - 10.5</td><td>mg/dL</td></tr><tr><td>Sodium [Moles/volume] in Serum or Plasma</td><td>141.2</td><td>135 - 145</td><td>mmol/L</td></tr><tr><td>Potassium [Moles/volume] in Serum or Plasma</td><td>4.5</td><td>3.5 - 5</td><td>mmol/L</td></tr><tr><td>Chloride [Moles/volume] in Serum or Plasma</td><td>106.3</td><td>98 - 108</td><td>mmol/L</td></tr><tr><td>Carbon dioxide, total [Moles/volume] in Serum or Plasma</td><td>23.7</td><td>22 - 29</td><td>mmol/L</td></tr><tr><td>Ketones [Presence] in Urine by Test strip</td><td>Urine ketone test = ++</td><td></td><td></td></tr><tr><td>Hemoglobin A1c/Hemoglobin.total in Blood</td><td><strong>3.4 L</strong></td><td>4.3 - 6.4</td><td>%</td></tr><tr><td>Glucose [Mass/volume] in Blood</td><td>77.1</td><td>70 - 140</td><td>mg/dL</td></tr><tr><td>Urea nitrogen [Mass/volume] in Blood</td><td>9.1</td><td>7 - 20</td><td>mg/dL</td></tr><tr><td>Creatinine [Mass/volume] in Blood</td><td><strong>6.6 H</strong></td><td>0.6 - 1.3</td><td>mg/dL</td></tr><tr><td>Calcium [Mass/volume] in Blood</td><td>9.8</td><td>8.5 - 10.5</td><td>mg/dL</td></tr><tr><td>Sodium [Moles/volume] in Blood</td><td>141.2</td><td>135 - 145</td><td>mmol/L</td></tr><tr><td>Potassium [Moles/volume] in Blood</td><td>4.5</td><td>3.5 - 5.3</td><td>mmol/L</td></tr><tr><td>Chloride [Moles/volume] in Blood</td><td>106.3</td><td>98 - 110</td><td>mmol/L</td></tr><tr><td>Carbon dioxide, total [Moles/volume] in Blood</td><td>23.7</td><td>22 - 29</td><td>mmol/L</td></tr></tbody></table></div>"
                },
                "title": "Chemistry"
              },
              {
                "code": {
                  "coding": [
                    {
                      "code": "$18729-4",
                      "system": "http://loinc.org",
                      "display": "Urinalysis studies (set)"
                    }
                  ],
                  "text": "Urinalysis"
                },
                "entry": [
                  {
                    "reference": "urn:uuid:a1dfcb4b-7794-4877-9a8f-44fab8b9e509"
                  },
                  {
                    "reference": "urn:uuid:b9a639e3-891d-4714-a46a-d446d87e9ff3"
                  },
                  {
                    "reference": "urn:uuid:a798a384-4f8d-415f-aab9-7f2b9f367e8a"
                  },
                  {
                    "reference": "urn:uuid:87b3a35a-342e-48f4-b100-86cdc0f5d5d5"
                  },
                  {
                    "reference": "urn:uuid:209d16ad-cbbb-41f7-be46-1d0ef16b6c52"
                  },
                  {
                    "reference": "urn:uuid:b6b8627c-ce56-4cfb-bb56-dfe1aa2bffd8"
                  },
                  {
                    "reference": "urn:uuid:f4dd0baf-b25f-4aef-9673-fc42b8f4f48f"
                  },
                  {
                    "reference": "urn:uuid:db5b8fff-c183-4850-a59c-ad1c74474443"
                  },
                  {
                    "reference": "urn:uuid:720942d6-53e1-4e30-a547-ec8273903d27"
                  },
                  {
                    "reference": "urn:uuid:038c9d9d-8b8c-4be1-af17-c1569f0b457b"
                  },
                  {
                    "reference": "urn:uuid:546aca5d-dfee-48ae-9ba4-658585d8bb67"
                  },
                  {
                    "reference": "urn:uuid:f01f6453-2795-45dd-849c-48e79d9068dc"
                  }
                ],
                "text": {
                  "status": "generated",
                  "div": "<div xmlns=\"http://www.w3.org/1999/xhtml\"><h3>Urinalysis</h3><table class=\"hl7__eu__lab__report\"><thead><tr><th>Test</th><th>04-NOV-2020</th><th>Reference&#xA0;Range</th><th>Unit</th></tr></thead><tbody><tr><td>Glucose [Mass/volume] in Urine by Test strip</td><td>0.5</td><td>0 - 0.8</td><td>mg/dL</td></tr><tr><td>Glucose [Presence] in Urine by Test strip</td><td>++</td><td></td><td></td></tr><tr><td>Bilirubin.total [Mass/volume] in Urine by Test strip</td><td><strong>1.1 H</strong></td><td>0.2 - 1</td><td>mg/dL</td></tr><tr><td>Bilirubin.total [Presence] in Urine by Test strip</td><td>Finding of bilirubin in urine</td><td></td><td></td></tr><tr><td>Ketones [Mass/volume] in Urine by Test strip</td><td><strong>16.3 H</strong></td><td>0 - 5</td><td>mg/dL</td></tr><tr><td>Specific gravity of Urine by Test strip</td><td><strong>1.0 L</strong></td><td>1.005 - 1.03</td><td>{nominal}</td></tr><tr><td>pH of Urine by Test strip</td><td>6.1</td><td>4.6 - 7</td><td>pH</td></tr><tr><td>Protein [Mass/volume] in Urine by Test strip</td><td><strong>274.5 H</strong></td><td>0 - 150</td><td>mg/dL</td></tr><tr><td>Protein [Presence] in Urine by Test strip</td><td>Urine protein test = ++</td><td></td><td></td></tr><tr><td>Nitrite [Presence] in Urine by Test strip</td><td>Urine nitrite negative</td><td></td><td></td></tr><tr><td>Hemoglobin [Presence] in Urine by Test strip</td><td>Urine blood test = negative</td><td></td><td></td></tr><tr><td>Leukocyte esterase [Presence] in Urine by Test strip</td><td>Urine leukocyte test negative</td><td></td><td></td></tr></tbody></table></div>"
                },
                "title": "Urinalysis"
              },
              {
                "code": {
                  "coding": [
                    {
                      "code": "$LP7846-1",
                      "system": "http://loinc.org",
                      "display": "Specimen information"
                    }
                  ],
                  "text": "Specimen information"
                },
                "entry": [
                  {
                    "reference": "urn:uuid:674afbcf-b9f0-4fda-b927-7a7efc5be5a0"
                  },
                  {
                    "reference": "urn:uuid:dc355de5-ffa2-45f0-998b-2619cf251c29"
                  },
                  {
                    "reference": "urn:uuid:c140ead9-fa1f-41ea-9911-e7f582d2a44c"
                  },
                  {
                    "reference": "urn:uuid:dc65c871-2112-4f4c-9e87-6242b6dbcdab"
                  }
                ],
                "text": {
                  "status": "generated",
                  "div": "<div xmlns=\"http://www.w3.org/1999/xhtml\"><h3>Specimen information</h3><table class=\"hl7__eu__lab__report\"><thead><tr><th>Test</th><th>04-NOV-2020</th><th>Specimen</th><th></th></tr></thead><tbody><tr><td>Appearance of Urine</td><td>Cloudy urine</td><td>Urine</td><td></td></tr><tr><td>Odor of Urine</td><td>Urine smell ammoniacal</td><td>Urine</td><td></td></tr><tr><td>Clarity of Urine</td><td>Translucent</td><td>Urine</td><td></td></tr><tr><td>Color of Urine</td><td>Brown color</td><td>Urine</td><td></td></tr></tbody></table></div>"
                },
                "title": "Specimen information"
              }
            ],
            "title": "Laboratory Report"
          },
          {
            "text": {
              "status": "generated",
              "div": "<div xmlns=\"http://www.w3.org/1999/xhtml\"><h3>Annotation</h3><table class=\"hl7__eu__lab__report\"><tr><th>Conclusion and Recommendations based on this report and previous findings known to us</th></tr><tr><td>The patient shows markedly elevated creatinine, proteinuria, hematuria, and abnormal urine findings (cloudy, brown, low specific gravity, ketonuria, bilirubinuria), suggesting significant renal dysfunction, possibly acute or chronic kidney disease. Anemia is present (low hemoglobin, hematocrit), and HbA1c is low, ruling out chronic hyperglycemia. No evidence of infection in urine. Urgent nephrology evaluation is recommended for further assessment and management.</td></tr></table></div>"
            },
            "code": {
              "coding": [
                {
                  "system": "http://loinc.org",
                  "code": "48767-8",
                  "display": "Annotation comment"
                }
              ]
            },
            "title": "Annotation comment"
          }
        ],
        "status": "final",
        "subject": {
          "reference": "urn:uuid:707110c9-87e9-4bf1-8f2f-be96256478d5",
          "display": "Θεμιστοκλής Λιναρδάκη"
        },
        "date": "2020-11-04T07:16:00Z",
        "title": "Laboratory Report",
        "confidentiality": "N"
      }
    },
    {
      "fullUrl": "urn:uuid:47ec039e-18a5-440f-963b-d81d4681d15c",
      "resource": {
        "resourceType": "DiagnosticReport",
        "id": "47ec039e-18a5-440f-963b-d81d4681d15c",
        "meta": {
          "profile": [
            "http://hl7.eu/fhir/laboratory/StructureDefinition/DiagnosticReport-eu-lab"
          ]
        },
        "identifier": [
          {
            "assigner": {
              "display": "HL7 Europe"
            },
            "system": "urn:oid:2.16.840.1.113883.2.51.999",
            "value": "fb6d0185-2bd1-4095-b366-e261a8985b1a"
          }
        ],
        "extension": [
          {
            "url": "http://hl7.org/fhir/5.0/StructureDefinition/extension-DiagnosticReport.composition",
            "valueReference": {
              "reference": "urn:uuid:0846857a-1493-40b6-84dc-a78eecb62e60"
            }
          }
        ],
        "category": [
          {
            "coding": [
              {
                "code": "26436-6",
                "system": "http://loinc.org",
                "display": "Laboratory studies (set)"
              }
            ]
          }
        ],
        "specimen": [
          {
            "reference": "urn:uuid:2eb6ec91-9372-4b6b-b28d-2c6d40e9cad7"
          },
          {
            "reference": "urn:uuid:90235db2-3cf0-4e15-b2a8-0f981abe9be6"
          },
          {
            "reference": "urn:uuid:aa8f8f4d-b1be-4ba3-a6dc-0048d8a3fbc1"
          },
          {
            "reference": "urn:uuid:aa8f8f4d-b1be-4ba3-a6dc-0048d8a3fbc1"
          }
        ],
        "result": [
          {
            "reference": "urn:uuid:909d3a5e-75b1-43a7-87b5-ecb6ef9a214c"
          },
          {
            "reference": "urn:uuid:b7759090-c96c-4091-adc5-7cb04f16b775"
          },
          {
            "reference": "urn:uuid:d5d0c8d7-0baa-4fdb-af3b-e09f12ae9add"
          },
          {
            "reference": "urn:uuid:238983c3-8e0a-43af-a06c-a7aa89febcf7"
          },
          {
            "reference": "urn:uuid:c637e320-c87c-40ae-a77e-b99c9f4054a0"
          },
          {
            "reference": "urn:uuid:d5883705-9a91-426c-951d-ff14f5a2b9ca"
          },
          {
            "reference": "urn:uuid:06ece7ea-7ce4-4ec4-a80f-5e25357bcf3b"
          },
          {
            "reference": "urn:uuid:d32478e5-7b0c-4892-958d-16a3458b25f4"
          },
          {
            "reference": "urn:uuid:674afbcf-b9f0-4fda-b927-7a7efc5be5a0"
          },
          {
            "reference": "urn:uuid:dc355de5-ffa2-45f0-998b-2619cf251c29"
          },
          {
            "reference": "urn:uuid:c140ead9-fa1f-41ea-9911-e7f582d2a44c"
          },
          {
            "reference": "urn:uuid:dc65c871-2112-4f4c-9e87-6242b6dbcdab"
          },
          {
            "reference": "urn:uuid:a1dfcb4b-7794-4877-9a8f-44fab8b9e509"
          },
          {
            "reference": "urn:uuid:b9a639e3-891d-4714-a46a-d446d87e9ff3"
          },
          {
            "reference": "urn:uuid:a798a384-4f8d-415f-aab9-7f2b9f367e8a"
          },
          {
            "reference": "urn:uuid:87b3a35a-342e-48f4-b100-86cdc0f5d5d5"
          },
          {
            "reference": "urn:uuid:209d16ad-cbbb-41f7-be46-1d0ef16b6c52"
          },
          {
            "reference": "urn:uuid:7ced0880-bec1-45ef-a96e-f599e3697a2e"
          },
          {
            "reference": "urn:uuid:b6b8627c-ce56-4cfb-bb56-dfe1aa2bffd8"
          },
          {
            "reference": "urn:uuid:f4dd0baf-b25f-4aef-9673-fc42b8f4f48f"
          },
          {
            "reference": "urn:uuid:db5b8fff-c183-4850-a59c-ad1c74474443"
          },
          {
            "reference": "urn:uuid:720942d6-53e1-4e30-a547-ec8273903d27"
          },
          {
            "reference": "urn:uuid:038c9d9d-8b8c-4be1-af17-c1569f0b457b"
          },
          {
            "reference": "urn:uuid:546aca5d-dfee-48ae-9ba4-658585d8bb67"
          },
          {
            "reference": "urn:uuid:f01f6453-2795-45dd-849c-48e79d9068dc"
          },
          {
            "reference": "urn:uuid:cc0b658a-eb22-44c0-9511-95713f2fcfc7"
          },
          {
            "reference": "urn:uuid:59cf2354-2687-48eb-b444-4c6ae224c767"
          },
          {
            "reference": "urn:uuid:69ca04cd-d54e-4f92-8cc7-abd9e8cb4eb5"
          },
          {
            "reference": "urn:uuid:7102ad94-7c4d-4e4d-bdbe-3ba136aa17f5"
          },
          {
            "reference": "urn:uuid:61c2772e-50d1-4311-a15f-fa37c66b1e79"
          },
          {
            "reference": "urn:uuid:b97cd8b6-f98f-4b75-8588-742dfed6a1e4"
          },
          {
            "reference": "urn:uuid:aa54aa39-01c4-42e4-a854-1a040f7feccf"
          },
          {
            "reference": "urn:uuid:6c3839d7-0419-4b8f-9956-505451940dfa"
          },
          {
            "reference": "urn:uuid:14fef0e2-ecab-446b-b651-adb40abe6067"
          },
          {
            "reference": "urn:uuid:20096c81-8a70-4902-97da-8a7bca6a4ec5"
          },
          {
            "reference": "urn:uuid:019c0218-ff7a-4225-a991-dc090321b744"
          },
          {
            "reference": "urn:uuid:43d6ff6f-abca-4f8d-8bd1-0ff96d66ad37"
          },
          {
            "reference": "urn:uuid:d368be6c-f0e7-42c8-b484-673ea381afc1"
          },
          {
            "reference": "urn:uuid:2d1cd0d8-61f2-4a4c-ab4a-98fe09186123"
          },
          {
            "reference": "urn:uuid:07546b59-e081-4c9f-ba53-841e84ec05d0"
          },
          {
            "reference": "urn:uuid:2db3a2ae-7243-42a8-88d1-ca0fa0bf70f6"
          },
          {
            "reference": "urn:uuid:161006f4-9ca4-4284-9f55-d4ffb041992f"
          },
          {
            "reference": "urn:uuid:9a44d946-583b-4951-931b-6f0e8567b244"
          },
          {
            "reference": "urn:uuid:2ae9c033-bad9-416c-97ed-dfffee93dc38"
          },
          {
            "reference": "urn:uuid:fc57183f-e41e-4277-a30d-56e04377b20f"
          }
        ],
        "status": "registered",
        "code": {
          "coding": [
            {
              "code": "11502-2",
              "system": "http://loinc.org",
              "display": "Laboratory report"
            }
          ]
        },
        "subject": {
          "reference": "urn:uuid:707110c9-87e9-4bf1-8f2f-be96256478d5",
          "display": "Θεμιστοκλής Λιναρδάκη"
        }
      }
    },
    {
      "fullUrl": "urn:uuid:707110c9-87e9-4bf1-8f2f-be96256478d5",
      "resource": {
        "resourceType": "Patient",
        "id": "707110c9-87e9-4bf1-8f2f-be96256478d5",
        "meta": {
          "security": [
            {
              "system": "http://terminology.hl7.org/CodeSystem/v3-ActReason",
              "code": "HTEST"
            },
            {
              "system": "http://terminology.hl7.org/CodeSystem/v3-ActReason",
              "code": "TRAIN"
            }
          ],
          "tag": [
            {
              "system": "https://synderai.net/fhir/CodeSystem/tags",
              "code": "synthetic",
              "display": "SYNDERAI Synthetic data"
            }
          ],
          "profile": [
            "http://hl7.eu/fhir/base/StructureDefinition/patient-eu-core"
          ]
        },
        "identifier": [
          {
            "type": {
              "coding": [
                {
                  "code": "PT",
                  "system": "http://terminology.hl7.org/CodeSystem/v2-0203"
                }
              ]
            },
            "system": "http://ec.europa.eu/identifier/eci",
            "value": "5962-476889-7"
          },
          {
            "type": {
              "coding": [
                {
                  "code": "MR",
                  "system": "http://terminology.hl7.org/CodeSystem/v2-0203"
                }
              ]
            },
            "system": "http://local.setting.eu/identifier",
            "value": "925e2603-2ef9-6bdf-1330-2ebf526636c4"
          }
        ],
        "name": [
          {
            "family": "Λιναρδάκη"
          },
          {
            "given": [
              "Θεμιστοκλής"
            ]
          },
          {
            "text": "Θεμιστοκλής Λιναρδάκη"
          }
        ],
        "address": [
          {
            "line": [
              "Αμαρύνθου 54-58"
            ],
            "use": "home",
            "type": "physical",
            "postalCode": "262 21",
            "city": "Πάτρα",
            "country": "Greece"
          }
        ],
        "telecom": [
          {
            "system": "phone",
            "value": "+302226364480"
          }
        ],
        "extension": [
          {
            "url": "http://hl7.org/fhir/StructureDefinition/patient-nationality",
            "valueCodeableConcept": {
              "coding": [
                {
                  "code": "GR",
                  "system": "http://hl7.org/fhir/ValueSet/country"
                }
              ]
            }
          }
        ],
        "text": {
          "status": "generated",
          "div": "<div xmlns=\"http://www.w3.org/1999/xhtml\"><table class=\"hl7__ips\"><tr><td>Θεμιστοκλής Λιναρδάκη</td><td>male</td><td>21-Jan-1974</td></tr></table></div>"
        },
        "gender": "male",
        "birthDate": "1974-01-21"
      }
    },
    {
      "fullUrl": "urn:uuid:073539f1-4737-40c2-a8b0-c1aae36d717d",
      "resource": {
        "resourceType": "ServiceRequest",
        "id": "073539f1-4737-40c2-a8b0-c1aae36d717d",
        "meta": {
          "profile": [
            "http://hl7.eu/fhir/laboratory/StructureDefinition/ServiceRequest-eu-lab"
          ]
        },
        "identifier": [
          {
            "system": "http://example.org",
            "value": "0cf82f37-375d-4263-9e62-e9b8609464d3"
          }
        ],
        "specimen": [
          {
            "reference": "urn:uuid:2eb6ec91-9372-4b6b-b28d-2c6d40e9cad7"
          },
          {
            "reference": "urn:uuid:90235db2-3cf0-4e15-b2a8-0f981abe9be6"
          },
          {
            "reference": "urn:uuid:aa8f8f4d-b1be-4ba3-a6dc-0048d8a3fbc1"
          }
        ],
        "reasonCode": [
          {
            "coding": [
              {
                "code": "237602007",
                "system": "http://snomed.info/sct",
                "display": "Metabolic syndrome X"
              }
            ]
          },
          {
            "coding": [
              {
                "code": "433144002",
                "system": "http://snomed.info/sct",
                "display": "Chronic kidney disease stage 3"
              }
            ]
          },
          {
            "coding": [
              {
                "code": "157141000119108",
                "system": "http://snomed.info/sct",
                "display": "Proteinuria due to type 2 diabetes mellitus"
              }
            ]
          },
          {
            "coding": [
              {
                "code": "431856006",
                "system": "http://snomed.info/sct",
                "display": "Chronic kidney disease stage 2"
              }
            ]
          },
          {
            "coding": [
              {
                "code": "90781000119102",
                "system": "http://snomed.info/sct",
                "display": "Microalbuminuria due to type 2 diabetes mellitus"
              }
            ]
          },
          {
            "coding": [
              {
                "code": "127013003",
                "system": "http://snomed.info/sct",
                "display": "Disorder of kidney due to diabetes mellitus"
              }
            ]
          },
          {
            "coding": [
              {
                "code": "431855005",
                "system": "http://snomed.info/sct",
                "display": "Chronic kidney disease stage 1"
              }
            ]
          },
          {
            "coding": [
              {
                "code": "59621000",
                "system": "http://snomed.info/sct",
                "display": "Essential hypertension"
              }
            ]
          },
          {
            "coding": [
              {
                "code": "15777000",
                "system": "http://snomed.info/sct",
                "display": "Prediabetes"
              }
            ]
          },
          {
            "coding": [
              {
                "code": "271737000",
                "system": "http://snomed.info/sct",
                "display": "Anemia"
              }
            ]
          }
        ],
        "status": "active",
        "intent": "order",
        "code": {
          "coding": [
            {
              "code": "108252007",
              "system": "http://snomed.info/sct",
              "display": "Laboratory procedure"
            }
          ]
        },
        "subject": {
          "reference": "urn:uuid:707110c9-87e9-4bf1-8f2f-be96256478d5",
          "display": "Θεμιστοκλής Λιναρδάκη"
        },
        "requester": {
          "reference": "urn:uuid:6f892787-4dd6-48bd-bf64-a30f0fc390b3"
        }
      }
    },
    {
      "fullUrl": "urn:uuid:6f892787-4dd6-48bd-bf64-a30f0fc390b3",
      "resource": {
        "resourceType": "PractitionerRole",
        "id": "6f892787-4dd6-48bd-bf64-a30f0fc390b3",
        "meta": {
          "profile": [
            "http://hl7.eu/fhir/base/StructureDefinition/practitionerRole-eu"
          ]
        },
        "text": {
          "status": "generated",
          "div": "<div xmlns=\"http://www.w3.org/1999/xhtml\">Provider Role Id: 6f892787-4dd6-48bd-bf64-a30f0fc390b3</div>"
        },
        "organization": {
          "reference": "urn:uuid:27a3576f-29f8-4015-b26d-136e182363b9"
        }
      }
    },
    {
      "fullUrl": "urn:uuid:27a3576f-29f8-4015-b26d-136e182363b9",
      "resource": {
        "resourceType": "Organization",
        "id": "27a3576f-29f8-4015-b26d-136e182363b9",
        "meta": {
          "profile": [
            "http://hl7.eu/fhir/base/StructureDefinition/organization-eu"
          ]
        },
        "identifier": [
          {
            "assigner": {
              "display": "HL7 Europe"
            },
            "system": "urn:oid:2.16.840.1.113883.2.51.999",
            "value": "cad9a094-37d8-480b-86c3-719c3dfd59f9"
          }
        ],
        "address": [
          {
            "line": [
              "211 Odós Filellinon"
            ],
            "city": "Patras",
            "postalCode": "262 21",
            "country": "Greece"
          }
        ],
        "text": {
          "status": "generated",
          "div": "<div xmlns=\"http://www.w3.org/1999/xhtml\">Provider Organization: Dr. Dimitris Economou</div>"
        },
        "name": "Dr. Dimitris Economou"
      }
    },
    {
      "fullUrl": "urn:uuid:2eb6ec91-9372-4b6b-b28d-2c6d40e9cad7",
      "resource": {
        "resourceType": "Specimen",
        "id": "2eb6ec91-9372-4b6b-b28d-2c6d40e9cad7",
        "meta": {
          "profile": [
            "http://hl7.eu/fhir/laboratory/StructureDefinition/Specimen-eu-lab"
          ]
        },
        "collection": {
          "collectedDateTime": "2020-11-04"
        },
        "text": {
          "status": "generated",
          "div": "<div xmlns=\"http://www.w3.org/1999/xhtml\"><table class=\"hl7__eu__lab__report\"><tr><th>Specimen</th><th>Collection Date</th></tr><tr><td>Acellular blood (serum or plasma) specimen</td><td><span class=\"nb\">04-Nov-2020</span></td></tr></table></div>"
        },
        "type": {
          "coding": [
            {
              "code": "122592007",
              "system": "http://snomed.info/sct",
              "display": "Acellular blood (serum or plasma) specimen"
            }
          ]
        }
      }
    },
    {
      "fullUrl": "urn:uuid:90235db2-3cf0-4e15-b2a8-0f981abe9be6",
      "resource": {
        "resourceType": "Specimen",
        "id": "90235db2-3cf0-4e15-b2a8-0f981abe9be6",
        "meta": {
          "profile": [
            "http://hl7.eu/fhir/laboratory/StructureDefinition/Specimen-eu-lab"
          ]
        },
        "collection": {
          "collectedDateTime": "2020-11-04"
        },
        "text": {
          "status": "generated",
          "div": "<div xmlns=\"http://www.w3.org/1999/xhtml\"><table class=\"hl7__eu__lab__report\"><tr><th>Specimen</th><th>Collection Date</th></tr><tr><td>Urine specimen</td><td><span class=\"nb\">04-Nov-2020</span></td></tr></table></div>"
        },
        "type": {
          "coding": [
            {
              "code": "122575003",
              "system": "http://snomed.info/sct",
              "display": "Urine specimen"
            }
          ]
        }
      }
    },
    {
      "fullUrl": "urn:uuid:aa8f8f4d-b1be-4ba3-a6dc-0048d8a3fbc1",
      "resource": {
        "resourceType": "Specimen",
        "id": "aa8f8f4d-b1be-4ba3-a6dc-0048d8a3fbc1",
        "meta": {
          "profile": [
            "http://hl7.eu/fhir/laboratory/StructureDefinition/Specimen-eu-lab"
          ]
        },
        "collection": {
          "collectedDateTime": "2020-11-04"
        },
        "text": {
          "status": "generated",
          "div": "<div xmlns=\"http://www.w3.org/1999/xhtml\"><table class=\"hl7__eu__lab__report\"><tr><th>Specimen</th><th>Collection Date</th></tr><tr><td>Whole blood specimen (specimen)</td><td><span class=\"nb\">04-Nov-2020</span></td></tr></table></div>"
        },
        "type": {
          "coding": [
            {
              "code": "258580003",
              "system": "http://snomed.info/sct",
              "display": "Whole blood specimen (specimen)"
            }
          ]
        }
      }
    },
    {
      "fullUrl": "urn:uuid:aa8f8f4d-b1be-4ba3-a6dc-0048d8a3fbc1",
      "resource": {
        "resourceType": "Specimen",
        "id": "aa8f8f4d-b1be-4ba3-a6dc-0048d8a3fbc1",
        "meta": {
          "profile": [
            "http://hl7.eu/fhir/laboratory/StructureDefinition/Specimen-eu-lab"
          ]
        },
        "collection": {
          "collectedDateTime": "2020-11-04"
        },
        "text": {
          "status": "generated",
          "div": "<div xmlns=\"http://www.w3.org/1999/xhtml\"><table class=\"hl7__eu__lab__report\"><tr><th>Specimen</th><th>Collection Date</th></tr><tr><td>Whole blood specimen (specimen)</td><td><span class=\"nb\">04-Nov-2020</span></td></tr></table></div>"
        },
        "type": {
          "coding": [
            {
              "code": "258580003",
              "system": "http://snomed.info/sct",
              "display": "Whole blood specimen (specimen)"
            }
          ]
        }
      }
    },
    {
      "fullUrl": "urn:uuid:909d3a5e-75b1-43a7-87b5-ecb6ef9a214c",
      "resource": {
        "resourceType": "Observation",
        "id": "909d3a5e-75b1-43a7-87b5-ecb6ef9a214c",
        "meta": {
          "profile": [
            "http://hl7.eu/fhir/laboratory/StructureDefinition/Observation-resultslab-eu-lab"
          ]
        },
        "performer": [
          {
            "display": "The Central European Lab"
          }
        ],
        "category": [
          {
            "coding": [
              {
                "system": "http://terminology.hl7.org/CodeSystem/observation-category",
                "code": "laboratory"
              }
            ]
          }
        ],
        "code": {
          "coding": [
            {
              "code": "2345-7",
              "system": "http://loinc.org",
              "display": "Glucose [Mass/volume] in Serum or Plasma"
            }
          ],
          "text": "Glucose [Mass/volume] in Serum or Plasma"
        },
        "valueQuantity": {
          "system": "http://unitsofmeasure.org",
          "value": 77.1,
          "unit": "mg/dL",
          "code": "mg/dL"
        },
        "referenceRange": [
          {
            "low": {
              "value": 70,
              "code": "mg/dL",
              "system": "http://unitsofmeasure.org"
            }
          },
          {
            "high": {
              "value": 140,
              "code": "mg/dL",
              "system": "http://unitsofmeasure.org"
            }
          }
        ],
        "text": {
          "status": "generated",
          "div": "<div xmlns=\"http://www.w3.org/1999/xhtml\"><table class=\"hl7__eu__lab__report\"><tr><th>Test</th><th>04-Nov-2020</th><th>Reference&#xA0;Range</th><th>Unit</th></tr><tr><td>Glucose [Mass/volume] in Serum or Plasma</td><td>77.1</td><td>70 - 140</td><td></td><td>mg/dL</td></tr></table></div>"
        },
        "status": "final",
        "subject": {
          "reference": "urn:uuid:707110c9-87e9-4bf1-8f2f-be96256478d5",
          "display": "Θεμιστοκλής Λιναρδάκη"
        },
        "effectiveDateTime": "2020-11-04T06:16:00Z",
        "specimen": {
          "reference": "urn:uuid:2eb6ec91-9372-4b6b-b28d-2c6d40e9cad7"
        }
      }
    },
    {
      "fullUrl": "urn:uuid:b7759090-c96c-4091-adc5-7cb04f16b775",
      "resource": {
        "resourceType": "Observation",
        "id": "b7759090-c96c-4091-adc5-7cb04f16b775",
        "meta": {
          "profile": [
            "http://hl7.eu/fhir/laboratory/StructureDefinition/Observation-resultslab-eu-lab"
          ]
        },
        "performer": [
          {
            "display": "The Central European Lab"
          }
        ],
        "category": [
          {
            "coding": [
              {
                "system": "http://terminology.hl7.org/CodeSystem/observation-category",
                "code": "laboratory"
              }
            ]
          }
        ],
        "code": {
          "coding": [
            {
              "code": "3094-0",
              "system": "http://loinc.org",
              "display": "Urea nitrogen [Mass/volume] in Serum or Plasma"
            }
          ],
          "text": "Urea nitrogen [Mass/volume] in Serum or Plasma"
        },
        "valueQuantity": {
          "system": "http://unitsofmeasure.org",
          "value": 9.1,
          "unit": "mg/dL",
          "code": "mg/dL"
        },
        "referenceRange": [
          {
            "low": {
              "value": 7,
              "code": "mg/dL",
              "system": "http://unitsofmeasure.org"
            }
          },
          {
            "high": {
              "value": 20,
              "code": "mg/dL",
              "system": "http://unitsofmeasure.org"
            }
          }
        ],
        "text": {
          "status": "generated",
          "div": "<div xmlns=\"http://www.w3.org/1999/xhtml\"><table class=\"hl7__eu__lab__report\"><tr><th>Test</th><th>04-Nov-2020</th><th>Reference&#xA0;Range</th><th>Unit</th></tr><tr><td>Urea nitrogen [Mass/volume] in Serum or Plasma</td><td>9.1</td><td>7 - 20</td><td></td><td>mg/dL</td></tr></table></div>"
        },
        "status": "final",
        "subject": {
          "reference": "urn:uuid:707110c9-87e9-4bf1-8f2f-be96256478d5",
          "display": "Θεμιστοκλής Λιναρδάκη"
        },
        "effectiveDateTime": "2020-11-04T06:16:00Z",
        "specimen": {
          "reference": "urn:uuid:2eb6ec91-9372-4b6b-b28d-2c6d40e9cad7"
        }
      }
    },
    {
      "fullUrl": "urn:uuid:d5d0c8d7-0baa-4fdb-af3b-e09f12ae9add",
      "resource": {
        "resourceType": "Observation",
        "id": "d5d0c8d7-0baa-4fdb-af3b-e09f12ae9add",
        "meta": {
          "profile": [
            "http://hl7.eu/fhir/laboratory/StructureDefinition/Observation-resultslab-eu-lab"
          ]
        },
        "performer": [
          {
            "display": "The Central European Lab"
          }
        ],
        "category": [
          {
            "coding": [
              {
                "system": "http://terminology.hl7.org/CodeSystem/observation-category",
                "code": "laboratory"
              }
            ]
          }
        ],
        "code": {
          "coding": [
            {
              "code": "2160-0",
              "system": "http://loinc.org",
              "display": "Creatinine [Mass/volume] in Serum or Plasma"
            }
          ],
          "text": "Creatinine [Mass/volume] in Serum or Plasma"
        },
        "valueQuantity": {
          "system": "http://unitsofmeasure.org",
          "value": 2,
          "unit": "mg/dL",
          "code": "mg/dL"
        },
        "referenceRange": [
          {
            "low": {
              "value": 0.9,
              "code": "mg/dL",
              "system": "http://unitsofmeasure.org"
            }
          },
          {
            "high": {
              "value": 1.3,
              "code": "mg/dL",
              "system": "http://unitsofmeasure.org"
            }
          }
        ],
        "interpretation": [
          {
            "coding": [
              {
                "code": "H",
                "system": "http://terminology.hl7.org/CodeSystem/v3-ObservationInterpretation",
                "display": "High"
              }
            ]
          }
        ],
        "text": {
          "status": "generated",
          "div": "<div xmlns=\"http://www.w3.org/1999/xhtml\"><table class=\"hl7__eu__lab__report\"><tr><th>Test</th><th>04-Nov-2020</th><th>Reference&#xA0;Range</th><th>Unit</th></tr><tr><td>Creatinine [Mass/volume] in Serum or Plasma</td><td>2.0</td><td>0.9 - 1.3</td><td>H</td><td>mg/dL</td></tr></table></div>"
        },
        "status": "final",
        "subject": {
          "reference": "urn:uuid:707110c9-87e9-4bf1-8f2f-be96256478d5",
          "display": "Θεμιστοκλής Λιναρδάκη"
        },
        "effectiveDateTime": "2020-11-04T06:16:00Z",
        "specimen": {
          "reference": "urn:uuid:2eb6ec91-9372-4b6b-b28d-2c6d40e9cad7"
        }
      }
    },
    {
      "fullUrl": "urn:uuid:238983c3-8e0a-43af-a06c-a7aa89febcf7",
      "resource": {
        "resourceType": "Observation",
        "id": "238983c3-8e0a-43af-a06c-a7aa89febcf7",
        "meta": {
          "profile": [
            "http://hl7.eu/fhir/laboratory/StructureDefinition/Observation-resultslab-eu-lab"
          ]
        },
        "performer": [
          {
            "display": "The Central European Lab"
          }
        ],
        "category": [
          {
            "coding": [
              {
                "system": "http://terminology.hl7.org/CodeSystem/observation-category",
                "code": "laboratory"
              }
            ]
          }
        ],
        "code": {
          "coding": [
            {
              "code": "17861-6",
              "system": "http://loinc.org",
              "display": "Calcium [Mass/volume] in Serum or Plasma"
            }
          ],
          "text": "Calcium [Mass/volume] in Serum or Plasma"
        },
        "valueQuantity": {
          "system": "http://unitsofmeasure.org",
          "value": 9.8,
          "unit": "mg/dL",
          "code": "mg/dL"
        },
        "referenceRange": [
          {
            "low": {
              "value": 8.5,
              "code": "mg/dL",
              "system": "http://unitsofmeasure.org"
            }
          },
          {
            "high": {
              "value": 10.5,
              "code": "mg/dL",
              "system": "http://unitsofmeasure.org"
            }
          }
        ],
        "text": {
          "status": "generated",
          "div": "<div xmlns=\"http://www.w3.org/1999/xhtml\"><table class=\"hl7__eu__lab__report\"><tr><th>Test</th><th>04-Nov-2020</th><th>Reference&#xA0;Range</th><th>Unit</th></tr><tr><td>Calcium [Mass/volume] in Serum or Plasma</td><td>9.8</td><td>8.5 - 10.5</td><td></td><td>mg/dL</td></tr></table></div>"
        },
        "status": "final",
        "subject": {
          "reference": "urn:uuid:707110c9-87e9-4bf1-8f2f-be96256478d5",
          "display": "Θεμιστοκλής Λιναρδάκη"
        },
        "effectiveDateTime": "2020-11-04T06:16:00Z",
        "specimen": {
          "reference": "urn:uuid:2eb6ec91-9372-4b6b-b28d-2c6d40e9cad7"
        }
      }
    },
    {
      "fullUrl": "urn:uuid:c637e320-c87c-40ae-a77e-b99c9f4054a0",
      "resource": {
        "resourceType": "Observation",
        "id": "c637e320-c87c-40ae-a77e-b99c9f4054a0",
        "meta": {
          "profile": [
            "http://hl7.eu/fhir/laboratory/StructureDefinition/Observation-resultslab-eu-lab"
          ]
        },
        "performer": [
          {
            "display": "The Central European Lab"
          }
        ],
        "category": [
          {
            "coding": [
              {
                "system": "http://terminology.hl7.org/CodeSystem/observation-category",
                "code": "laboratory"
              }
            ]
          }
        ],
        "code": {
          "coding": [
            {
              "code": "2951-2",
              "system": "http://loinc.org",
              "display": "Sodium [Moles/volume] in Serum or Plasma"
            }
          ],
          "text": "Sodium [Moles/volume] in Serum or Plasma"
        },
        "valueQuantity": {
          "system": "http://unitsofmeasure.org",
          "value": 141.2,
          "unit": "mmol/L",
          "code": "mmol/L"
        },
        "referenceRange": [
          {
            "low": {
              "value": 135,
              "code": "mmol/L",
              "system": "http://unitsofmeasure.org"
            }
          },
          {
            "high": {
              "value": 145,
              "code": "mmol/L",
              "system": "http://unitsofmeasure.org"
            }
          }
        ],
        "text": {
          "status": "generated",
          "div": "<div xmlns=\"http://www.w3.org/1999/xhtml\"><table class=\"hl7__eu__lab__report\"><tr><th>Test</th><th>04-Nov-2020</th><th>Reference&#xA0;Range</th><th>Unit</th></tr><tr><td>Sodium [Moles/volume] in Serum or Plasma</td><td>141.2</td><td>135 - 145</td><td></td><td>mmol/L</td></tr></table></div>"
        },
        "status": "final",
        "subject": {
          "reference": "urn:uuid:707110c9-87e9-4bf1-8f2f-be96256478d5",
          "display": "Θεμιστοκλής Λιναρδάκη"
        },
        "effectiveDateTime": "2020-11-04T06:16:00Z",
        "specimen": {
          "reference": "urn:uuid:2eb6ec91-9372-4b6b-b28d-2c6d40e9cad7"
        }
      }
    },
    {
      "fullUrl": "urn:uuid:d5883705-9a91-426c-951d-ff14f5a2b9ca",
      "resource": {
        "resourceType": "Observation",
        "id": "d5883705-9a91-426c-951d-ff14f5a2b9ca",
        "meta": {
          "profile": [
            "http://hl7.eu/fhir/laboratory/StructureDefinition/Observation-resultslab-eu-lab"
          ]
        },
        "performer": [
          {
            "display": "The Central European Lab"
          }
        ],
        "category": [
          {
            "coding": [
              {
                "system": "http://terminology.hl7.org/CodeSystem/observation-category",
                "code": "laboratory"
              }
            ]
          }
        ],
        "code": {
          "coding": [
            {
              "code": "2823-3",
              "system": "http://loinc.org",
              "display": "Potassium [Moles/volume] in Serum or Plasma"
            }
          ],
          "text": "Potassium [Moles/volume] in Serum or Plasma"
        },
        "valueQuantity": {
          "system": "http://unitsofmeasure.org",
          "value": 4.5,
          "unit": "mmol/L",
          "code": "mmol/L"
        },
        "referenceRange": [
          {
            "low": {
              "value": 3.5,
              "code": "mmol/L",
              "system": "http://unitsofmeasure.org"
            }
          },
          {
            "high": {
              "value": 5,
              "code": "mmol/L",
              "system": "http://unitsofmeasure.org"
            }
          }
        ],
        "text": {
          "status": "generated",
          "div": "<div xmlns=\"http://www.w3.org/1999/xhtml\"><table class=\"hl7__eu__lab__report\"><tr><th>Test</th><th>04-Nov-2020</th><th>Reference&#xA0;Range</th><th>Unit</th></tr><tr><td>Potassium [Moles/volume] in Serum or Plasma</td><td>4.5</td><td>3.5 - 5</td><td></td><td>mmol/L</td></tr></table></div>"
        },
        "status": "final",
        "subject": {
          "reference": "urn:uuid:707110c9-87e9-4bf1-8f2f-be96256478d5",
          "display": "Θεμιστοκλής Λιναρδάκη"
        },
        "effectiveDateTime": "2020-11-04T06:16:00Z",
        "specimen": {
          "reference": "urn:uuid:2eb6ec91-9372-4b6b-b28d-2c6d40e9cad7"
        }
      }
    },
    {
      "fullUrl": "urn:uuid:06ece7ea-7ce4-4ec4-a80f-5e25357bcf3b",
      "resource": {
        "resourceType": "Observation",
        "id": "06ece7ea-7ce4-4ec4-a80f-5e25357bcf3b",
        "meta": {
          "profile": [
            "http://hl7.eu/fhir/laboratory/StructureDefinition/Observation-resultslab-eu-lab"
          ]
        },
        "performer": [
          {
            "display": "The Central European Lab"
          }
        ],
        "category": [
          {
            "coding": [
              {
                "system": "http://terminology.hl7.org/CodeSystem/observation-category",
                "code": "laboratory"
              }
            ]
          }
        ],
        "code": {
          "coding": [
            {
              "code": "2075-0",
              "system": "http://loinc.org",
              "display": "Chloride [Moles/volume] in Serum or Plasma"
            }
          ],
          "text": "Chloride [Moles/volume] in Serum or Plasma"
        },
        "valueQuantity": {
          "system": "http://unitsofmeasure.org",
          "value": 106.3,
          "unit": "mmol/L",
          "code": "mmol/L"
        },
        "referenceRange": [
          {
            "low": {
              "value": 98,
              "code": "mmol/L",
              "system": "http://unitsofmeasure.org"
            }
          },
          {
            "high": {
              "value": 108,
              "code": "mmol/L",
              "system": "http://unitsofmeasure.org"
            }
          }
        ],
        "text": {
          "status": "generated",
          "div": "<div xmlns=\"http://www.w3.org/1999/xhtml\"><table class=\"hl7__eu__lab__report\"><tr><th>Test</th><th>04-Nov-2020</th><th>Reference&#xA0;Range</th><th>Unit</th></tr><tr><td>Chloride [Moles/volume] in Serum or Plasma</td><td>106.3</td><td>98 - 108</td><td></td><td>mmol/L</td></tr></table></div>"
        },
        "status": "final",
        "subject": {
          "reference": "urn:uuid:707110c9-87e9-4bf1-8f2f-be96256478d5",
          "display": "Θεμιστοκλής Λιναρδάκη"
        },
        "effectiveDateTime": "2020-11-04T06:16:00Z",
        "specimen": {
          "reference": "urn:uuid:2eb6ec91-9372-4b6b-b28d-2c6d40e9cad7"
        }
      }
    },
    {
      "fullUrl": "urn:uuid:d32478e5-7b0c-4892-958d-16a3458b25f4",
      "resource": {
        "resourceType": "Observation",
        "id": "d32478e5-7b0c-4892-958d-16a3458b25f4",
        "meta": {
          "profile": [
            "http://hl7.eu/fhir/laboratory/StructureDefinition/Observation-resultslab-eu-lab"
          ]
        },
        "performer": [
          {
            "display": "The Central European Lab"
          }
        ],
        "category": [
          {
            "coding": [
              {
                "system": "http://terminology.hl7.org/CodeSystem/observation-category",
                "code": "laboratory"
              }
            ]
          }
        ],
        "code": {
          "coding": [
            {
              "code": "2028-9",
              "system": "http://loinc.org",
              "display": "Carbon dioxide, total [Moles/volume] in Serum or Plasma"
            }
          ],
          "text": "Carbon dioxide, total [Moles/volume] in Serum or Plasma"
        },
        "valueQuantity": {
          "system": "http://unitsofmeasure.org",
          "value": 23.7,
          "unit": "mmol/L",
          "code": "mmol/L"
        },
        "referenceRange": [
          {
            "low": {
              "value": 22,
              "code": "mmol/L",
              "system": "http://unitsofmeasure.org"
            }
          },
          {
            "high": {
              "value": 29,
              "code": "mmol/L",
              "system": "http://unitsofmeasure.org"
            }
          }
        ],
        "text": {
          "status": "generated",
          "div": "<div xmlns=\"http://www.w3.org/1999/xhtml\"><table class=\"hl7__eu__lab__report\"><tr><th>Test</th><th>04-Nov-2020</th><th>Reference&#xA0;Range</th><th>Unit</th></tr><tr><td>Carbon dioxide, total [Moles/volume] in Serum or Plasma</td><td>23.7</td><td>22 - 29</td><td></td><td>mmol/L</td></tr></table></div>"
        },
        "status": "final",
        "subject": {
          "reference": "urn:uuid:707110c9-87e9-4bf1-8f2f-be96256478d5",
          "display": "Θεμιστοκλής Λιναρδάκη"
        },
        "effectiveDateTime": "2020-11-04T06:16:00Z",
        "specimen": {
          "reference": "urn:uuid:2eb6ec91-9372-4b6b-b28d-2c6d40e9cad7"
        }
      }
    },
    {
      "fullUrl": "urn:uuid:674afbcf-b9f0-4fda-b927-7a7efc5be5a0",
      "resource": {
        "resourceType": "Observation",
        "id": "674afbcf-b9f0-4fda-b927-7a7efc5be5a0",
        "meta": {
          "profile": [
            "http://hl7.eu/fhir/laboratory/StructureDefinition/Observation-resultslab-eu-lab"
          ]
        },
        "performer": [
          {
            "display": "The Central European Lab"
          }
        ],
        "category": [
          {
            "coding": [
              {
                "system": "http://terminology.hl7.org/CodeSystem/observation-category",
                "code": "laboratory"
              }
            ]
          }
        ],
        "code": {
          "coding": [
            {
              "code": "5767-9",
              "system": "http://loinc.org",
              "display": "Appearance of Urine"
            }
          ],
          "text": "Appearance of Urine"
        },
        "text": {
          "status": "generated",
          "div": "<div xmlns=\"http://www.w3.org/1999/xhtml\"><table class=\"hl7__eu__lab__report\"><tr><th>Test</th><th>04-Nov-2020</th><th>Reference&#xA0;Range</th><th>Unit</th></tr><tr><td>Appearance of Urine</td></tr></table></div>"
        },
        "status": "final",
        "subject": {
          "reference": "urn:uuid:707110c9-87e9-4bf1-8f2f-be96256478d5",
          "display": "Θεμιστοκλής Λιναρδάκη"
        },
        "effectiveDateTime": "2020-11-04T06:16:00Z",
        "specimen": {
          "reference": "urn:uuid:90235db2-3cf0-4e15-b2a8-0f981abe9be6"
        }
      }
    },
    {
      "fullUrl": "urn:uuid:dc355de5-ffa2-45f0-998b-2619cf251c29",
      "resource": {
        "resourceType": "Observation",
        "id": "dc355de5-ffa2-45f0-998b-2619cf251c29",
        "meta": {
          "profile": [
            "http://hl7.eu/fhir/laboratory/StructureDefinition/Observation-resultslab-eu-lab"
          ]
        },
        "performer": [
          {
            "display": "The Central European Lab"
          }
        ],
        "category": [
          {
            "coding": [
              {
                "system": "http://terminology.hl7.org/CodeSystem/observation-category",
                "code": "laboratory"
              }
            ]
          }
        ],
        "code": {
          "coding": [
            {
              "code": "34533-0",
              "system": "http://loinc.org",
              "display": "Odor of Urine"
            }
          ],
          "text": "Odor of Urine"
        },
        "text": {
          "status": "generated",
          "div": "<div xmlns=\"http://www.w3.org/1999/xhtml\"><table class=\"hl7__eu__lab__report\"><tr><th>Test</th><th>04-Nov-2020</th><th>Reference&#xA0;Range</th><th>Unit</th></tr><tr><td>Odor of Urine</td></tr></table></div>"
        },
        "status": "final",
        "subject": {
          "reference": "urn:uuid:707110c9-87e9-4bf1-8f2f-be96256478d5",
          "display": "Θεμιστοκλής Λιναρδάκη"
        },
        "effectiveDateTime": "2020-11-04T06:16:00Z",
        "specimen": {
          "reference": "urn:uuid:90235db2-3cf0-4e15-b2a8-0f981abe9be6"
        }
      }
    },
    {
      "fullUrl": "urn:uuid:c140ead9-fa1f-41ea-9911-e7f582d2a44c",
      "resource": {
        "resourceType": "Observation",
        "id": "c140ead9-fa1f-41ea-9911-e7f582d2a44c",
        "meta": {
          "profile": [
            "http://hl7.eu/fhir/laboratory/StructureDefinition/Observation-resultslab-eu-lab"
          ]
        },
        "performer": [
          {
            "display": "The Central European Lab"
          }
        ],
        "category": [
          {
            "coding": [
              {
                "system": "http://terminology.hl7.org/CodeSystem/observation-category",
                "code": "laboratory"
              }
            ]
          }
        ],
        "code": {
          "coding": [
            {
              "code": "32167-9",
              "system": "http://loinc.org",
              "display": "Clarity of Urine"
            }
          ],
          "text": "Clarity of Urine"
        },
        "text": {
          "status": "generated",
          "div": "<div xmlns=\"http://www.w3.org/1999/xhtml\"><table class=\"hl7__eu__lab__report\"><tr><th>Test</th><th>04-Nov-2020</th><th>Reference&#xA0;Range</th><th>Unit</th></tr><tr><td>Clarity of Urine</td></tr></table></div>"
        },
        "status": "final",
        "subject": {
          "reference": "urn:uuid:707110c9-87e9-4bf1-8f2f-be96256478d5",
          "display": "Θεμιστοκλής Λιναρδάκη"
        },
        "effectiveDateTime": "2020-11-04T06:16:00Z",
        "specimen": {
          "reference": "urn:uuid:90235db2-3cf0-4e15-b2a8-0f981abe9be6"
        }
      }
    },
    {
      "fullUrl": "urn:uuid:dc65c871-2112-4f4c-9e87-6242b6dbcdab",
      "resource": {
        "resourceType": "Observation",
        "id": "dc65c871-2112-4f4c-9e87-6242b6dbcdab",
        "meta": {
          "profile": [
            "http://hl7.eu/fhir/laboratory/StructureDefinition/Observation-resultslab-eu-lab"
          ]
        },
        "performer": [
          {
            "display": "The Central European Lab"
          }
        ],
        "category": [
          {
            "coding": [
              {
                "system": "http://terminology.hl7.org/CodeSystem/observation-category",
                "code": "laboratory"
              }
            ]
          }
        ],
        "code": {
          "coding": [
            {
              "code": "5778-6",
              "system": "http://loinc.org",
              "display": "Color of Urine"
            }
          ],
          "text": "Color of Urine"
        },
        "text": {
          "status": "generated",
          "div": "<div xmlns=\"http://www.w3.org/1999/xhtml\"><table class=\"hl7__eu__lab__report\"><tr><th>Test</th><th>04-Nov-2020</th><th>Reference&#xA0;Range</th><th>Unit</th></tr><tr><td>Color of Urine</td></tr></table></div>"
        },
        "status": "final",
        "subject": {
          "reference": "urn:uuid:707110c9-87e9-4bf1-8f2f-be96256478d5",
          "display": "Θεμιστοκλής Λιναρδάκη"
        },
        "effectiveDateTime": "2020-11-04T06:16:00Z",
        "specimen": {
          "reference": "urn:uuid:90235db2-3cf0-4e15-b2a8-0f981abe9be6"
        }
      }
    },
    {
      "fullUrl": "urn:uuid:a1dfcb4b-7794-4877-9a8f-44fab8b9e509",
      "resource": {
        "resourceType": "Observation",
        "id": "a1dfcb4b-7794-4877-9a8f-44fab8b9e509",
        "meta": {
          "profile": [
            "http://hl7.eu/fhir/laboratory/StructureDefinition/Observation-resultslab-eu-lab"
          ]
        },
        "performer": [
          {
            "display": "The Central European Lab"
          }
        ],
        "category": [
          {
            "coding": [
              {
                "system": "http://terminology.hl7.org/CodeSystem/observation-category",
                "code": "laboratory"
              }
            ]
          }
        ],
        "code": {
          "coding": [
            {
              "code": "5792-7",
              "system": "http://loinc.org",
              "display": "Glucose [Mass/volume] in Urine by Test strip"
            }
          ],
          "text": "Glucose [Mass/volume] in Urine by Test strip"
        },
        "valueQuantity": {
          "system": "http://unitsofmeasure.org",
          "value": 0.5,
          "unit": "mg/dL",
          "code": "mg/dL"
        },
        "referenceRange": [
          {
            "low": {
              "value": 0,
              "code": "mg/dL",
              "system": "http://unitsofmeasure.org"
            }
          },
          {
            "high": {
              "value": 0.8,
              "code": "mg/dL",
              "system": "http://unitsofmeasure.org"
            }
          }
        ],
        "text": {
          "status": "generated",
          "div": "<div xmlns=\"http://www.w3.org/1999/xhtml\"><table class=\"hl7__eu__lab__report\"><tr><th>Test</th><th>04-Nov-2020</th><th>Reference&#xA0;Range</th><th>Unit</th></tr><tr><td>Glucose [Mass/volume] in Urine by Test strip</td><td>0.5</td><td>0 - 0.8</td><td></td><td>mg/dL</td></tr></table></div>"
        },
        "status": "final",
        "subject": {
          "reference": "urn:uuid:707110c9-87e9-4bf1-8f2f-be96256478d5",
          "display": "Θεμιστοκλής Λιναρδάκη"
        },
        "effectiveDateTime": "2020-11-04T06:16:00Z",
        "specimen": {
          "reference": "urn:uuid:90235db2-3cf0-4e15-b2a8-0f981abe9be6"
        }
      }
    },
    {
      "fullUrl": "urn:uuid:b9a639e3-891d-4714-a46a-d446d87e9ff3",
      "resource": {
        "resourceType": "Observation",
        "id": "b9a639e3-891d-4714-a46a-d446d87e9ff3",
        "meta": {
          "profile": [
            "http://hl7.eu/fhir/laboratory/StructureDefinition/Observation-resultslab-eu-lab"
          ]
        },
        "performer": [
          {
            "display": "The Central European Lab"
          }
        ],
        "category": [
          {
            "coding": [
              {
                "system": "http://terminology.hl7.org/CodeSystem/observation-category",
                "code": "laboratory"
              }
            ]
          }
        ],
        "code": {
          "coding": [
            {
              "code": "25428-4",
              "system": "http://loinc.org",
              "display": "Glucose [Presence] in Urine by Test strip"
            }
          ],
          "text": "Glucose [Presence] in Urine by Test strip"
        },
        "text": {
          "status": "generated",
          "div": "<div xmlns=\"http://www.w3.org/1999/xhtml\"><table class=\"hl7__eu__lab__report\"><tr><th>Test</th><th>04-Nov-2020</th><th>Reference&#xA0;Range</th><th>Unit</th></tr><tr><td>Glucose [Presence] in Urine by Test strip</td></tr></table></div>"
        },
        "status": "final",
        "subject": {
          "reference": "urn:uuid:707110c9-87e9-4bf1-8f2f-be96256478d5",
          "display": "Θεμιστοκλής Λιναρδάκη"
        },
        "effectiveDateTime": "2020-11-04T06:16:00Z",
        "specimen": {
          "reference": "urn:uuid:90235db2-3cf0-4e15-b2a8-0f981abe9be6"
        }
      }
    },
    {
      "fullUrl": "urn:uuid:a798a384-4f8d-415f-aab9-7f2b9f367e8a",
      "resource": {
        "resourceType": "Observation",
        "id": "a798a384-4f8d-415f-aab9-7f2b9f367e8a",
        "meta": {
          "profile": [
            "http://hl7.eu/fhir/laboratory/StructureDefinition/Observation-resultslab-eu-lab"
          ]
        },
        "performer": [
          {
            "display": "The Central European Lab"
          }
        ],
        "category": [
          {
            "coding": [
              {
                "system": "http://terminology.hl7.org/CodeSystem/observation-category",
                "code": "laboratory"
              }
            ]
          }
        ],
        "code": {
          "coding": [
            {
              "code": "20505-4",
              "system": "http://loinc.org",
              "display": "Bilirubin.total [Mass/volume] in Urine by Test strip"
            }
          ],
          "text": "Bilirubin.total [Mass/volume] in Urine by Test strip"
        },
        "valueQuantity": {
          "system": "http://unitsofmeasure.org",
          "value": 1.1,
          "unit": "mg/dL",
          "code": "mg/dL"
        },
        "referenceRange": [
          {
            "low": {
              "value": 0.2,
              "code": "mg/dL",
              "system": "http://unitsofmeasure.org"
            }
          },
          {
            "high": {
              "value": 1,
              "code": "mg/dL",
              "system": "http://unitsofmeasure.org"
            }
          }
        ],
        "interpretation": [
          {
            "coding": [
              {
                "code": "H",
                "system": "http://terminology.hl7.org/CodeSystem/v3-ObservationInterpretation",
                "display": "High"
              }
            ]
          }
        ],
        "text": {
          "status": "generated",
          "div": "<div xmlns=\"http://www.w3.org/1999/xhtml\"><table class=\"hl7__eu__lab__report\"><tr><th>Test</th><th>04-Nov-2020</th><th>Reference&#xA0;Range</th><th>Unit</th></tr><tr><td>Bilirubin.total [Mass/volume] in Urine by Test strip</td><td>1.1</td><td>0.2 - 1</td><td>H</td><td>mg/dL</td></tr></table></div>"
        },
        "status": "final",
        "subject": {
          "reference": "urn:uuid:707110c9-87e9-4bf1-8f2f-be96256478d5",
          "display": "Θεμιστοκλής Λιναρδάκη"
        },
        "effectiveDateTime": "2020-11-04T06:16:00Z",
        "specimen": {
          "reference": "urn:uuid:90235db2-3cf0-4e15-b2a8-0f981abe9be6"
        }
      }
    },
    {
      "fullUrl": "urn:uuid:87b3a35a-342e-48f4-b100-86cdc0f5d5d5",
      "resource": {
        "resourceType": "Observation",
        "id": "87b3a35a-342e-48f4-b100-86cdc0f5d5d5",
        "meta": {
          "profile": [
            "http://hl7.eu/fhir/laboratory/StructureDefinition/Observation-resultslab-eu-lab"
          ]
        },
        "performer": [
          {
            "display": "The Central European Lab"
          }
        ],
        "category": [
          {
            "coding": [
              {
                "system": "http://terminology.hl7.org/CodeSystem/observation-category",
                "code": "laboratory"
              }
            ]
          }
        ],
        "code": {
          "coding": [
            {
              "code": "5770-3",
              "system": "http://loinc.org",
              "display": "Bilirubin.total [Presence] in Urine by Test strip"
            }
          ],
          "text": "Bilirubin.total [Presence] in Urine by Test strip"
        },
        "text": {
          "status": "generated",
          "div": "<div xmlns=\"http://www.w3.org/1999/xhtml\"><table class=\"hl7__eu__lab__report\"><tr><th>Test</th><th>04-Nov-2020</th><th>Reference&#xA0;Range</th><th>Unit</th></tr><tr><td>Bilirubin.total [Presence] in Urine by Test strip</td></tr></table></div>"
        },
        "status": "final",
        "subject": {
          "reference": "urn:uuid:707110c9-87e9-4bf1-8f2f-be96256478d5",
          "display": "Θεμιστοκλής Λιναρδάκη"
        },
        "effectiveDateTime": "2020-11-04T06:16:00Z",
        "specimen": {
          "reference": "urn:uuid:90235db2-3cf0-4e15-b2a8-0f981abe9be6"
        }
      }
    },
    {
      "fullUrl": "urn:uuid:209d16ad-cbbb-41f7-be46-1d0ef16b6c52",
      "resource": {
        "resourceType": "Observation",
        "id": "209d16ad-cbbb-41f7-be46-1d0ef16b6c52",
        "meta": {
          "profile": [
            "http://hl7.eu/fhir/laboratory/StructureDefinition/Observation-resultslab-eu-lab"
          ]
        },
        "performer": [
          {
            "display": "The Central European Lab"
          }
        ],
        "category": [
          {
            "coding": [
              {
                "system": "http://terminology.hl7.org/CodeSystem/observation-category",
                "code": "laboratory"
              }
            ]
          }
        ],
        "code": {
          "coding": [
            {
              "code": "5797-6",
              "system": "http://loinc.org",
              "display": "Ketones [Mass/volume] in Urine by Test strip"
            }
          ],
          "text": "Ketones [Mass/volume] in Urine by Test strip"
        },
        "valueQuantity": {
          "system": "http://unitsofmeasure.org",
          "value": 16.3,
          "unit": "mg/dL",
          "code": "mg/dL"
        },
        "referenceRange": [
          {
            "low": {
              "value": 0,
              "code": "mg/dL",
              "system": "http://unitsofmeasure.org"
            }
          },
          {
            "high": {
              "value": 5,
              "code": "mg/dL",
              "system": "http://unitsofmeasure.org"
            }
          }
        ],
        "interpretation": [
          {
            "coding": [
              {
                "code": "H",
                "system": "http://terminology.hl7.org/CodeSystem/v3-ObservationInterpretation",
                "display": "High"
              }
            ]
          }
        ],
        "text": {
          "status": "generated",
          "div": "<div xmlns=\"http://www.w3.org/1999/xhtml\"><table class=\"hl7__eu__lab__report\"><tr><th>Test</th><th>04-Nov-2020</th><th>Reference&#xA0;Range</th><th>Unit</th></tr><tr><td>Ketones [Mass/volume] in Urine by Test strip</td><td>16.3</td><td>0 - 5</td><td>H</td><td>mg/dL</td></tr></table></div>"
        },
        "status": "final",
        "subject": {
          "reference": "urn:uuid:707110c9-87e9-4bf1-8f2f-be96256478d5",
          "display": "Θεμιστοκλής Λιναρδάκη"
        },
        "effectiveDateTime": "2020-11-04T06:16:00Z",
        "specimen": {
          "reference": "urn:uuid:90235db2-3cf0-4e15-b2a8-0f981abe9be6"
        }
      }
    },
    {
      "fullUrl": "urn:uuid:7ced0880-bec1-45ef-a96e-f599e3697a2e",
      "resource": {
        "resourceType": "Observation",
        "id": "7ced0880-bec1-45ef-a96e-f599e3697a2e",
        "meta": {
          "profile": [
            "http://hl7.eu/fhir/laboratory/StructureDefinition/Observation-resultslab-eu-lab"
          ]
        },
        "performer": [
          {
            "display": "The Central European Lab"
          }
        ],
        "category": [
          {
            "coding": [
              {
                "system": "http://terminology.hl7.org/CodeSystem/observation-category",
                "code": "laboratory"
              }
            ]
          }
        ],
        "code": {
          "coding": [
            {
              "code": "2514-8",
              "system": "http://loinc.org",
              "display": "Ketones [Presence] in Urine by Test strip"
            }
          ],
          "text": "Ketones [Presence] in Urine by Test strip"
        },
        "text": {
          "status": "generated",
          "div": "<div xmlns=\"http://www.w3.org/1999/xhtml\"><table class=\"hl7__eu__lab__report\"><tr><th>Test</th><th>04-Nov-2020</th><th>Reference&#xA0;Range</th><th>Unit</th></tr><tr><td>Ketones [Presence] in Urine by Test strip</td></tr></table></div>"
        },
        "status": "final",
        "subject": {
          "reference": "urn:uuid:707110c9-87e9-4bf1-8f2f-be96256478d5",
          "display": "Θεμιστοκλής Λιναρδάκη"
        },
        "effectiveDateTime": "2020-11-04T06:16:00Z",
        "specimen": {
          "reference": "urn:uuid:90235db2-3cf0-4e15-b2a8-0f981abe9be6"
        }
      }
    },
    {
      "fullUrl": "urn:uuid:b6b8627c-ce56-4cfb-bb56-dfe1aa2bffd8",
      "resource": {
        "resourceType": "Observation",
        "id": "b6b8627c-ce56-4cfb-bb56-dfe1aa2bffd8",
        "meta": {
          "profile": [
            "http://hl7.eu/fhir/laboratory/StructureDefinition/Observation-resultslab-eu-lab"
          ]
        },
        "performer": [
          {
            "display": "The Central European Lab"
          }
        ],
        "category": [
          {
            "coding": [
              {
                "system": "http://terminology.hl7.org/CodeSystem/observation-category",
                "code": "laboratory"
              }
            ]
          }
        ],
        "code": {
          "coding": [
            {
              "code": "5811-5",
              "system": "http://loinc.org",
              "display": "Specific gravity of Urine by Test strip"
            }
          ],
          "text": "Specific gravity of Urine by Test strip"
        },
        "valueQuantity": {
          "system": "http://unitsofmeasure.org",
          "value": 1,
          "unit": "{nominal}",
          "code": "{nominal}"
        },
        "referenceRange": [
          {
            "low": {
              "value": 1.005,
              "code": "g/mL",
              "system": "http://unitsofmeasure.org"
            }
          },
          {
            "high": {
              "value": 1.03,
              "code": "g/mL",
              "system": "http://unitsofmeasure.org"
            }
          }
        ],
        "interpretation": [
          {
            "coding": [
              {
                "code": "L",
                "system": "http://terminology.hl7.org/CodeSystem/v3-ObservationInterpretation",
                "display": "Low"
              }
            ]
          }
        ],
        "text": {
          "status": "generated",
          "div": "<div xmlns=\"http://www.w3.org/1999/xhtml\"><table class=\"hl7__eu__lab__report\"><tr><th>Test</th><th>04-Nov-2020</th><th>Reference&#xA0;Range</th><th>Unit</th></tr><tr><td>Specific gravity of Urine by Test strip</td><td>1.0</td><td>1.005 - 1.03</td><td>L</td><td>{nominal}</td></tr></table></div>"
        },
        "status": "final",
        "subject": {
          "reference": "urn:uuid:707110c9-87e9-4bf1-8f2f-be96256478d5",
          "display": "Θεμιστοκλής Λιναρδάκη"
        },
        "effectiveDateTime": "2020-11-04T06:16:00Z",
        "specimen": {
          "reference": "urn:uuid:90235db2-3cf0-4e15-b2a8-0f981abe9be6"
        }
      }
    },
    {
      "fullUrl": "urn:uuid:f4dd0baf-b25f-4aef-9673-fc42b8f4f48f",
      "resource": {
        "resourceType": "Observation",
        "id": "f4dd0baf-b25f-4aef-9673-fc42b8f4f48f",
        "meta": {
          "profile": [
            "http://hl7.eu/fhir/laboratory/StructureDefinition/Observation-resultslab-eu-lab"
          ]
        },
        "performer": [
          {
            "display": "The Central European Lab"
          }
        ],
        "category": [
          {
            "coding": [
              {
                "system": "http://terminology.hl7.org/CodeSystem/observation-category",
                "code": "laboratory"
              }
            ]
          }
        ],
        "code": {
          "coding": [
            {
              "code": "5803-2",
              "system": "http://loinc.org",
              "display": "pH of Urine by Test strip"
            }
          ],
          "text": "pH of Urine by Test strip"
        },
        "valueQuantity": {
          "system": "http://unitsofmeasure.org",
          "value": 6.1,
          "unit": "pH",
          "code": "pH"
        },
        "referenceRange": [
          {
            "low": {
              "value": 4.6,
              "code": "pH",
              "system": "http://unitsofmeasure.org"
            }
          },
          {
            "high": {
              "value": 7,
              "code": "pH",
              "system": "http://unitsofmeasure.org"
            }
          }
        ],
        "text": {
          "status": "generated",
          "div": "<div xmlns=\"http://www.w3.org/1999/xhtml\"><table class=\"hl7__eu__lab__report\"><tr><th>Test</th><th>04-Nov-2020</th><th>Reference&#xA0;Range</th><th>Unit</th></tr><tr><td>pH of Urine by Test strip</td><td>6.1</td><td>4.6 - 7</td><td></td><td>pH</td></tr></table></div>"
        },
        "status": "final",
        "subject": {
          "reference": "urn:uuid:707110c9-87e9-4bf1-8f2f-be96256478d5",
          "display": "Θεμιστοκλής Λιναρδάκη"
        },
        "effectiveDateTime": "2020-11-04T06:16:00Z",
        "specimen": {
          "reference": "urn:uuid:90235db2-3cf0-4e15-b2a8-0f981abe9be6"
        }
      }
    },
    {
      "fullUrl": "urn:uuid:db5b8fff-c183-4850-a59c-ad1c74474443",
      "resource": {
        "resourceType": "Observation",
        "id": "db5b8fff-c183-4850-a59c-ad1c74474443",
        "meta": {
          "profile": [
            "http://hl7.eu/fhir/laboratory/StructureDefinition/Observation-resultslab-eu-lab"
          ]
        },
        "performer": [
          {
            "display": "The Central European Lab"
          }
        ],
        "category": [
          {
            "coding": [
              {
                "system": "http://terminology.hl7.org/CodeSystem/observation-category",
                "code": "laboratory"
              }
            ]
          }
        ],
        "code": {
          "coding": [
            {
              "code": "5804-0",
              "system": "http://loinc.org",
              "display": "Protein [Mass/volume] in Urine by Test strip"
            }
          ],
          "text": "Protein [Mass/volume] in Urine by Test strip"
        },
        "valueQuantity": {
          "system": "http://unitsofmeasure.org",
          "value": 274.5,
          "unit": "mg/dL",
          "code": "mg/dL"
        },
        "referenceRange": [
          {
            "low": {
              "value": 0,
              "code": "mg/dL",
              "system": "http://unitsofmeasure.org"
            }
          },
          {
            "high": {
              "value": 150,
              "code": "mg/dL",
              "system": "http://unitsofmeasure.org"
            }
          }
        ],
        "interpretation": [
          {
            "coding": [
              {
                "code": "H",
                "system": "http://terminology.hl7.org/CodeSystem/v3-ObservationInterpretation",
                "display": "High"
              }
            ]
          }
        ],
        "text": {
          "status": "generated",
          "div": "<div xmlns=\"http://www.w3.org/1999/xhtml\"><table class=\"hl7__eu__lab__report\"><tr><th>Test</th><th>04-Nov-2020</th><th>Reference&#xA0;Range</th><th>Unit</th></tr><tr><td>Protein [Mass/volume] in Urine by Test strip</td><td>274.5</td><td>0 - 150</td><td>H</td><td>mg/dL</td></tr></table></div>"
        },
        "status": "final",
        "subject": {
          "reference": "urn:uuid:707110c9-87e9-4bf1-8f2f-be96256478d5",
          "display": "Θεμιστοκλής Λιναρδάκη"
        },
        "effectiveDateTime": "2020-11-04T06:16:00Z",
        "specimen": {
          "reference": "urn:uuid:90235db2-3cf0-4e15-b2a8-0f981abe9be6"
        }
      }
    },
    {
      "fullUrl": "urn:uuid:720942d6-53e1-4e30-a547-ec8273903d27",
      "resource": {
        "resourceType": "Observation",
        "id": "720942d6-53e1-4e30-a547-ec8273903d27",
        "meta": {
          "profile": [
            "http://hl7.eu/fhir/laboratory/StructureDefinition/Observation-resultslab-eu-lab"
          ]
        },
        "performer": [
          {
            "display": "The Central European Lab"
          }
        ],
        "category": [
          {
            "coding": [
              {
                "system": "http://terminology.hl7.org/CodeSystem/observation-category",
                "code": "laboratory"
              }
            ]
          }
        ],
        "code": {
          "coding": [
            {
              "code": "20454-5",
              "system": "http://loinc.org",
              "display": "Protein [Presence] in Urine by Test strip"
            }
          ],
          "text": "Protein [Presence] in Urine by Test strip"
        },
        "text": {
          "status": "generated",
          "div": "<div xmlns=\"http://www.w3.org/1999/xhtml\"><table class=\"hl7__eu__lab__report\"><tr><th>Test</th><th>04-Nov-2020</th><th>Reference&#xA0;Range</th><th>Unit</th></tr><tr><td>Protein [Presence] in Urine by Test strip</td></tr></table></div>"
        },
        "status": "final",
        "subject": {
          "reference": "urn:uuid:707110c9-87e9-4bf1-8f2f-be96256478d5",
          "display": "Θεμιστοκλής Λιναρδάκη"
        },
        "effectiveDateTime": "2020-11-04T06:16:00Z",
        "specimen": {
          "reference": "urn:uuid:90235db2-3cf0-4e15-b2a8-0f981abe9be6"
        }
      }
    },
    {
      "fullUrl": "urn:uuid:038c9d9d-8b8c-4be1-af17-c1569f0b457b",
      "resource": {
        "resourceType": "Observation",
        "id": "038c9d9d-8b8c-4be1-af17-c1569f0b457b",
        "meta": {
          "profile": [
            "http://hl7.eu/fhir/laboratory/StructureDefinition/Observation-resultslab-eu-lab"
          ]
        },
        "performer": [
          {
            "display": "The Central European Lab"
          }
        ],
        "category": [
          {
            "coding": [
              {
                "system": "http://terminology.hl7.org/CodeSystem/observation-category",
                "code": "laboratory"
              }
            ]
          }
        ],
        "code": {
          "coding": [
            {
              "code": "5802-4",
              "system": "http://loinc.org",
              "display": "Nitrite [Presence] in Urine by Test strip"
            }
          ],
          "text": "Nitrite [Presence] in Urine by Test strip"
        },
        "text": {
          "status": "generated",
          "div": "<div xmlns=\"http://www.w3.org/1999/xhtml\"><table class=\"hl7__eu__lab__report\"><tr><th>Test</th><th>04-Nov-2020</th><th>Reference&#xA0;Range</th><th>Unit</th></tr><tr><td>Nitrite [Presence] in Urine by Test strip</td></tr></table></div>"
        },
        "status": "final",
        "subject": {
          "reference": "urn:uuid:707110c9-87e9-4bf1-8f2f-be96256478d5",
          "display": "Θεμιστοκλής Λιναρδάκη"
        },
        "effectiveDateTime": "2020-11-04T06:16:00Z",
        "specimen": {
          "reference": "urn:uuid:90235db2-3cf0-4e15-b2a8-0f981abe9be6"
        }
      }
    },
    {
      "fullUrl": "urn:uuid:546aca5d-dfee-48ae-9ba4-658585d8bb67",
      "resource": {
        "resourceType": "Observation",
        "id": "546aca5d-dfee-48ae-9ba4-658585d8bb67",
        "meta": {
          "profile": [
            "http://hl7.eu/fhir/laboratory/StructureDefinition/Observation-resultslab-eu-lab"
          ]
        },
        "performer": [
          {
            "display": "The Central European Lab"
          }
        ],
        "category": [
          {
            "coding": [
              {
                "system": "http://terminology.hl7.org/CodeSystem/observation-category",
                "code": "laboratory"
              }
            ]
          }
        ],
        "code": {
          "coding": [
            {
              "code": "5794-3",
              "system": "http://loinc.org",
              "display": "Hemoglobin [Presence] in Urine by Test strip"
            }
          ],
          "text": "Hemoglobin [Presence] in Urine by Test strip"
        },
        "text": {
          "status": "generated",
          "div": "<div xmlns=\"http://www.w3.org/1999/xhtml\"><table class=\"hl7__eu__lab__report\"><tr><th>Test</th><th>04-Nov-2020</th><th>Reference&#xA0;Range</th><th>Unit</th></tr><tr><td>Hemoglobin [Presence] in Urine by Test strip</td></tr></table></div>"
        },
        "status": "final",
        "subject": {
          "reference": "urn:uuid:707110c9-87e9-4bf1-8f2f-be96256478d5",
          "display": "Θεμιστοκλής Λιναρδάκη"
        },
        "effectiveDateTime": "2020-11-04T06:16:00Z",
        "specimen": {
          "reference": "urn:uuid:90235db2-3cf0-4e15-b2a8-0f981abe9be6"
        }
      }
    },
    {
      "fullUrl": "urn:uuid:f01f6453-2795-45dd-849c-48e79d9068dc",
      "resource": {
        "resourceType": "Observation",
        "id": "f01f6453-2795-45dd-849c-48e79d9068dc",
        "meta": {
          "profile": [
            "http://hl7.eu/fhir/laboratory/StructureDefinition/Observation-resultslab-eu-lab"
          ]
        },
        "performer": [
          {
            "display": "The Central European Lab"
          }
        ],
        "category": [
          {
            "coding": [
              {
                "system": "http://terminology.hl7.org/CodeSystem/observation-category",
                "code": "laboratory"
              }
            ]
          }
        ],
        "code": {
          "coding": [
            {
              "code": "5799-2",
              "system": "http://loinc.org",
              "display": "Leukocyte esterase [Presence] in Urine by Test strip"
            }
          ],
          "text": "Leukocyte esterase [Presence] in Urine by Test strip"
        },
        "text": {
          "status": "generated",
          "div": "<div xmlns=\"http://www.w3.org/1999/xhtml\"><table class=\"hl7__eu__lab__report\"><tr><th>Test</th><th>04-Nov-2020</th><th>Reference&#xA0;Range</th><th>Unit</th></tr><tr><td>Leukocyte esterase [Presence] in Urine by Test strip</td></tr></table></div>"
        },
        "status": "final",
        "subject": {
          "reference": "urn:uuid:707110c9-87e9-4bf1-8f2f-be96256478d5",
          "display": "Θεμιστοκλής Λιναρδάκη"
        },
        "effectiveDateTime": "2020-11-04T06:16:00Z",
        "specimen": {
          "reference": "urn:uuid:90235db2-3cf0-4e15-b2a8-0f981abe9be6"
        }
      }
    },
    {
      "fullUrl": "urn:uuid:cc0b658a-eb22-44c0-9511-95713f2fcfc7",
      "resource": {
        "resourceType": "Observation",
        "id": "cc0b658a-eb22-44c0-9511-95713f2fcfc7",
        "meta": {
          "profile": [
            "http://hl7.eu/fhir/laboratory/StructureDefinition/Observation-resultslab-eu-lab"
          ]
        },
        "performer": [
          {
            "display": "The Central European Lab"
          }
        ],
        "category": [
          {
            "coding": [
              {
                "system": "http://terminology.hl7.org/CodeSystem/observation-category",
                "code": "laboratory"
              }
            ]
          }
        ],
        "code": {
          "coding": [
            {
              "code": "4548-4",
              "system": "http://loinc.org",
              "display": "Hemoglobin A1c/Hemoglobin.total in Blood"
            }
          ],
          "text": "Hemoglobin A1c/Hemoglobin.total in Blood"
        },
        "valueQuantity": {
          "system": "http://unitsofmeasure.org",
          "value": 3.4,
          "unit": "%",
          "code": "%"
        },
        "referenceRange": [
          {
            "low": {
              "value": 4.3,
              "code": "%",
              "system": "http://unitsofmeasure.org"
            }
          },
          {
            "high": {
              "value": 6.4,
              "code": "%",
              "system": "http://unitsofmeasure.org"
            }
          }
        ],
        "interpretation": [
          {
            "coding": [
              {
                "code": "L",
                "system": "http://terminology.hl7.org/CodeSystem/v3-ObservationInterpretation",
                "display": "Low"
              }
            ]
          }
        ],
        "text": {
          "status": "generated",
          "div": "<div xmlns=\"http://www.w3.org/1999/xhtml\"><table class=\"hl7__eu__lab__report\"><tr><th>Test</th><th>04-Nov-2020</th><th>Reference&#xA0;Range</th><th>Unit</th></tr><tr><td>Hemoglobin A1c/Hemoglobin.total in Blood</td><td>3.4</td><td>4.3 - 6.4</td><td>L</td><td>%</td></tr></table></div>"
        },
        "status": "final",
        "subject": {
          "reference": "urn:uuid:707110c9-87e9-4bf1-8f2f-be96256478d5",
          "display": "Θεμιστοκλής Λιναρδάκη"
        },
        "effectiveDateTime": "2020-11-04T06:16:00Z",
        "specimen": {
          "reference": "urn:uuid:aa8f8f4d-b1be-4ba3-a6dc-0048d8a3fbc1"
        }
      }
    },
    {
      "fullUrl": "urn:uuid:59cf2354-2687-48eb-b444-4c6ae224c767",
      "resource": {
        "resourceType": "Observation",
        "id": "59cf2354-2687-48eb-b444-4c6ae224c767",
        "meta": {
          "profile": [
            "http://hl7.eu/fhir/laboratory/StructureDefinition/Observation-resultslab-eu-lab"
          ]
        },
        "performer": [
          {
            "display": "The Central European Lab"
          }
        ],
        "category": [
          {
            "coding": [
              {
                "system": "http://terminology.hl7.org/CodeSystem/observation-category",
                "code": "laboratory"
              }
            ]
          }
        ],
        "code": {
          "coding": [
            {
              "code": "2339-0",
              "system": "http://loinc.org",
              "display": "Glucose [Mass/volume] in Blood"
            }
          ],
          "text": "Glucose [Mass/volume] in Blood"
        },
        "valueQuantity": {
          "system": "http://unitsofmeasure.org",
          "value": 77.1,
          "unit": "mg/dL",
          "code": "mg/dL"
        },
        "referenceRange": [
          {
            "low": {
              "value": 70,
              "code": "mg/dL",
              "system": "http://unitsofmeasure.org"
            }
          },
          {
            "high": {
              "value": 140,
              "code": "mg/dL",
              "system": "http://unitsofmeasure.org"
            }
          }
        ],
        "text": {
          "status": "generated",
          "div": "<div xmlns=\"http://www.w3.org/1999/xhtml\"><table class=\"hl7__eu__lab__report\"><tr><th>Test</th><th>04-Nov-2020</th><th>Reference&#xA0;Range</th><th>Unit</th></tr><tr><td>Glucose [Mass/volume] in Blood</td><td>77.1</td><td>70 - 140</td><td></td><td>mg/dL</td></tr></table></div>"
        },
        "status": "final",
        "subject": {
          "reference": "urn:uuid:707110c9-87e9-4bf1-8f2f-be96256478d5",
          "display": "Θεμιστοκλής Λιναρδάκη"
        },
        "effectiveDateTime": "2020-11-04T06:16:00Z",
        "specimen": {
          "reference": "urn:uuid:aa8f8f4d-b1be-4ba3-a6dc-0048d8a3fbc1"
        }
      }
    },
    {
      "fullUrl": "urn:uuid:69ca04cd-d54e-4f92-8cc7-abd9e8cb4eb5",
      "resource": {
        "resourceType": "Observation",
        "id": "69ca04cd-d54e-4f92-8cc7-abd9e8cb4eb5",
        "meta": {
          "profile": [
            "http://hl7.eu/fhir/laboratory/StructureDefinition/Observation-resultslab-eu-lab"
          ]
        },
        "performer": [
          {
            "display": "The Central European Lab"
          }
        ],
        "category": [
          {
            "coding": [
              {
                "system": "http://terminology.hl7.org/CodeSystem/observation-category",
                "code": "laboratory"
              }
            ]
          }
        ],
        "code": {
          "coding": [
            {
              "code": "6299-2",
              "system": "http://loinc.org",
              "display": "Urea nitrogen [Mass/volume] in Blood"
            }
          ],
          "text": "Urea nitrogen [Mass/volume] in Blood"
        },
        "valueQuantity": {
          "system": "http://unitsofmeasure.org",
          "value": 9.1,
          "unit": "mg/dL",
          "code": "mg/dL"
        },
        "referenceRange": [
          {
            "low": {
              "value": 7,
              "code": "mg/dL",
              "system": "http://unitsofmeasure.org"
            }
          },
          {
            "high": {
              "value": 20,
              "code": "mg/dL",
              "system": "http://unitsofmeasure.org"
            }
          }
        ],
        "text": {
          "status": "generated",
          "div": "<div xmlns=\"http://www.w3.org/1999/xhtml\"><table class=\"hl7__eu__lab__report\"><tr><th>Test</th><th>04-Nov-2020</th><th>Reference&#xA0;Range</th><th>Unit</th></tr><tr><td>Urea nitrogen [Mass/volume] in Blood</td><td>9.1</td><td>7 - 20</td><td></td><td>mg/dL</td></tr></table></div>"
        },
        "status": "final",
        "subject": {
          "reference": "urn:uuid:707110c9-87e9-4bf1-8f2f-be96256478d5",
          "display": "Θεμιστοκλής Λιναρδάκη"
        },
        "effectiveDateTime": "2020-11-04T06:16:00Z",
        "specimen": {
          "reference": "urn:uuid:aa8f8f4d-b1be-4ba3-a6dc-0048d8a3fbc1"
        }
      }
    },
    {
      "fullUrl": "urn:uuid:7102ad94-7c4d-4e4d-bdbe-3ba136aa17f5",
      "resource": {
        "resourceType": "Observation",
        "id": "7102ad94-7c4d-4e4d-bdbe-3ba136aa17f5",
        "meta": {
          "profile": [
            "http://hl7.eu/fhir/laboratory/StructureDefinition/Observation-resultslab-eu-lab"
          ]
        },
        "performer": [
          {
            "display": "The Central European Lab"
          }
        ],
        "category": [
          {
            "coding": [
              {
                "system": "http://terminology.hl7.org/CodeSystem/observation-category",
                "code": "laboratory"
              }
            ]
          }
        ],
        "code": {
          "coding": [
            {
              "code": "38483-4",
              "system": "http://loinc.org",
              "display": "Creatinine [Mass/volume] in Blood"
            }
          ],
          "text": "Creatinine [Mass/volume] in Blood"
        },
        "valueQuantity": {
          "system": "http://unitsofmeasure.org",
          "value": 6.6,
          "unit": "mg/dL",
          "code": "mg/dL"
        },
        "referenceRange": [
          {
            "low": {
              "value": 0.6,
              "code": "mg/dL",
              "system": "http://unitsofmeasure.org"
            }
          },
          {
            "high": {
              "value": 1.3,
              "code": "mg/dL",
              "system": "http://unitsofmeasure.org"
            }
          }
        ],
        "interpretation": [
          {
            "coding": [
              {
                "code": "H",
                "system": "http://terminology.hl7.org/CodeSystem/v3-ObservationInterpretation",
                "display": "High"
              }
            ]
          }
        ],
        "text": {
          "status": "generated",
          "div": "<div xmlns=\"http://www.w3.org/1999/xhtml\"><table class=\"hl7__eu__lab__report\"><tr><th>Test</th><th>04-Nov-2020</th><th>Reference&#xA0;Range</th><th>Unit</th></tr><tr><td>Creatinine [Mass/volume] in Blood</td><td>6.6</td><td>0.6 - 1.3</td><td>H</td><td>mg/dL</td></tr></table></div>"
        },
        "status": "final",
        "subject": {
          "reference": "urn:uuid:707110c9-87e9-4bf1-8f2f-be96256478d5",
          "display": "Θεμιστοκλής Λιναρδάκη"
        },
        "effectiveDateTime": "2020-11-04T06:16:00Z",
        "specimen": {
          "reference": "urn:uuid:aa8f8f4d-b1be-4ba3-a6dc-0048d8a3fbc1"
        }
      }
    },
    {
      "fullUrl": "urn:uuid:61c2772e-50d1-4311-a15f-fa37c66b1e79",
      "resource": {
        "resourceType": "Observation",
        "id": "61c2772e-50d1-4311-a15f-fa37c66b1e79",
        "meta": {
          "profile": [
            "http://hl7.eu/fhir/laboratory/StructureDefinition/Observation-resultslab-eu-lab"
          ]
        },
        "performer": [
          {
            "display": "The Central European Lab"
          }
        ],
        "category": [
          {
            "coding": [
              {
                "system": "http://terminology.hl7.org/CodeSystem/observation-category",
                "code": "laboratory"
              }
            ]
          }
        ],
        "code": {
          "coding": [
            {
              "code": "49765-1",
              "system": "http://loinc.org",
              "display": "Calcium [Mass/volume] in Blood"
            }
          ],
          "text": "Calcium [Mass/volume] in Blood"
        },
        "valueQuantity": {
          "system": "http://unitsofmeasure.org",
          "value": 9.8,
          "unit": "mg/dL",
          "code": "mg/dL"
        },
        "referenceRange": [
          {
            "low": {
              "value": 8.5,
              "code": "mg/dL",
              "system": "http://unitsofmeasure.org"
            }
          },
          {
            "high": {
              "value": 10.5,
              "code": "mg/dL",
              "system": "http://unitsofmeasure.org"
            }
          }
        ],
        "text": {
          "status": "generated",
          "div": "<div xmlns=\"http://www.w3.org/1999/xhtml\"><table class=\"hl7__eu__lab__report\"><tr><th>Test</th><th>04-Nov-2020</th><th>Reference&#xA0;Range</th><th>Unit</th></tr><tr><td>Calcium [Mass/volume] in Blood</td><td>9.8</td><td>8.5 - 10.5</td><td></td><td>mg/dL</td></tr></table></div>"
        },
        "status": "final",
        "subject": {
          "reference": "urn:uuid:707110c9-87e9-4bf1-8f2f-be96256478d5",
          "display": "Θεμιστοκλής Λιναρδάκη"
        },
        "effectiveDateTime": "2020-11-04T06:16:00Z",
        "specimen": {
          "reference": "urn:uuid:aa8f8f4d-b1be-4ba3-a6dc-0048d8a3fbc1"
        }
      }
    },
    {
      "fullUrl": "urn:uuid:b97cd8b6-f98f-4b75-8588-742dfed6a1e4",
      "resource": {
        "resourceType": "Observation",
        "id": "b97cd8b6-f98f-4b75-8588-742dfed6a1e4",
        "meta": {
          "profile": [
            "http://hl7.eu/fhir/laboratory/StructureDefinition/Observation-resultslab-eu-lab"
          ]
        },
        "performer": [
          {
            "display": "The Central European Lab"
          }
        ],
        "category": [
          {
            "coding": [
              {
                "system": "http://terminology.hl7.org/CodeSystem/observation-category",
                "code": "laboratory"
              }
            ]
          }
        ],
        "code": {
          "coding": [
            {
              "code": "2947-0",
              "system": "http://loinc.org",
              "display": "Sodium [Moles/volume] in Blood"
            }
          ],
          "text": "Sodium [Moles/volume] in Blood"
        },
        "valueQuantity": {
          "system": "http://unitsofmeasure.org",
          "value": 141.2,
          "unit": "mmol/L",
          "code": "mmol/L"
        },
        "referenceRange": [
          {
            "low": {
              "value": 135,
              "code": "mmol/L",
              "system": "http://unitsofmeasure.org"
            }
          },
          {
            "high": {
              "value": 145,
              "code": "mmol/L",
              "system": "http://unitsofmeasure.org"
            }
          }
        ],
        "text": {
          "status": "generated",
          "div": "<div xmlns=\"http://www.w3.org/1999/xhtml\"><table class=\"hl7__eu__lab__report\"><tr><th>Test</th><th>04-Nov-2020</th><th>Reference&#xA0;Range</th><th>Unit</th></tr><tr><td>Sodium [Moles/volume] in Blood</td><td>141.2</td><td>135 - 145</td><td></td><td>mmol/L</td></tr></table></div>"
        },
        "status": "final",
        "subject": {
          "reference": "urn:uuid:707110c9-87e9-4bf1-8f2f-be96256478d5",
          "display": "Θεμιστοκλής Λιναρδάκη"
        },
        "effectiveDateTime": "2020-11-04T06:16:00Z",
        "specimen": {
          "reference": "urn:uuid:aa8f8f4d-b1be-4ba3-a6dc-0048d8a3fbc1"
        }
      }
    },
    {
      "fullUrl": "urn:uuid:aa54aa39-01c4-42e4-a854-1a040f7feccf",
      "resource": {
        "resourceType": "Observation",
        "id": "aa54aa39-01c4-42e4-a854-1a040f7feccf",
        "meta": {
          "profile": [
            "http://hl7.eu/fhir/laboratory/StructureDefinition/Observation-resultslab-eu-lab"
          ]
        },
        "performer": [
          {
            "display": "The Central European Lab"
          }
        ],
        "category": [
          {
            "coding": [
              {
                "system": "http://terminology.hl7.org/CodeSystem/observation-category",
                "code": "laboratory"
              }
            ]
          }
        ],
        "code": {
          "coding": [
            {
              "code": "6298-4",
              "system": "http://loinc.org",
              "display": "Potassium [Moles/volume] in Blood"
            }
          ],
          "text": "Potassium [Moles/volume] in Blood"
        },
        "valueQuantity": {
          "system": "http://unitsofmeasure.org",
          "value": 4.5,
          "unit": "mmol/L",
          "code": "mmol/L"
        },
        "referenceRange": [
          {
            "low": {
              "value": 3.5,
              "code": "mmol/L",
              "system": "http://unitsofmeasure.org"
            }
          },
          {
            "high": {
              "value": 5.3,
              "code": "mmol/L",
              "system": "http://unitsofmeasure.org"
            }
          }
        ],
        "text": {
          "status": "generated",
          "div": "<div xmlns=\"http://www.w3.org/1999/xhtml\"><table class=\"hl7__eu__lab__report\"><tr><th>Test</th><th>04-Nov-2020</th><th>Reference&#xA0;Range</th><th>Unit</th></tr><tr><td>Potassium [Moles/volume] in Blood</td><td>4.5</td><td>3.5 - 5.3</td><td></td><td>mmol/L</td></tr></table></div>"
        },
        "status": "final",
        "subject": {
          "reference": "urn:uuid:707110c9-87e9-4bf1-8f2f-be96256478d5",
          "display": "Θεμιστοκλής Λιναρδάκη"
        },
        "effectiveDateTime": "2020-11-04T06:16:00Z",
        "specimen": {
          "reference": "urn:uuid:aa8f8f4d-b1be-4ba3-a6dc-0048d8a3fbc1"
        }
      }
    },
    {
      "fullUrl": "urn:uuid:6c3839d7-0419-4b8f-9956-505451940dfa",
      "resource": {
        "resourceType": "Observation",
        "id": "6c3839d7-0419-4b8f-9956-505451940dfa",
        "meta": {
          "profile": [
            "http://hl7.eu/fhir/laboratory/StructureDefinition/Observation-resultslab-eu-lab"
          ]
        },
        "performer": [
          {
            "display": "The Central European Lab"
          }
        ],
        "category": [
          {
            "coding": [
              {
                "system": "http://terminology.hl7.org/CodeSystem/observation-category",
                "code": "laboratory"
              }
            ]
          }
        ],
        "code": {
          "coding": [
            {
              "code": "2069-3",
              "system": "http://loinc.org",
              "display": "Chloride [Moles/volume] in Blood"
            }
          ],
          "text": "Chloride [Moles/volume] in Blood"
        },
        "valueQuantity": {
          "system": "http://unitsofmeasure.org",
          "value": 106.3,
          "unit": "mmol/L",
          "code": "mmol/L"
        },
        "referenceRange": [
          {
            "low": {
              "value": 98,
              "code": "mmol/L",
              "system": "http://unitsofmeasure.org"
            }
          },
          {
            "high": {
              "value": 110,
              "code": "mmol/L",
              "system": "http://unitsofmeasure.org"
            }
          }
        ],
        "text": {
          "status": "generated",
          "div": "<div xmlns=\"http://www.w3.org/1999/xhtml\"><table class=\"hl7__eu__lab__report\"><tr><th>Test</th><th>04-Nov-2020</th><th>Reference&#xA0;Range</th><th>Unit</th></tr><tr><td>Chloride [Moles/volume] in Blood</td><td>106.3</td><td>98 - 110</td><td></td><td>mmol/L</td></tr></table></div>"
        },
        "status": "final",
        "subject": {
          "reference": "urn:uuid:707110c9-87e9-4bf1-8f2f-be96256478d5",
          "display": "Θεμιστοκλής Λιναρδάκη"
        },
        "effectiveDateTime": "2020-11-04T06:16:00Z",
        "specimen": {
          "reference": "urn:uuid:aa8f8f4d-b1be-4ba3-a6dc-0048d8a3fbc1"
        }
      }
    },
    {
      "fullUrl": "urn:uuid:14fef0e2-ecab-446b-b651-adb40abe6067",
      "resource": {
        "resourceType": "Observation",
        "id": "14fef0e2-ecab-446b-b651-adb40abe6067",
        "meta": {
          "profile": [
            "http://hl7.eu/fhir/laboratory/StructureDefinition/Observation-resultslab-eu-lab"
          ]
        },
        "performer": [
          {
            "display": "The Central European Lab"
          }
        ],
        "category": [
          {
            "coding": [
              {
                "system": "http://terminology.hl7.org/CodeSystem/observation-category",
                "code": "laboratory"
              }
            ]
          }
        ],
        "code": {
          "coding": [
            {
              "code": "20565-8",
              "system": "http://loinc.org",
              "display": "Carbon dioxide, total [Moles/volume] in Blood"
            }
          ],
          "text": "Carbon dioxide, total [Moles/volume] in Blood"
        },
        "valueQuantity": {
          "system": "http://unitsofmeasure.org",
          "value": 23.7,
          "unit": "mmol/L",
          "code": "mmol/L"
        },
        "referenceRange": [
          {
            "low": {
              "value": 22,
              "code": "mmol/L",
              "system": "http://unitsofmeasure.org"
            }
          },
          {
            "high": {
              "value": 29,
              "code": "mmol/L",
              "system": "http://unitsofmeasure.org"
            }
          }
        ],
        "text": {
          "status": "generated",
          "div": "<div xmlns=\"http://www.w3.org/1999/xhtml\"><table class=\"hl7__eu__lab__report\"><tr><th>Test</th><th>04-Nov-2020</th><th>Reference&#xA0;Range</th><th>Unit</th></tr><tr><td>Carbon dioxide, total [Moles/volume] in Blood</td><td>23.7</td><td>22 - 29</td><td></td><td>mmol/L</td></tr></table></div>"
        },
        "status": "final",
        "subject": {
          "reference": "urn:uuid:707110c9-87e9-4bf1-8f2f-be96256478d5",
          "display": "Θεμιστοκλής Λιναρδάκη"
        },
        "effectiveDateTime": "2020-11-04T06:16:00Z",
        "specimen": {
          "reference": "urn:uuid:aa8f8f4d-b1be-4ba3-a6dc-0048d8a3fbc1"
        }
      }
    },
    {
      "fullUrl": "urn:uuid:20096c81-8a70-4902-97da-8a7bca6a4ec5",
      "resource": {
        "resourceType": "Observation",
        "id": "20096c81-8a70-4902-97da-8a7bca6a4ec5",
        "meta": {
          "profile": [
            "http://hl7.eu/fhir/laboratory/StructureDefinition/Observation-resultslab-eu-lab"
          ]
        },
        "performer": [
          {
            "display": "The Central European Lab"
          }
        ],
        "category": [
          {
            "coding": [
              {
                "system": "http://terminology.hl7.org/CodeSystem/observation-category",
                "code": "laboratory"
              }
            ]
          }
        ],
        "code": {
          "coding": [
            {
              "code": "6690-2",
              "system": "http://loinc.org",
              "display": "Leukocytes [#/volume] in Blood by Automated count"
            }
          ],
          "text": "Leukocytes [#/volume] in Blood by Automated count"
        },
        "valueQuantity": {
          "system": "http://unitsofmeasure.org",
          "value": 10.5,
          "unit": "10*3/uL",
          "code": "10*3/uL"
        },
        "referenceRange": [
          {
            "low": {
              "value": 3.5,
              "code": "10*3/uL",
              "system": "http://unitsofmeasure.org"
            }
          },
          {
            "high": {
              "value": 10.5,
              "code": "10*3/uL",
              "system": "http://unitsofmeasure.org"
            }
          }
        ],
        "text": {
          "status": "generated",
          "div": "<div xmlns=\"http://www.w3.org/1999/xhtml\"><table class=\"hl7__eu__lab__report\"><tr><th>Test</th><th>04-Nov-2020</th><th>Reference&#xA0;Range</th><th>Unit</th></tr><tr><td>Leukocytes [#/volume] in Blood by Automated count</td><td>10.5</td><td>3.5 - 10.5</td><td></td><td>10*3/uL</td></tr></table></div>"
        },
        "status": "final",
        "subject": {
          "reference": "urn:uuid:707110c9-87e9-4bf1-8f2f-be96256478d5",
          "display": "Θεμιστοκλής Λιναρδάκη"
        },
        "effectiveDateTime": "2020-11-04T06:16:00Z",
        "specimen": {
          "reference": "urn:uuid:aa8f8f4d-b1be-4ba3-a6dc-0048d8a3fbc1"
        }
      }
    },
    {
      "fullUrl": "urn:uuid:019c0218-ff7a-4225-a991-dc090321b744",
      "resource": {
        "resourceType": "Observation",
        "id": "019c0218-ff7a-4225-a991-dc090321b744",
        "meta": {
          "profile": [
            "http://hl7.eu/fhir/laboratory/StructureDefinition/Observation-resultslab-eu-lab"
          ]
        },
        "performer": [
          {
            "display": "The Central European Lab"
          }
        ],
        "category": [
          {
            "coding": [
              {
                "system": "http://terminology.hl7.org/CodeSystem/observation-category",
                "code": "laboratory"
              }
            ]
          }
        ],
        "code": {
          "coding": [
            {
              "code": "789-8",
              "system": "http://loinc.org",
              "display": "Erythrocytes [#/volume] in Blood by Automated count"
            }
          ],
          "text": "Erythrocytes [#/volume] in Blood by Automated count"
        },
        "valueQuantity": {
          "system": "http://unitsofmeasure.org",
          "value": 4.5,
          "unit": "10*6/uL",
          "code": "10*6/uL"
        },
        "referenceRange": [
          {
            "low": {
              "value": 4.5,
              "code": "10*6/uL",
              "system": "http://unitsofmeasure.org"
            }
          },
          {
            "high": {
              "value": 5.7,
              "code": "10*6/uL",
              "system": "http://unitsofmeasure.org"
            }
          }
        ],
        "text": {
          "status": "generated",
          "div": "<div xmlns=\"http://www.w3.org/1999/xhtml\"><table class=\"hl7__eu__lab__report\"><tr><th>Test</th><th>04-Nov-2020</th><th>Reference&#xA0;Range</th><th>Unit</th></tr><tr><td>Erythrocytes [#/volume] in Blood by Automated count</td><td>4.5</td><td>4.5 - 5.7</td><td></td><td>10*6/uL</td></tr></table></div>"
        },
        "status": "final",
        "subject": {
          "reference": "urn:uuid:707110c9-87e9-4bf1-8f2f-be96256478d5",
          "display": "Θεμιστοκλής Λιναρδάκη"
        },
        "effectiveDateTime": "2020-11-04T06:16:00Z",
        "specimen": {
          "reference": "urn:uuid:aa8f8f4d-b1be-4ba3-a6dc-0048d8a3fbc1"
        }
      }
    },
    {
      "fullUrl": "urn:uuid:43d6ff6f-abca-4f8d-8bd1-0ff96d66ad37",
      "resource": {
        "resourceType": "Observation",
        "id": "43d6ff6f-abca-4f8d-8bd1-0ff96d66ad37",
        "meta": {
          "profile": [
            "http://hl7.eu/fhir/laboratory/StructureDefinition/Observation-resultslab-eu-lab"
          ]
        },
        "performer": [
          {
            "display": "The Central European Lab"
          }
        ],
        "category": [
          {
            "coding": [
              {
                "system": "http://terminology.hl7.org/CodeSystem/observation-category",
                "code": "laboratory"
              }
            ]
          }
        ],
        "code": {
          "coding": [
            {
              "code": "718-7",
              "system": "http://loinc.org",
              "display": "Hemoglobin [Mass/volume] in Blood"
            }
          ],
          "text": "Hemoglobin [Mass/volume] in Blood"
        },
        "valueQuantity": {
          "system": "http://unitsofmeasure.org",
          "value": 13.7,
          "unit": "g/dL",
          "code": "g/dL"
        },
        "referenceRange": [
          {
            "low": {
              "value": 14,
              "code": "g/dL",
              "system": "http://unitsofmeasure.org"
            }
          },
          {
            "high": {
              "value": 18,
              "code": "g/dL",
              "system": "http://unitsofmeasure.org"
            }
          }
        ],
        "interpretation": [
          {
            "coding": [
              {
                "code": "L",
                "system": "http://terminology.hl7.org/CodeSystem/v3-ObservationInterpretation",
                "display": "Low"
              }
            ]
          }
        ],
        "text": {
          "status": "generated",
          "div": "<div xmlns=\"http://www.w3.org/1999/xhtml\"><table class=\"hl7__eu__lab__report\"><tr><th>Test</th><th>04-Nov-2020</th><th>Reference&#xA0;Range</th><th>Unit</th></tr><tr><td>Hemoglobin [Mass/volume] in Blood</td><td>13.7</td><td>14 - 18</td><td>L</td><td>g/dL</td></tr></table></div>"
        },
        "status": "final",
        "subject": {
          "reference": "urn:uuid:707110c9-87e9-4bf1-8f2f-be96256478d5",
          "display": "Θεμιστοκλής Λιναρδάκη"
        },
        "effectiveDateTime": "2020-11-04T06:16:00Z",
        "specimen": {
          "reference": "urn:uuid:aa8f8f4d-b1be-4ba3-a6dc-0048d8a3fbc1"
        }
      }
    },
    {
      "fullUrl": "urn:uuid:d368be6c-f0e7-42c8-b484-673ea381afc1",
      "resource": {
        "resourceType": "Observation",
        "id": "d368be6c-f0e7-42c8-b484-673ea381afc1",
        "meta": {
          "profile": [
            "http://hl7.eu/fhir/laboratory/StructureDefinition/Observation-resultslab-eu-lab"
          ]
        },
        "performer": [
          {
            "display": "The Central European Lab"
          }
        ],
        "category": [
          {
            "coding": [
              {
                "system": "http://terminology.hl7.org/CodeSystem/observation-category",
                "code": "laboratory"
              }
            ]
          }
        ],
        "code": {
          "coding": [
            {
              "code": "4544-3",
              "system": "http://loinc.org",
              "display": "Hematocrit [Volume Fraction] of Blood by Automated count"
            }
          ],
          "text": "Hematocrit [Volume Fraction] of Blood by Automated count"
        },
        "valueQuantity": {
          "system": "http://unitsofmeasure.org",
          "value": 37.9,
          "unit": "%",
          "code": "%"
        },
        "referenceRange": [
          {
            "low": {
              "value": 38,
              "code": "%",
              "system": "http://unitsofmeasure.org"
            }
          },
          {
            "high": {
              "value": 50,
              "code": "%",
              "system": "http://unitsofmeasure.org"
            }
          }
        ],
        "interpretation": [
          {
            "coding": [
              {
                "code": "L",
                "system": "http://terminology.hl7.org/CodeSystem/v3-ObservationInterpretation",
                "display": "Low"
              }
            ]
          }
        ],
        "text": {
          "status": "generated",
          "div": "<div xmlns=\"http://www.w3.org/1999/xhtml\"><table class=\"hl7__eu__lab__report\"><tr><th>Test</th><th>04-Nov-2020</th><th>Reference&#xA0;Range</th><th>Unit</th></tr><tr><td>Hematocrit [Volume Fraction] of Blood by Automated count</td><td>37.9</td><td>38 - 50</td><td>L</td><td>%</td></tr></table></div>"
        },
        "status": "final",
        "subject": {
          "reference": "urn:uuid:707110c9-87e9-4bf1-8f2f-be96256478d5",
          "display": "Θεμιστοκλής Λιναρδάκη"
        },
        "effectiveDateTime": "2020-11-04T06:16:00Z",
        "specimen": {
          "reference": "urn:uuid:aa8f8f4d-b1be-4ba3-a6dc-0048d8a3fbc1"
        }
      }
    },
    {
      "fullUrl": "urn:uuid:2d1cd0d8-61f2-4a4c-ab4a-98fe09186123",
      "resource": {
        "resourceType": "Observation",
        "id": "2d1cd0d8-61f2-4a4c-ab4a-98fe09186123",
        "meta": {
          "profile": [
            "http://hl7.eu/fhir/laboratory/StructureDefinition/Observation-resultslab-eu-lab"
          ]
        },
        "performer": [
          {
            "display": "The Central European Lab"
          }
        ],
        "category": [
          {
            "coding": [
              {
                "system": "http://terminology.hl7.org/CodeSystem/observation-category",
                "code": "laboratory"
              }
            ]
          }
        ],
        "code": {
          "coding": [
            {
              "code": "787-2",
              "system": "http://loinc.org",
              "display": "MCV [Entitic volume] by Automated count"
            }
          ],
          "text": "MCV [Entitic volume] by Automated count"
        },
        "valueQuantity": {
          "system": "http://unitsofmeasure.org",
          "value": 84.7,
          "unit": "fL",
          "code": "fL"
        },
        "referenceRange": [
          {
            "low": {
              "value": 82,
              "code": "fL",
              "system": "http://unitsofmeasure.org"
            }
          },
          {
            "high": {
              "value": 98,
              "code": "fL",
              "system": "http://unitsofmeasure.org"
            }
          }
        ],
        "text": {
          "status": "generated",
          "div": "<div xmlns=\"http://www.w3.org/1999/xhtml\"><table class=\"hl7__eu__lab__report\"><tr><th>Test</th><th>04-Nov-2020</th><th>Reference&#xA0;Range</th><th>Unit</th></tr><tr><td>MCV [Entitic volume] by Automated count</td><td>84.7</td><td>82 - 98</td><td></td><td>fL</td></tr></table></div>"
        },
        "status": "final",
        "subject": {
          "reference": "urn:uuid:707110c9-87e9-4bf1-8f2f-be96256478d5",
          "display": "Θεμιστοκλής Λιναρδάκη"
        },
        "effectiveDateTime": "2020-11-04T06:16:00Z",
        "specimen": {
          "reference": "urn:uuid:aa8f8f4d-b1be-4ba3-a6dc-0048d8a3fbc1"
        }
      }
    },
    {
      "fullUrl": "urn:uuid:07546b59-e081-4c9f-ba53-841e84ec05d0",
      "resource": {
        "resourceType": "Observation",
        "id": "07546b59-e081-4c9f-ba53-841e84ec05d0",
        "meta": {
          "profile": [
            "http://hl7.eu/fhir/laboratory/StructureDefinition/Observation-resultslab-eu-lab"
          ]
        },
        "performer": [
          {
            "display": "The Central European Lab"
          }
        ],
        "category": [
          {
            "coding": [
              {
                "system": "http://terminology.hl7.org/CodeSystem/observation-category",
                "code": "laboratory"
              }
            ]
          }
        ],
        "code": {
          "coding": [
            {
              "code": "785-6",
              "system": "http://loinc.org",
              "display": "MCH [Entitic mass] by Automated count"
            }
          ],
          "text": "MCH [Entitic mass] by Automated count"
        },
        "valueQuantity": {
          "system": "http://unitsofmeasure.org",
          "value": 27.2,
          "unit": "pg",
          "code": "pg"
        },
        "referenceRange": [
          {
            "low": {
              "value": 27,
              "code": "pg",
              "system": "http://unitsofmeasure.org"
            }
          },
          {
            "high": {
              "value": 33,
              "code": "pg",
              "system": "http://unitsofmeasure.org"
            }
          }
        ],
        "text": {
          "status": "generated",
          "div": "<div xmlns=\"http://www.w3.org/1999/xhtml\"><table class=\"hl7__eu__lab__report\"><tr><th>Test</th><th>04-Nov-2020</th><th>Reference&#xA0;Range</th><th>Unit</th></tr><tr><td>MCH [Entitic mass] by Automated count</td><td>27.2</td><td>27 - 33</td><td></td><td>pg</td></tr></table></div>"
        },
        "status": "final",
        "subject": {
          "reference": "urn:uuid:707110c9-87e9-4bf1-8f2f-be96256478d5",
          "display": "Θεμιστοκλής Λιναρδάκη"
        },
        "effectiveDateTime": "2020-11-04T06:16:00Z",
        "specimen": {
          "reference": "urn:uuid:aa8f8f4d-b1be-4ba3-a6dc-0048d8a3fbc1"
        }
      }
    },
    {
      "fullUrl": "urn:uuid:2db3a2ae-7243-42a8-88d1-ca0fa0bf70f6",
      "resource": {
        "resourceType": "Observation",
        "id": "2db3a2ae-7243-42a8-88d1-ca0fa0bf70f6",
        "meta": {
          "profile": [
            "http://hl7.eu/fhir/laboratory/StructureDefinition/Observation-resultslab-eu-lab"
          ]
        },
        "performer": [
          {
            "display": "The Central European Lab"
          }
        ],
        "category": [
          {
            "coding": [
              {
                "system": "http://terminology.hl7.org/CodeSystem/observation-category",
                "code": "laboratory"
              }
            ]
          }
        ],
        "code": {
          "coding": [
            {
              "code": "786-4",
              "system": "http://loinc.org",
              "display": "MCHC [Mass/volume] by Automated count"
            }
          ],
          "text": "MCHC [Mass/volume] by Automated count"
        },
        "valueQuantity": {
          "system": "http://unitsofmeasure.org",
          "value": 35.7,
          "unit": "g/dL",
          "code": "g/dL"
        },
        "referenceRange": [
          {
            "low": {
              "value": 31,
              "code": "g/dL",
              "system": "http://unitsofmeasure.org"
            }
          },
          {
            "high": {
              "value": 36,
              "code": "g/dL",
              "system": "http://unitsofmeasure.org"
            }
          }
        ],
        "text": {
          "status": "generated",
          "div": "<div xmlns=\"http://www.w3.org/1999/xhtml\"><table class=\"hl7__eu__lab__report\"><tr><th>Test</th><th>04-Nov-2020</th><th>Reference&#xA0;Range</th><th>Unit</th></tr><tr><td>MCHC [Mass/volume] by Automated count</td><td>35.7</td><td>31 - 36</td><td></td><td>g/dL</td></tr></table></div>"
        },
        "status": "final",
        "subject": {
          "reference": "urn:uuid:707110c9-87e9-4bf1-8f2f-be96256478d5",
          "display": "Θεμιστοκλής Λιναρδάκη"
        },
        "effectiveDateTime": "2020-11-04T06:16:00Z",
        "specimen": {
          "reference": "urn:uuid:aa8f8f4d-b1be-4ba3-a6dc-0048d8a3fbc1"
        }
      }
    },
    {
      "fullUrl": "urn:uuid:161006f4-9ca4-4284-9f55-d4ffb041992f",
      "resource": {
        "resourceType": "Observation",
        "id": "161006f4-9ca4-4284-9f55-d4ffb041992f",
        "meta": {
          "profile": [
            "http://hl7.eu/fhir/laboratory/StructureDefinition/Observation-resultslab-eu-lab"
          ]
        },
        "performer": [
          {
            "display": "The Central European Lab"
          }
        ],
        "category": [
          {
            "coding": [
              {
                "system": "http://terminology.hl7.org/CodeSystem/observation-category",
                "code": "laboratory"
              }
            ]
          }
        ],
        "code": {
          "coding": [
            {
              "code": "21000-5",
              "system": "http://loinc.org",
              "display": "Erythrocyte distribution width [Entitic volume] by Automated count"
            }
          ],
          "text": "Erythrocyte distribution width [Entitic volume] by Automated count"
        },
        "valueQuantity": {
          "system": "http://unitsofmeasure.org",
          "value": 39.9,
          "unit": "fL",
          "code": "fL"
        },
        "referenceRange": [
          {
            "low": {
              "value": 39,
              "code": "fL",
              "system": "http://unitsofmeasure.org"
            }
          },
          {
            "high": {
              "value": 55,
              "code": "fL",
              "system": "http://unitsofmeasure.org"
            }
          }
        ],
        "text": {
          "status": "generated",
          "div": "<div xmlns=\"http://www.w3.org/1999/xhtml\"><table class=\"hl7__eu__lab__report\"><tr><th>Test</th><th>04-Nov-2020</th><th>Reference&#xA0;Range</th><th>Unit</th></tr><tr><td>Erythrocyte distribution width [Entitic volume] by Automated count</td><td>39.9</td><td>39 - 55</td><td></td><td>fL</td></tr></table></div>"
        },
        "status": "final",
        "subject": {
          "reference": "urn:uuid:707110c9-87e9-4bf1-8f2f-be96256478d5",
          "display": "Θεμιστοκλής Λιναρδάκη"
        },
        "effectiveDateTime": "2020-11-04T06:16:00Z",
        "specimen": {
          "reference": "urn:uuid:aa8f8f4d-b1be-4ba3-a6dc-0048d8a3fbc1"
        }
      }
    },
    {
      "fullUrl": "urn:uuid:9a44d946-583b-4951-931b-6f0e8567b244",
      "resource": {
        "resourceType": "Observation",
        "id": "9a44d946-583b-4951-931b-6f0e8567b244",
        "meta": {
          "profile": [
            "http://hl7.eu/fhir/laboratory/StructureDefinition/Observation-resultslab-eu-lab"
          ]
        },
        "performer": [
          {
            "display": "The Central European Lab"
          }
        ],
        "category": [
          {
            "coding": [
              {
                "system": "http://terminology.hl7.org/CodeSystem/observation-category",
                "code": "laboratory"
              }
            ]
          }
        ],
        "code": {
          "coding": [
            {
              "code": "777-3",
              "system": "http://loinc.org",
              "display": "Platelets [#/volume] in Blood by Automated count"
            }
          ],
          "text": "Platelets [#/volume] in Blood by Automated count"
        },
        "valueQuantity": {
          "system": "http://unitsofmeasure.org",
          "value": 192.7,
          "unit": "10*3/uL",
          "code": "10*3/uL"
        },
        "referenceRange": [
          {
            "low": {
              "value": 150,
              "code": "10*3/uL",
              "system": "http://unitsofmeasure.org"
            }
          },
          {
            "high": {
              "value": 350,
              "code": "10*3/uL",
              "system": "http://unitsofmeasure.org"
            }
          }
        ],
        "text": {
          "status": "generated",
          "div": "<div xmlns=\"http://www.w3.org/1999/xhtml\"><table class=\"hl7__eu__lab__report\"><tr><th>Test</th><th>04-Nov-2020</th><th>Reference&#xA0;Range</th><th>Unit</th></tr><tr><td>Platelets [#/volume] in Blood by Automated count</td><td>192.7</td><td>150 - 350</td><td></td><td>10*3/uL</td></tr></table></div>"
        },
        "status": "final",
        "subject": {
          "reference": "urn:uuid:707110c9-87e9-4bf1-8f2f-be96256478d5",
          "display": "Θεμιστοκλής Λιναρδάκη"
        },
        "effectiveDateTime": "2020-11-04T06:16:00Z",
        "specimen": {
          "reference": "urn:uuid:aa8f8f4d-b1be-4ba3-a6dc-0048d8a3fbc1"
        }
      }
    },
    {
      "fullUrl": "urn:uuid:2ae9c033-bad9-416c-97ed-dfffee93dc38",
      "resource": {
        "resourceType": "Observation",
        "id": "2ae9c033-bad9-416c-97ed-dfffee93dc38",
        "meta": {
          "profile": [
            "http://hl7.eu/fhir/laboratory/StructureDefinition/Observation-resultslab-eu-lab"
          ]
        },
        "performer": [
          {
            "display": "The Central European Lab"
          }
        ],
        "category": [
          {
            "coding": [
              {
                "system": "http://terminology.hl7.org/CodeSystem/observation-category",
                "code": "laboratory"
              }
            ]
          }
        ],
        "code": {
          "coding": [
            {
              "code": "32207-3",
              "system": "http://loinc.org",
              "display": "Platelet distribution width [Entitic volume] in Blood by Automated count"
            }
          ],
          "text": "Platelet distribution width [Entitic volume] in Blood by Automated count"
        },
        "valueQuantity": {
          "system": "http://unitsofmeasure.org",
          "value": 474.6,
          "unit": "fL",
          "code": "fL"
        },
        "referenceRange": [
          {
            "low": {
              "value": 144,
              "code": "fL",
              "system": "http://unitsofmeasure.org"
            }
          },
          {
            "high": {
              "value": 366,
              "code": "fL",
              "system": "http://unitsofmeasure.org"
            }
          }
        ],
        "interpretation": [
          {
            "coding": [
              {
                "code": "H",
                "system": "http://terminology.hl7.org/CodeSystem/v3-ObservationInterpretation",
                "display": "High"
              }
            ]
          }
        ],
        "text": {
          "status": "generated",
          "div": "<div xmlns=\"http://www.w3.org/1999/xhtml\"><table class=\"hl7__eu__lab__report\"><tr><th>Test</th><th>04-Nov-2020</th><th>Reference&#xA0;Range</th><th>Unit</th></tr><tr><td>Platelet distribution width [Entitic volume] in Blood by Automated count</td><td>474.6</td><td>144 - 366</td><td>H</td><td>fL</td></tr></table></div>"
        },
        "status": "final",
        "subject": {
          "reference": "urn:uuid:707110c9-87e9-4bf1-8f2f-be96256478d5",
          "display": "Θεμιστοκλής Λιναρδάκη"
        },
        "effectiveDateTime": "2020-11-04T06:16:00Z",
        "specimen": {
          "reference": "urn:uuid:aa8f8f4d-b1be-4ba3-a6dc-0048d8a3fbc1"
        }
      }
    },
    {
      "fullUrl": "urn:uuid:fc57183f-e41e-4277-a30d-56e04377b20f",
      "resource": {
        "resourceType": "Observation",
        "id": "fc57183f-e41e-4277-a30d-56e04377b20f",
        "meta": {
          "profile": [
            "http://hl7.eu/fhir/laboratory/StructureDefinition/Observation-resultslab-eu-lab"
          ]
        },
        "performer": [
          {
            "display": "The Central European Lab"
          }
        ],
        "category": [
          {
            "coding": [
              {
                "system": "http://terminology.hl7.org/CodeSystem/observation-category",
                "code": "laboratory"
              }
            ]
          }
        ],
        "code": {
          "coding": [
            {
              "code": "32623-1",
              "system": "http://loinc.org",
              "display": "Platelet mean volume [Entitic volume] in Blood by Automated count"
            }
          ],
          "text": "Platelet mean volume [Entitic volume] in Blood by Automated count"
        },
        "valueQuantity": {
          "system": "http://unitsofmeasure.org",
          "value": 10.9,
          "unit": "fL",
          "code": "fL"
        },
        "referenceRange": [
          {
            "low": {
              "value": 9.8,
              "code": "fL",
              "system": "http://unitsofmeasure.org"
            }
          },
          {
            "high": {
              "value": 13.8,
              "code": "fL",
              "system": "http://unitsofmeasure.org"
            }
          }
        ],
        "text": {
          "status": "generated",
          "div": "<div xmlns=\"http://www.w3.org/1999/xhtml\"><table class=\"hl7__eu__lab__report\"><tr><th>Test</th><th>04-Nov-2020</th><th>Reference&#xA0;Range</th><th>Unit</th></tr><tr><td>Platelet mean volume [Entitic volume] in Blood by Automated count</td><td>10.9</td><td>9.8 - 13.8</td><td></td><td>fL</td></tr></table></div>"
        },
        "status": "final",
        "subject": {
          "reference": "urn:uuid:707110c9-87e9-4bf1-8f2f-be96256478d5",
          "display": "Θεμιστοκλής Λιναρδάκη"
        },
        "effectiveDateTime": "2020-11-04T06:16:00Z",
        "specimen": {
          "reference": "urn:uuid:aa8f8f4d-b1be-4ba3-a6dc-0048d8a3fbc1"
        }
      }
    },
    {
      "fullUrl": "urn:uuid:c13eb4ab-2ffd-4375-95d6-2622105d8501",
      "resource": {
        "resourceType": "Device",
        "id": "c13eb4ab-2ffd-4375-95d6-2622105d8501",
        "deviceName": [
          {
            "name": "SYNDERAI Synthetic Generator",
            "type": "manufacturer-name"
          }
        ],
        "version": [
          {
            "value": "5.0"
          }
        ],
        "text": {
          "status": "generated",
          "div": "<div xmlns=\"http://www.w3.org/1999/xhtml\">SYNDERAI Synthetic Generator v5.0</div>"
        },
        "status": "active\"",
        "distinctIdentifier": "synderai-generator-50",
        "manufacturer": "SYNDERAI Project"
      }
    },
    {
      "fullUrl": "urn:uuid:5e3f280e-23c3-485f-ac4c-d76d112841bf",
      "resource": {
        "resourceType": "Provenance",
        "id": "5e3f280e-23c3-485f-ac4c-d76d112841bf",
        "target": [
          {
            "reference": "Patient/707110c9-87e9-4bf1-8f2f-be96256478d5"
          },
          {
            "reference": "Bundle/04d614f8-33c7-4980-baf8-f067a67364d8"
          },
          {
            "reference": "Composition/95675f99-c943-430a-80dd-50bfe2e57138"
          },
          {
            "reference": "PractitionerRole/4f383d6a-8614-4382-82f3-262543530061"
          },
          {
            "reference": "Practitioner/36d620d8-c170-4f08-a8c8-a132423ddd28"
          },
          {
            "reference": "PractitionerRole/6f892787-4dd6-48bd-bf64-a30f0fc390b3"
          },
          {
            "reference": "Organization/27a3576f-29f8-4015-b26d-136e182363b9"
          }
        ],
        "activity": {
          "text": "Synthetic Example Data Generation"
        },
        "policy": [
          "https://synderai.net/synderai-synthetic-data-policy"
        ],
        "agent": [
          {
            "type": {
              "text": "author"
            },
            "who": {
              "reference": "Device/c13eb4ab-2ffd-4375-95d6-2622105d8501"
            }
          }
        ],
        "reason": [
          {
            "text": "Interoperability Testing and Training (non-clinical use)"
          }
        ],
        "text": {
          "status": "generated",
          "div": "<div xmlns=\"http://www.w3.org/1999/xhtml\">Provenance for SYNDERAI Synthetic Example Data Resource</div>"
        },
        "recorded": "2020-11-04T07:16:00Z"
      }
    },
    {
      "fullUrl": "urn:uuid:4f383d6a-8614-4382-82f3-262543530061",
      "resource": {
        "resourceType": "PractitionerRole",
        "id": "4f383d6a-8614-4382-82f3-262543530061",
        "meta": {
          "profile": [
            "http://hl7.eu/fhir/base/StructureDefinition/practitionerRole-eu"
          ]
        },
        "text": {
          "status": "generated",
          "div": "<div xmlns=\"http://www.w3.org/1999/xhtml\">Laboratory Role Id: 4f383d6a-8614-4382-82f3-262543530061</div>"
        },
        "practitioner": {
          "reference": "urn:uuid:36d620d8-c170-4f08-a8c8-a132423ddd28"
        }
      }
    },
    {
      "fullUrl": "urn:uuid:36d620d8-c170-4f08-a8c8-a132423ddd28",
      "resource": {
        "resourceType": "Practitioner",
        "id": "36d620d8-c170-4f08-a8c8-a132423ddd28",
        "meta": {
          "profile": [
            "http://hl7.eu/fhir/base/StructureDefinition/practitioner-eu"
          ]
        },
        "identifier": [
          {
            "assigner": {
              "display": "HL7 Europe"
            },
            "system": "urn:oid:2.16.840.1.113883.2.51.999",
            "value": "1894cdac-8c8f-4521-b69a-b8aff957cfb2"
          }
        ],
        "name": [
          {
            "prefix": [
              "dr"
            ],
            "given": [
              "Ex"
            ],
            "family": "Ample"
          }
        ],
        "address": [
          {
            "line": [
              "Laboratoire Central Européenne",
              "Boulevard du Jardin Botanique 32"
            ],
            "postalCode": "1000",
            "city": "Brussels",
            "country": "Belgium"
          }
        ],
        "text": {
          "status": "generated",
          "div": "<div xmlns=\"http://www.w3.org/1999/xhtml\">Laboratory: Laboratoire Central Européenne, 1000 Brussels, Belgium</div>"
        }
      }
    }
  ],
  "type": "document",
  "timestamp": "2020-11-04T07:16:00Z"
}
