{
  "resourceType": "Bundle",
  "id": "23e5de4d-e2c8-46b5-b64d-52f0d6d6a78d",
  "meta": {
    "profile": [
      "http://hl7.eu/fhir/laboratory/StructureDefinition/Bundle-eu-lab"
    ]
  },
  "identifier": {
    "assigner": {
      "display": "HL7 Europe"
    },
    "system": "urn:oid:2.16.840.1.113883.2.51.999",
    "value": "2b662e96-a47e-4baa-ab62-d53bb3993a9c"
  },
  "entry": [
    {
      "fullUrl": "urn:uuid:15573b56-b6c3-46d2-b727-cdf42c656b70",
      "resource": {
        "resourceType": "Composition",
        "id": "15573b56-b6c3-46d2-b727-cdf42c656b70",
        "meta": {
          "profile": [
            "http://hl7.eu/fhir/laboratory/StructureDefinition/Composition-eu-lab"
          ]
        },
        "identifier": {
          "assigner": {
            "display": "HL7 Europe"
          },
          "system": "urn:oid:2.16.840.1.113883.2.51.999",
          "value": "a3ad0a94-7fa0-4e93-8188-2d2805591482"
        },
        "author": [
          {
            "reference": "urn:uuid:5d4b23aa-7a4f-41a7-acc5-aabd0450d886"
          }
        ],
        "category": [
          {
            "coding": [
              {
                "code": "26436-6",
                "system": "http://loinc.org",
                "display": "Laboratory studies (set)"
              }
            ]
          }
        ],
        "type": {
          "coding": [
            {
              "code": "11502-2",
              "system": "http://loinc.org",
              "display": "Laboratory report"
            }
          ],
          "text": "Laboratory Report"
        },
        "section": [
          {
            "code": {
              "coding": [
                {
                  "code": "26436-6",
                  "system": "http://loinc.org",
                  "display": "Laboratory studies (set)"
                }
              ],
              "text": "Laboratory studies"
            },
            "section": [
              {
                "code": {
                  "coding": [
                    {
                      "code": "$18725-2",
                      "system": "http://loinc.org",
                      "display": "Microbiology studies"
                    }
                  ],
                  "text": "Microbiology Panel"
                },
                "entry": [
                  {
                    "reference": "urn:uuid:c1a0546e-35e5-4953-8c1e-be642ddfd370"
                  }
                ],
                "text": {
                  "status": "generated",
                  "div": "<div xmlns=\"http://www.w3.org/1999/xhtml\"><h3>Microbiology Panel</h3><table class=\"hl7__eu__lab__report\"><thead><tr><th>Test</th><th>29-OCT-2020</th><th>Reference&#xA0;Range</th><th>Unit</th></tr></thead><tbody><tr><td>SARS-CoV-2 (COVID-19) RNA panel - Respiratory system specimen by NAA with probe detection</td><td>Detected</td><td></td><td></td></tr></tbody></table></div>"
                },
                "title": "Microbiology Panel"
              }
            ],
            "title": "Laboratory Report"
          },
          {
            "text": {
              "status": "generated",
              "div": "<div xmlns=\"http://www.w3.org/1999/xhtml\"><h3>Annotation</h3><table class=\"hl7__eu__lab__report\"><tr><th>Conclusion and Recommendations based on this report and previous findings known to us</th></tr><tr><td>SARS-CoV-2 RNA is detected in the respiratory specimen, confirming active COVID-19 infection. Clinical correlation and appropriate infection control measures are recommended. No other laboratory abnormalities provided for further assessment.</td></tr></table></div>"
            },
            "code": {
              "coding": [
                {
                  "system": "http://loinc.org",
                  "code": "48767-8",
                  "display": "Annotation comment"
                }
              ]
            },
            "title": "Annotation comment"
          }
        ],
        "status": "final",
        "subject": {
          "reference": "urn:uuid:cb50d119-5edc-46e8-9403-abba8af03326",
          "display": "Khalid Nilsson"
        },
        "date": "2020-10-29T01:28:15Z",
        "title": "Laboratory Report",
        "confidentiality": "N"
      }
    },
    {
      "fullUrl": "urn:uuid:a75fc1cb-1998-4a1b-bf02-21e6d5c8e05d",
      "resource": {
        "resourceType": "DiagnosticReport",
        "id": "a75fc1cb-1998-4a1b-bf02-21e6d5c8e05d",
        "meta": {
          "profile": [
            "http://hl7.eu/fhir/laboratory/StructureDefinition/DiagnosticReport-eu-lab"
          ]
        },
        "identifier": [
          {
            "assigner": {
              "display": "HL7 Europe"
            },
            "system": "urn:oid:2.16.840.1.113883.2.51.999",
            "value": "96f2c2df-c300-449d-905c-cefcc07050e9"
          }
        ],
        "extension": [
          {
            "url": "http://hl7.org/fhir/5.0/StructureDefinition/extension-DiagnosticReport.composition",
            "valueReference": {
              "reference": "urn:uuid:a3ad0a94-7fa0-4e93-8188-2d2805591482"
            }
          }
        ],
        "category": [
          {
            "coding": [
              {
                "code": "26436-6",
                "system": "http://loinc.org",
                "display": "Laboratory studies (set)"
              }
            ]
          }
        ],
        "specimen": [
          {
            "reference": "urn:uuid:0c2c4a0a-0918-4908-a890-c70767f5f773"
          }
        ],
        "result": [
          {
            "reference": "urn:uuid:c1a0546e-35e5-4953-8c1e-be642ddfd370"
          }
        ],
        "status": "registered",
        "code": {
          "coding": [
            {
              "code": "11502-2",
              "system": "http://loinc.org",
              "display": "Laboratory report"
            }
          ]
        },
        "subject": {
          "reference": "urn:uuid:cb50d119-5edc-46e8-9403-abba8af03326",
          "display": "Khalid Nilsson"
        }
      }
    },
    {
      "fullUrl": "urn:uuid:cb50d119-5edc-46e8-9403-abba8af03326",
      "resource": {
        "resourceType": "Patient",
        "id": "cb50d119-5edc-46e8-9403-abba8af03326",
        "meta": {
          "security": [
            {
              "system": "http://terminology.hl7.org/CodeSystem/v3-ActReason",
              "code": "HTEST"
            },
            {
              "system": "http://terminology.hl7.org/CodeSystem/v3-ActReason",
              "code": "TRAIN"
            }
          ],
          "tag": [
            {
              "system": "https://synderai.net/fhir/CodeSystem/tags",
              "code": "synthetic",
              "display": "SYNDERAI Synthetic data"
            }
          ],
          "profile": [
            "http://hl7.eu/fhir/base/StructureDefinition/patient-eu-core"
          ]
        },
        "identifier": [
          {
            "type": {
              "coding": [
                {
                  "code": "PT",
                  "system": "http://terminology.hl7.org/CodeSystem/v2-0203"
                }
              ]
            },
            "system": "http://ec.europa.eu/identifier/eci",
            "value": "8339-594203-6"
          },
          {
            "type": {
              "coding": [
                {
                  "code": "MR",
                  "system": "http://terminology.hl7.org/CodeSystem/v2-0203"
                }
              ]
            },
            "system": "http://local.setting.eu/identifier",
            "value": "db9680f4-3d2c-0551-cb1c-61573f88f405"
          }
        ],
        "name": [
          {
            "family": "Nilsson"
          },
          {
            "given": [
              "Khalid"
            ]
          },
          {
            "text": "Khalid Nilsson"
          }
        ],
        "address": [
          {
            "line": [
              "Gengränd 482"
            ],
            "use": "home",
            "type": "physical",
            "postalCode": "691 31",
            "city": "Karlskoga",
            "country": "Sweden"
          }
        ],
        "telecom": [
          {
            "system": "phone",
            "value": "+46 (0)8 888 657 95"
          }
        ],
        "extension": [
          {
            "url": "http://hl7.org/fhir/StructureDefinition/patient-nationality",
            "valueCodeableConcept": {
              "coding": [
                {
                  "code": "SE",
                  "system": "http://hl7.org/fhir/ValueSet/country"
                }
              ]
            }
          }
        ],
        "text": {
          "status": "generated",
          "div": "<div xmlns=\"http://www.w3.org/1999/xhtml\"><table class=\"hl7__ips\"><tr><td>Khalid Nilsson</td><td>male</td><td>10-Apr-1952</td></tr></table></div>"
        },
        "gender": "male",
        "birthDate": "1952-04-10"
      }
    },
    {
      "fullUrl": "urn:uuid:d2b439e2-6f1e-45a5-8228-55ef0e85ca58",
      "resource": {
        "resourceType": "ServiceRequest",
        "id": "d2b439e2-6f1e-45a5-8228-55ef0e85ca58",
        "meta": {
          "profile": [
            "http://hl7.eu/fhir/laboratory/StructureDefinition/ServiceRequest-eu-lab"
          ]
        },
        "identifier": [
          {
            "system": "http://example.org",
            "value": "53568ae9-cf5e-4074-b2c5-b794ad36017f"
          }
        ],
        "specimen": [
          {
            "reference": "urn:uuid:0c2c4a0a-0918-4908-a890-c70767f5f773"
          }
        ],
        "reasonCode": [
          {
            "coding": [
              {
                "code": "64859006",
                "system": "http://snomed.info/sct",
                "display": "Osteoporosis"
              }
            ]
          },
          {
            "coding": [
              {
                "code": "196416002",
                "system": "http://snomed.info/sct",
                "display": "Impacted molars"
              }
            ]
          },
          {
            "coding": [
              {
                "code": "414545008",
                "system": "http://snomed.info/sct",
                "display": "Ischemic heart disease"
              }
            ]
          },
          {
            "coding": [
              {
                "code": "40055000",
                "system": "http://snomed.info/sct",
                "display": "Chronic sinusitis"
              }
            ]
          },
          {
            "coding": [
              {
                "code": "197927001",
                "system": "http://snomed.info/sct",
                "display": "Recurrent urinary tract infection"
              }
            ]
          },
          {
            "coding": [
              {
                "code": "15777000",
                "system": "http://snomed.info/sct",
                "display": "Prediabetes"
              }
            ]
          },
          {
            "coding": [
              {
                "code": "271737000",
                "system": "http://snomed.info/sct",
                "display": "Anemia"
              }
            ]
          }
        ],
        "status": "active",
        "intent": "order",
        "code": {
          "coding": [
            {
              "code": "108252007",
              "system": "http://snomed.info/sct",
              "display": "Laboratory procedure"
            }
          ]
        },
        "subject": {
          "reference": "urn:uuid:cb50d119-5edc-46e8-9403-abba8af03326",
          "display": "Khalid Nilsson"
        },
        "requester": {
          "reference": "urn:uuid:a5a0b571-082c-4f3e-8dd3-a9ea1058120f"
        }
      }
    },
    {
      "fullUrl": "urn:uuid:a5a0b571-082c-4f3e-8dd3-a9ea1058120f",
      "resource": {
        "resourceType": "PractitionerRole",
        "id": "a5a0b571-082c-4f3e-8dd3-a9ea1058120f",
        "meta": {
          "profile": [
            "http://hl7.eu/fhir/base/StructureDefinition/practitionerRole-eu"
          ]
        },
        "text": {
          "status": "generated",
          "div": "<div xmlns=\"http://www.w3.org/1999/xhtml\">Provider Role Id: a5a0b571-082c-4f3e-8dd3-a9ea1058120f</div>"
        },
        "organization": {
          "reference": "urn:uuid:929f078d-370c-4e4c-a80b-bed91dff6ca3"
        }
      }
    },
    {
      "fullUrl": "urn:uuid:929f078d-370c-4e4c-a80b-bed91dff6ca3",
      "resource": {
        "resourceType": "Organization",
        "id": "929f078d-370c-4e4c-a80b-bed91dff6ca3",
        "meta": {
          "profile": [
            "http://hl7.eu/fhir/base/StructureDefinition/organization-eu"
          ]
        },
        "identifier": [
          {
            "assigner": {
              "display": "HL7 Europe"
            },
            "system": "urn:oid:2.16.840.1.113883.2.51.999",
            "value": "577ff6ab-89b4-41e4-962a-3cef683dda9d"
          }
        ],
        "address": [
          {
            "city": "Karlskoga",
            "postalCode": "691 31",
            "country": "Sweden"
          }
        ],
        "text": {
          "status": "generated",
          "div": "<div xmlns=\"http://www.w3.org/1999/xhtml\">Provider Organization: Karlskoga Lasarett</div>"
        },
        "name": "Karlskoga Lasarett"
      }
    },
    {
      "fullUrl": "urn:uuid:0c2c4a0a-0918-4908-a890-c70767f5f773",
      "resource": {
        "resourceType": "Specimen",
        "id": "0c2c4a0a-0918-4908-a890-c70767f5f773",
        "meta": {
          "profile": [
            "http://hl7.eu/fhir/laboratory/StructureDefinition/Specimen-eu-lab"
          ]
        },
        "collection": {
          "collectedDateTime": "2020-10-29"
        },
        "text": {
          "status": "generated",
          "div": "<div xmlns=\"http://www.w3.org/1999/xhtml\"><table class=\"hl7__eu__lab__report\"><tr><th>Specimen</th><th>Collection Date</th></tr><tr><td>Respiratory specimen (specimen)</td><td><span class=\"nb\">29-Oct-2020</span></td></tr></table></div>"
        },
        "type": {
          "coding": [
            {
              "code": "258603007",
              "system": "http://snomed.info/sct",
              "display": "Respiratory specimen (specimen)"
            }
          ]
        }
      }
    },
    {
      "fullUrl": "urn:uuid:c1a0546e-35e5-4953-8c1e-be642ddfd370",
      "resource": {
        "resourceType": "Observation",
        "id": "c1a0546e-35e5-4953-8c1e-be642ddfd370",
        "meta": {
          "profile": [
            "http://hl7.eu/fhir/laboratory/StructureDefinition/Observation-resultslab-eu-lab"
          ]
        },
        "performer": [
          {
            "display": "The Central European Lab"
          }
        ],
        "category": [
          {
            "coding": [
              {
                "system": "http://terminology.hl7.org/CodeSystem/observation-category",
                "code": "laboratory"
              }
            ]
          }
        ],
        "code": {
          "coding": [
            {
              "code": "94531-1",
              "system": "http://loinc.org",
              "display": "SARS-CoV-2 (COVID-19) RNA panel - Respiratory system specimen by NAA with probe detection"
            }
          ],
          "text": "SARS-CoV-2 (COVID-19) RNA panel - Respiratory system specimen by NAA with probe detection"
        },
        "text": {
          "status": "generated",
          "div": "<div xmlns=\"http://www.w3.org/1999/xhtml\"><table class=\"hl7__eu__lab__report\"><tr><th>Test</th><th>29-Oct-2020</th><th>Reference&#xA0;Range</th><th>Unit</th></tr><tr><td>SARS-CoV-2 (COVID-19) RNA panel - Respiratory system specimen by NAA with probe detection</td></tr></table></div>"
        },
        "status": "final",
        "subject": {
          "reference": "urn:uuid:cb50d119-5edc-46e8-9403-abba8af03326",
          "display": "Khalid Nilsson"
        },
        "effectiveDateTime": "2020-10-29T00:28:15Z",
        "specimen": {
          "reference": "urn:uuid:0c2c4a0a-0918-4908-a890-c70767f5f773"
        }
      }
    },
    {
      "fullUrl": "urn:uuid:061c83c9-fe4b-42e9-9546-e6beba53a2f7",
      "resource": {
        "resourceType": "Device",
        "id": "061c83c9-fe4b-42e9-9546-e6beba53a2f7",
        "deviceName": [
          {
            "name": "SYNDERAI Synthetic Generator",
            "type": "manufacturer-name"
          }
        ],
        "version": [
          {
            "value": "5.0"
          }
        ],
        "text": {
          "status": "generated",
          "div": "<div xmlns=\"http://www.w3.org/1999/xhtml\">SYNDERAI Synthetic Generator v5.0</div>"
        },
        "status": "active\"",
        "distinctIdentifier": "synderai-generator-50",
        "manufacturer": "SYNDERAI Project"
      }
    },
    {
      "fullUrl": "urn:uuid:d570f289-5a41-4102-8d2b-6436921d9307",
      "resource": {
        "resourceType": "Provenance",
        "id": "d570f289-5a41-4102-8d2b-6436921d9307",
        "target": [
          {
            "reference": "Patient/cb50d119-5edc-46e8-9403-abba8af03326"
          },
          {
            "reference": "Bundle/23e5de4d-e2c8-46b5-b64d-52f0d6d6a78d"
          },
          {
            "reference": "Composition/15573b56-b6c3-46d2-b727-cdf42c656b70"
          },
          {
            "reference": "PractitionerRole/5d4b23aa-7a4f-41a7-acc5-aabd0450d886"
          },
          {
            "reference": "Practitioner/0f9dd5d1-c6fc-48fe-8d78-82331742aa84"
          },
          {
            "reference": "PractitionerRole/a5a0b571-082c-4f3e-8dd3-a9ea1058120f"
          },
          {
            "reference": "Organization/929f078d-370c-4e4c-a80b-bed91dff6ca3"
          }
        ],
        "activity": {
          "text": "Synthetic Example Data Generation"
        },
        "policy": [
          "https://synderai.net/synderai-synthetic-data-policy"
        ],
        "agent": [
          {
            "type": {
              "text": "author"
            },
            "who": {
              "reference": "Device/061c83c9-fe4b-42e9-9546-e6beba53a2f7"
            }
          }
        ],
        "reason": [
          {
            "text": "Interoperability Testing and Training (non-clinical use)"
          }
        ],
        "text": {
          "status": "generated",
          "div": "<div xmlns=\"http://www.w3.org/1999/xhtml\">Provenance for SYNDERAI Synthetic Example Data Resource</div>"
        },
        "recorded": "2020-10-29T01:28:15Z"
      }
    },
    {
      "fullUrl": "urn:uuid:5d4b23aa-7a4f-41a7-acc5-aabd0450d886",
      "resource": {
        "resourceType": "PractitionerRole",
        "id": "5d4b23aa-7a4f-41a7-acc5-aabd0450d886",
        "meta": {
          "profile": [
            "http://hl7.eu/fhir/base/StructureDefinition/practitionerRole-eu"
          ]
        },
        "text": {
          "status": "generated",
          "div": "<div xmlns=\"http://www.w3.org/1999/xhtml\">Laboratory Role Id: 5d4b23aa-7a4f-41a7-acc5-aabd0450d886</div>"
        },
        "practitioner": {
          "reference": "urn:uuid:0f9dd5d1-c6fc-48fe-8d78-82331742aa84"
        }
      }
    },
    {
      "fullUrl": "urn:uuid:0f9dd5d1-c6fc-48fe-8d78-82331742aa84",
      "resource": {
        "resourceType": "Practitioner",
        "id": "0f9dd5d1-c6fc-48fe-8d78-82331742aa84",
        "meta": {
          "profile": [
            "http://hl7.eu/fhir/base/StructureDefinition/practitioner-eu"
          ]
        },
        "identifier": [
          {
            "assigner": {
              "display": "HL7 Europe"
            },
            "system": "urn:oid:2.16.840.1.113883.2.51.999",
            "value": "faa2db0d-8e52-4ca1-b7ab-aa5dbb132e50"
          }
        ],
        "name": [
          {
            "prefix": [
              "dr"
            ],
            "given": [
              "Ex"
            ],
            "family": "Ample"
          }
        ],
        "address": [
          {
            "line": [
              "Laboratoire Central Européenne",
              "Boulevard du Jardin Botanique 32"
            ],
            "postalCode": "1000",
            "city": "Brussels",
            "country": "Belgium"
          }
        ],
        "text": {
          "status": "generated",
          "div": "<div xmlns=\"http://www.w3.org/1999/xhtml\">Laboratory: Laboratoire Central Européenne, 1000 Brussels, Belgium</div>"
        }
      }
    }
  ],
  "type": "document",
  "timestamp": "2020-10-29T01:28:15Z"
}
