{
  "resourceType": "Bundle",
  "id": "c5b07a03-9641-49e4-a962-fdd79b2398a1",
  "meta": {
    "profile": [
      "http://hl7.eu/fhir/laboratory/StructureDefinition/Bundle-eu-lab"
    ]
  },
  "identifier": {
    "assigner": {
      "display": "HL7 Europe"
    },
    "system": "urn:oid:2.16.840.1.113883.2.51.999",
    "value": "68878966-69cc-4846-8bb9-f832303b2c94"
  },
  "entry": [
    {
      "fullUrl": "urn:uuid:d7d98231-0341-451d-a9e9-aec0811be87d",
      "resource": {
        "resourceType": "Composition",
        "id": "d7d98231-0341-451d-a9e9-aec0811be87d",
        "meta": {
          "profile": [
            "http://hl7.eu/fhir/laboratory/StructureDefinition/Composition-eu-lab"
          ]
        },
        "identifier": {
          "assigner": {
            "display": "HL7 Europe"
          },
          "system": "urn:oid:2.16.840.1.113883.2.51.999",
          "value": "61e65441-f62d-4896-aa3f-8d5330fdc0d8"
        },
        "author": [
          {
            "reference": "urn:uuid:b520bc9c-fb8f-4e95-9041-e8654ccaf893"
          }
        ],
        "category": [
          {
            "coding": [
              {
                "code": "26436-6",
                "system": "http://loinc.org",
                "display": "Laboratory studies (set)"
              }
            ]
          }
        ],
        "type": {
          "coding": [
            {
              "code": "11502-2",
              "system": "http://loinc.org",
              "display": "Laboratory report"
            }
          ],
          "text": "Laboratory Report"
        },
        "section": [
          {
            "code": {
              "coding": [
                {
                  "code": "26436-6",
                  "system": "http://loinc.org",
                  "display": "Laboratory studies (set)"
                }
              ],
              "text": "Laboratory studies"
            },
            "section": [
              {
                "code": {
                  "coding": [
                    {
                      "code": "$18719-5",
                      "system": "http://loinc.org",
                      "display": "Chemistry studies (set)"
                    }
                  ],
                  "text": "Chemistry"
                },
                "entry": [
                  {
                    "reference": "urn:uuid:1ce4b044-a2df-4ec8-ba7b-19261e267cb9"
                  },
                  {
                    "reference": "urn:uuid:f207b40e-1e4b-4357-8404-99a585517a62"
                  },
                  {
                    "reference": "urn:uuid:eac567e0-9cba-4400-a706-f9e2217f39f9"
                  },
                  {
                    "reference": "urn:uuid:32b05a5d-039e-4c8f-812c-19b8d58bcbb9"
                  },
                  {
                    "reference": "urn:uuid:1e3ad223-f226-4f89-9a79-da16208b02d9"
                  },
                  {
                    "reference": "urn:uuid:6cab764b-cd0d-4733-a4ce-82795209d230"
                  },
                  {
                    "reference": "urn:uuid:43f7bcca-91a1-47c0-86e1-af03091042e4"
                  },
                  {
                    "reference": "urn:uuid:55844ce9-c6a6-42b3-b88c-82de1844676b"
                  },
                  {
                    "reference": "urn:uuid:71d032eb-5806-4426-bdff-0385b56c1222"
                  },
                  {
                    "reference": "urn:uuid:f923668f-92f8-4dcb-a5a3-c91f116bdf5a"
                  },
                  {
                    "reference": "urn:uuid:1979be92-d59b-4e3f-9ccc-3e47271a497f"
                  },
                  {
                    "reference": "urn:uuid:918547e0-82f9-45aa-8de6-84f71301d657"
                  },
                  {
                    "reference": "urn:uuid:55088ada-964c-4d3f-86ab-5746d4dfd4b9"
                  },
                  {
                    "reference": "urn:uuid:d83bb892-30f3-4ab7-ba5e-452c63c035ff"
                  },
                  {
                    "reference": "urn:uuid:be286787-0b19-4fe7-a666-4aabb9a56733"
                  },
                  {
                    "reference": "urn:uuid:da79538d-fb61-4735-87ab-d6525b76dd6e"
                  },
                  {
                    "reference": "urn:uuid:1f077e77-0694-4fa4-9228-53e91782b93f"
                  },
                  {
                    "reference": "urn:uuid:69546da4-5705-41b3-9231-efd8476a1c84"
                  }
                ],
                "text": {
                  "status": "generated",
                  "div": "<div xmlns=\"http://www.w3.org/1999/xhtml\"><h3>Chemistry</h3><table class=\"hl7__eu__lab__report\"><thead><tr><th>Test</th><th>27-DEC-2017</th><th>Reference&#xA0;Range</th><th>Unit</th></tr></thead><tbody><tr><td>Glucose [Mass/volume] in Serum or Plasma</td><td>70.7</td><td>70 - 140</td><td>mg/dL</td></tr><tr><td>Urea nitrogen [Mass/volume] in Serum or Plasma</td><td>15.6</td><td>7 - 20</td><td>mg/dL</td></tr><tr><td>Creatinine [Mass/volume] in Serum or Plasma</td><td><strong>2.0 H</strong></td><td>0.9 - 1.3</td><td>mg/dL</td></tr><tr><td>Calcium [Mass/volume] in Serum or Plasma</td><td>8.8</td><td>8.5 - 10.5</td><td>mg/dL</td></tr><tr><td>Sodium [Moles/volume] in Serum or Plasma</td><td>138.4</td><td>135 - 145</td><td>mmol/L</td></tr><tr><td>Potassium [Moles/volume] in Serum or Plasma</td><td>4.3</td><td>3.5 - 5</td><td>mmol/L</td></tr><tr><td>Chloride [Moles/volume] in Serum or Plasma</td><td><strong>110.9 H</strong></td><td>98 - 108</td><td>mmol/L</td></tr><tr><td>Carbon dioxide, total [Moles/volume] in Serum or Plasma</td><td>27.2</td><td>22 - 29</td><td>mmol/L</td></tr><tr><td>Ketones [Presence] in Urine by Test strip</td><td>Urine ketone test = ++</td><td></td><td></td></tr><tr><td>Hemoglobin A1c/Hemoglobin.total in Blood</td><td><strong>3.3 L</strong></td><td>4.3 - 6.4</td><td>%</td></tr><tr><td>Glucose [Mass/volume] in Blood</td><td>70.7</td><td>70 - 140</td><td>mg/dL</td></tr><tr><td>Urea nitrogen [Mass/volume] in Blood</td><td>15.6</td><td>7 - 20</td><td>mg/dL</td></tr><tr><td>Creatinine [Mass/volume] in Blood</td><td><strong>6.8 H</strong></td><td>0.6 - 1.3</td><td>mg/dL</td></tr><tr><td>Calcium [Mass/volume] in Blood</td><td>8.8</td><td>8.5 - 10.5</td><td>mg/dL</td></tr><tr><td>Sodium [Moles/volume] in Blood</td><td>138.4</td><td>135 - 145</td><td>mmol/L</td></tr><tr><td>Potassium [Moles/volume] in Blood</td><td>4.3</td><td>3.5 - 5.3</td><td>mmol/L</td></tr><tr><td>Chloride [Moles/volume] in Blood</td><td><strong>110.9 H</strong></td><td>98 - 110</td><td>mmol/L</td></tr><tr><td>Carbon dioxide, total [Moles/volume] in Blood</td><td>27.2</td><td>22 - 29</td><td>mmol/L</td></tr></tbody></table></div>"
                },
                "title": "Chemistry"
              },
              {
                "code": {
                  "coding": [
                    {
                      "code": "$18729-4",
                      "system": "http://loinc.org",
                      "display": "Urinalysis studies (set)"
                    }
                  ],
                  "text": "Urinalysis"
                },
                "entry": [
                  {
                    "reference": "urn:uuid:0a8c8431-17ce-4d71-8b51-acb9d8956283"
                  },
                  {
                    "reference": "urn:uuid:6be11e30-10cb-4f6e-a38b-7cc439396809"
                  },
                  {
                    "reference": "urn:uuid:6e7931c2-c343-4730-9932-460a424f3be7"
                  },
                  {
                    "reference": "urn:uuid:2e52663b-f0b8-42d9-b423-f36c7f1ac14b"
                  },
                  {
                    "reference": "urn:uuid:df820e48-5ccd-4b23-819e-ebc485e176fa"
                  },
                  {
                    "reference": "urn:uuid:9a906841-b99d-4d7b-a07e-987b1e4e471d"
                  },
                  {
                    "reference": "urn:uuid:1d581a40-2281-4796-bdb1-8edbbca091f8"
                  },
                  {
                    "reference": "urn:uuid:50d6230d-bead-402f-93c1-e304bb7d5beb"
                  },
                  {
                    "reference": "urn:uuid:6729e4d6-6ece-46cc-8ad3-79dca0655b61"
                  },
                  {
                    "reference": "urn:uuid:f74afa54-007b-4521-90d0-644f7b3f73ed"
                  },
                  {
                    "reference": "urn:uuid:97252261-8fd0-434d-a55f-e5a194f0dd4f"
                  },
                  {
                    "reference": "urn:uuid:5be6369d-26e3-4f1b-be29-15d33bc887b1"
                  }
                ],
                "text": {
                  "status": "generated",
                  "div": "<div xmlns=\"http://www.w3.org/1999/xhtml\"><h3>Urinalysis</h3><table class=\"hl7__eu__lab__report\"><thead><tr><th>Test</th><th>27-DEC-2017</th><th>Reference&#xA0;Range</th><th>Unit</th></tr></thead><tbody><tr><td>Glucose [Mass/volume] in Urine by Test strip</td><td><strong>2.0 H</strong></td><td>0 - 0.8</td><td>mg/dL</td></tr><tr><td>Glucose [Presence] in Urine by Test strip</td><td>++</td><td></td><td></td></tr><tr><td>Bilirubin.total [Mass/volume] in Urine by Test strip</td><td>0.3</td><td>0.2 - 1</td><td>mg/dL</td></tr><tr><td>Bilirubin.total [Presence] in Urine by Test strip</td><td>Finding of bilirubin in urine</td><td></td><td></td></tr><tr><td>Ketones [Mass/volume] in Urine by Test strip</td><td><strong>8.9 H</strong></td><td>0 - 5</td><td>mg/dL</td></tr><tr><td>Specific gravity of Urine by Test strip</td><td><strong>1.0 L</strong></td><td>1.005 - 1.03</td><td>{nominal}</td></tr><tr><td>pH of Urine by Test strip</td><td>5.9</td><td>4.6 - 7</td><td>pH</td></tr><tr><td>Protein [Mass/volume] in Urine by Test strip</td><td><strong>233.6 H</strong></td><td>0 - 150</td><td>mg/dL</td></tr><tr><td>Protein [Presence] in Urine by Test strip</td><td>Urine protein test = ++</td><td></td><td></td></tr><tr><td>Nitrite [Presence] in Urine by Test strip</td><td>Urine nitrite negative</td><td></td><td></td></tr><tr><td>Hemoglobin [Presence] in Urine by Test strip</td><td>Urine blood test = negative</td><td></td><td></td></tr><tr><td>Leukocyte esterase [Presence] in Urine by Test strip</td><td>Urine leukocyte test negative</td><td></td><td></td></tr></tbody></table></div>"
                },
                "title": "Urinalysis"
              },
              {
                "code": {
                  "coding": [
                    {
                      "code": "$LP7846-1",
                      "system": "http://loinc.org",
                      "display": "Specimen information"
                    }
                  ],
                  "text": "Specimen information"
                },
                "entry": [
                  {
                    "reference": "urn:uuid:a175c074-b5ba-4fee-89a2-177e9e6264b6"
                  },
                  {
                    "reference": "urn:uuid:2ee0f49a-d778-4090-a658-f5bde27a535b"
                  },
                  {
                    "reference": "urn:uuid:1f7bf09f-0364-43dd-9fec-da8c2da72ca4"
                  },
                  {
                    "reference": "urn:uuid:95408daf-94e8-488f-b00a-f50e12824fc9"
                  }
                ],
                "text": {
                  "status": "generated",
                  "div": "<div xmlns=\"http://www.w3.org/1999/xhtml\"><h3>Specimen information</h3><table class=\"hl7__eu__lab__report\"><thead><tr><th>Test</th><th>27-DEC-2017</th><th>Specimen</th><th></th></tr></thead><tbody><tr><td>Appearance of Urine</td><td>Cloudy urine</td><td>Urine</td><td></td></tr><tr><td>Odor of Urine</td><td>Urine smell ammoniacal</td><td>Urine</td><td></td></tr><tr><td>Clarity of Urine</td><td>Translucent</td><td>Urine</td><td></td></tr><tr><td>Color of Urine</td><td>Brown color</td><td>Urine</td><td></td></tr></tbody></table></div>"
                },
                "title": "Specimen information"
              }
            ],
            "title": "Laboratory Report"
          },
          {
            "text": {
              "status": "generated",
              "div": "<div xmlns=\"http://www.w3.org/1999/xhtml\"><h3>Annotation</h3><table class=\"hl7__eu__lab__report\"><tr><th>Conclusion and Recommendations based on this report and previous findings known to us</th></tr><tr><td>The patient shows markedly elevated creatinine, proteinuria, glucosuria, ketonuria, and low urine specific gravity, suggesting significant renal dysfunction, possibly acute or chronic kidney disease with impaired filtration. The presence of glucose and ketones in urine, despite normal blood glucose and low HbA1c, may indicate tubular dysfunction rather than diabetes. Urine abnormalities (cloudy, brown, ammoniacal) further support renal pathology. Prompt nephrology evaluation is recommended.</td></tr></table></div>"
            },
            "code": {
              "coding": [
                {
                  "system": "http://loinc.org",
                  "code": "48767-8",
                  "display": "Annotation comment"
                }
              ]
            },
            "title": "Annotation comment"
          }
        ],
        "status": "final",
        "subject": {
          "reference": "urn:uuid:a68d4795-a41d-4c4b-a909-aa08773bb98a",
          "display": "Θεμιστοκλής Λιναρδάκη"
        },
        "date": "2017-12-27T07:16:00Z",
        "title": "Laboratory Report",
        "confidentiality": "N"
      }
    },
    {
      "fullUrl": "urn:uuid:136dc6ce-a751-4934-abf3-fd9b76ccc42d",
      "resource": {
        "resourceType": "DiagnosticReport",
        "id": "136dc6ce-a751-4934-abf3-fd9b76ccc42d",
        "meta": {
          "profile": [
            "http://hl7.eu/fhir/laboratory/StructureDefinition/DiagnosticReport-eu-lab"
          ]
        },
        "identifier": [
          {
            "assigner": {
              "display": "HL7 Europe"
            },
            "system": "urn:oid:2.16.840.1.113883.2.51.999",
            "value": "3b5a68ca-b31e-4583-a33c-3ab585ad9aa9"
          }
        ],
        "extension": [
          {
            "url": "http://hl7.org/fhir/5.0/StructureDefinition/extension-DiagnosticReport.composition",
            "valueReference": {
              "reference": "urn:uuid:61e65441-f62d-4896-aa3f-8d5330fdc0d8"
            }
          }
        ],
        "category": [
          {
            "coding": [
              {
                "code": "26436-6",
                "system": "http://loinc.org",
                "display": "Laboratory studies (set)"
              }
            ]
          }
        ],
        "specimen": [
          {
            "reference": "urn:uuid:415c7e08-268c-4df1-8a8f-dd221114fbc8"
          },
          {
            "reference": "urn:uuid:ba45c65e-c77f-4702-b8b5-9a232a503fc5"
          },
          {
            "reference": "urn:uuid:b83ba050-3aee-4ee5-bf29-6b270b631902"
          }
        ],
        "result": [
          {
            "reference": "urn:uuid:1ce4b044-a2df-4ec8-ba7b-19261e267cb9"
          },
          {
            "reference": "urn:uuid:f207b40e-1e4b-4357-8404-99a585517a62"
          },
          {
            "reference": "urn:uuid:eac567e0-9cba-4400-a706-f9e2217f39f9"
          },
          {
            "reference": "urn:uuid:32b05a5d-039e-4c8f-812c-19b8d58bcbb9"
          },
          {
            "reference": "urn:uuid:1e3ad223-f226-4f89-9a79-da16208b02d9"
          },
          {
            "reference": "urn:uuid:6cab764b-cd0d-4733-a4ce-82795209d230"
          },
          {
            "reference": "urn:uuid:43f7bcca-91a1-47c0-86e1-af03091042e4"
          },
          {
            "reference": "urn:uuid:55844ce9-c6a6-42b3-b88c-82de1844676b"
          },
          {
            "reference": "urn:uuid:a175c074-b5ba-4fee-89a2-177e9e6264b6"
          },
          {
            "reference": "urn:uuid:2ee0f49a-d778-4090-a658-f5bde27a535b"
          },
          {
            "reference": "urn:uuid:1f7bf09f-0364-43dd-9fec-da8c2da72ca4"
          },
          {
            "reference": "urn:uuid:95408daf-94e8-488f-b00a-f50e12824fc9"
          },
          {
            "reference": "urn:uuid:0a8c8431-17ce-4d71-8b51-acb9d8956283"
          },
          {
            "reference": "urn:uuid:6be11e30-10cb-4f6e-a38b-7cc439396809"
          },
          {
            "reference": "urn:uuid:6e7931c2-c343-4730-9932-460a424f3be7"
          },
          {
            "reference": "urn:uuid:2e52663b-f0b8-42d9-b423-f36c7f1ac14b"
          },
          {
            "reference": "urn:uuid:df820e48-5ccd-4b23-819e-ebc485e176fa"
          },
          {
            "reference": "urn:uuid:71d032eb-5806-4426-bdff-0385b56c1222"
          },
          {
            "reference": "urn:uuid:9a906841-b99d-4d7b-a07e-987b1e4e471d"
          },
          {
            "reference": "urn:uuid:1d581a40-2281-4796-bdb1-8edbbca091f8"
          },
          {
            "reference": "urn:uuid:50d6230d-bead-402f-93c1-e304bb7d5beb"
          },
          {
            "reference": "urn:uuid:6729e4d6-6ece-46cc-8ad3-79dca0655b61"
          },
          {
            "reference": "urn:uuid:f74afa54-007b-4521-90d0-644f7b3f73ed"
          },
          {
            "reference": "urn:uuid:97252261-8fd0-434d-a55f-e5a194f0dd4f"
          },
          {
            "reference": "urn:uuid:5be6369d-26e3-4f1b-be29-15d33bc887b1"
          },
          {
            "reference": "urn:uuid:f923668f-92f8-4dcb-a5a3-c91f116bdf5a"
          },
          {
            "reference": "urn:uuid:1979be92-d59b-4e3f-9ccc-3e47271a497f"
          },
          {
            "reference": "urn:uuid:918547e0-82f9-45aa-8de6-84f71301d657"
          },
          {
            "reference": "urn:uuid:55088ada-964c-4d3f-86ab-5746d4dfd4b9"
          },
          {
            "reference": "urn:uuid:d83bb892-30f3-4ab7-ba5e-452c63c035ff"
          },
          {
            "reference": "urn:uuid:be286787-0b19-4fe7-a666-4aabb9a56733"
          },
          {
            "reference": "urn:uuid:da79538d-fb61-4735-87ab-d6525b76dd6e"
          },
          {
            "reference": "urn:uuid:1f077e77-0694-4fa4-9228-53e91782b93f"
          },
          {
            "reference": "urn:uuid:69546da4-5705-41b3-9231-efd8476a1c84"
          }
        ],
        "status": "registered",
        "code": {
          "coding": [
            {
              "code": "11502-2",
              "system": "http://loinc.org",
              "display": "Laboratory report"
            }
          ]
        },
        "subject": {
          "reference": "urn:uuid:a68d4795-a41d-4c4b-a909-aa08773bb98a",
          "display": "Θεμιστοκλής Λιναρδάκη"
        }
      }
    },
    {
      "fullUrl": "urn:uuid:a68d4795-a41d-4c4b-a909-aa08773bb98a",
      "resource": {
        "resourceType": "Patient",
        "id": "a68d4795-a41d-4c4b-a909-aa08773bb98a",
        "meta": {
          "security": [
            {
              "system": "http://terminology.hl7.org/CodeSystem/v3-ActReason",
              "code": "HTEST"
            },
            {
              "system": "http://terminology.hl7.org/CodeSystem/v3-ActReason",
              "code": "TRAIN"
            }
          ],
          "tag": [
            {
              "system": "https://synderai.net/fhir/CodeSystem/tags",
              "code": "synthetic",
              "display": "SYNDERAI Synthetic data"
            }
          ],
          "profile": [
            "http://hl7.eu/fhir/base/StructureDefinition/patient-eu-core"
          ]
        },
        "identifier": [
          {
            "type": {
              "coding": [
                {
                  "code": "PT",
                  "system": "http://terminology.hl7.org/CodeSystem/v2-0203"
                }
              ]
            },
            "system": "http://ec.europa.eu/identifier/eci",
            "value": "5962-476889-7"
          },
          {
            "type": {
              "coding": [
                {
                  "code": "MR",
                  "system": "http://terminology.hl7.org/CodeSystem/v2-0203"
                }
              ]
            },
            "system": "http://local.setting.eu/identifier",
            "value": "925e2603-2ef9-6bdf-1330-2ebf526636c4"
          }
        ],
        "name": [
          {
            "family": "Λιναρδάκη"
          },
          {
            "given": [
              "Θεμιστοκλής"
            ]
          },
          {
            "text": "Θεμιστοκλής Λιναρδάκη"
          }
        ],
        "address": [
          {
            "line": [
              "Αμαρύνθου 54-58"
            ],
            "use": "home",
            "type": "physical",
            "postalCode": "262 21",
            "city": "Πάτρα",
            "country": "Greece"
          }
        ],
        "telecom": [
          {
            "system": "phone",
            "value": "+302226364480"
          }
        ],
        "extension": [
          {
            "url": "http://hl7.org/fhir/StructureDefinition/patient-nationality",
            "valueCodeableConcept": {
              "coding": [
                {
                  "code": "GR",
                  "system": "http://hl7.org/fhir/ValueSet/country"
                }
              ]
            }
          }
        ],
        "text": {
          "status": "generated",
          "div": "<div xmlns=\"http://www.w3.org/1999/xhtml\"><table class=\"hl7__ips\"><tr><td>Θεμιστοκλής Λιναρδάκη</td><td>male</td><td>21-Jan-1974</td></tr></table></div>"
        },
        "gender": "male",
        "birthDate": "1974-01-21"
      }
    },
    {
      "fullUrl": "urn:uuid:82902ed9-1f2b-4891-aece-c3a622861fbc",
      "resource": {
        "resourceType": "ServiceRequest",
        "id": "82902ed9-1f2b-4891-aece-c3a622861fbc",
        "meta": {
          "profile": [
            "http://hl7.eu/fhir/laboratory/StructureDefinition/ServiceRequest-eu-lab"
          ]
        },
        "identifier": [
          {
            "system": "http://example.org",
            "value": "50827cc2-62da-43f1-b9e8-22fb4fe55ad1"
          }
        ],
        "specimen": [
          {
            "reference": "urn:uuid:415c7e08-268c-4df1-8a8f-dd221114fbc8"
          },
          {
            "reference": "urn:uuid:ba45c65e-c77f-4702-b8b5-9a232a503fc5"
          },
          {
            "reference": "urn:uuid:b83ba050-3aee-4ee5-bf29-6b270b631902"
          }
        ],
        "reasonCode": [
          {
            "coding": [
              {
                "code": "237602007",
                "system": "http://snomed.info/sct",
                "display": "Metabolic syndrome X"
              }
            ]
          },
          {
            "coding": [
              {
                "code": "433144002",
                "system": "http://snomed.info/sct",
                "display": "Chronic kidney disease stage 3"
              }
            ]
          },
          {
            "coding": [
              {
                "code": "157141000119108",
                "system": "http://snomed.info/sct",
                "display": "Proteinuria due to type 2 diabetes mellitus"
              }
            ]
          },
          {
            "coding": [
              {
                "code": "431856006",
                "system": "http://snomed.info/sct",
                "display": "Chronic kidney disease stage 2"
              }
            ]
          },
          {
            "coding": [
              {
                "code": "90781000119102",
                "system": "http://snomed.info/sct",
                "display": "Microalbuminuria due to type 2 diabetes mellitus"
              }
            ]
          },
          {
            "coding": [
              {
                "code": "127013003",
                "system": "http://snomed.info/sct",
                "display": "Disorder of kidney due to diabetes mellitus"
              }
            ]
          },
          {
            "coding": [
              {
                "code": "431855005",
                "system": "http://snomed.info/sct",
                "display": "Chronic kidney disease stage 1"
              }
            ]
          },
          {
            "coding": [
              {
                "code": "59621000",
                "system": "http://snomed.info/sct",
                "display": "Essential hypertension"
              }
            ]
          },
          {
            "coding": [
              {
                "code": "15777000",
                "system": "http://snomed.info/sct",
                "display": "Prediabetes"
              }
            ]
          },
          {
            "coding": [
              {
                "code": "271737000",
                "system": "http://snomed.info/sct",
                "display": "Anemia"
              }
            ]
          }
        ],
        "status": "active",
        "intent": "order",
        "code": {
          "coding": [
            {
              "code": "108252007",
              "system": "http://snomed.info/sct",
              "display": "Laboratory procedure"
            }
          ]
        },
        "subject": {
          "reference": "urn:uuid:a68d4795-a41d-4c4b-a909-aa08773bb98a",
          "display": "Θεμιστοκλής Λιναρδάκη"
        },
        "requester": {
          "reference": "urn:uuid:831d98f7-4b98-4a6d-9ec0-b18c90221bbf"
        }
      }
    },
    {
      "fullUrl": "urn:uuid:831d98f7-4b98-4a6d-9ec0-b18c90221bbf",
      "resource": {
        "resourceType": "PractitionerRole",
        "id": "831d98f7-4b98-4a6d-9ec0-b18c90221bbf",
        "meta": {
          "profile": [
            "http://hl7.eu/fhir/base/StructureDefinition/practitionerRole-eu"
          ]
        },
        "text": {
          "status": "generated",
          "div": "<div xmlns=\"http://www.w3.org/1999/xhtml\">Provider Role Id: 831d98f7-4b98-4a6d-9ec0-b18c90221bbf</div>"
        },
        "organization": {
          "reference": "urn:uuid:ca892b6d-3e5f-4e21-ada1-319544a5ceaf"
        }
      }
    },
    {
      "fullUrl": "urn:uuid:ca892b6d-3e5f-4e21-ada1-319544a5ceaf",
      "resource": {
        "resourceType": "Organization",
        "id": "ca892b6d-3e5f-4e21-ada1-319544a5ceaf",
        "meta": {
          "profile": [
            "http://hl7.eu/fhir/base/StructureDefinition/organization-eu"
          ]
        },
        "identifier": [
          {
            "assigner": {
              "display": "HL7 Europe"
            },
            "system": "urn:oid:2.16.840.1.113883.2.51.999",
            "value": "98581ca7-392f-4580-b6d0-6b2767a226c4"
          }
        ],
        "address": [
          {
            "line": [
              "211 Odós Filellinon"
            ],
            "city": "Patras",
            "postalCode": "262 21",
            "country": "Greece"
          }
        ],
        "text": {
          "status": "generated",
          "div": "<div xmlns=\"http://www.w3.org/1999/xhtml\">Provider Organization: Dr. Dimitris Economou</div>"
        },
        "name": "Dr. Dimitris Economou"
      }
    },
    {
      "fullUrl": "urn:uuid:415c7e08-268c-4df1-8a8f-dd221114fbc8",
      "resource": {
        "resourceType": "Specimen",
        "id": "415c7e08-268c-4df1-8a8f-dd221114fbc8",
        "meta": {
          "profile": [
            "http://hl7.eu/fhir/laboratory/StructureDefinition/Specimen-eu-lab"
          ]
        },
        "collection": {
          "collectedDateTime": "2017-12-27"
        },
        "text": {
          "status": "generated",
          "div": "<div xmlns=\"http://www.w3.org/1999/xhtml\"><table class=\"hl7__eu__lab__report\"><tr><th>Specimen</th><th>Collection Date</th></tr><tr><td>Acellular blood (serum or plasma) specimen</td><td><span class=\"nb\">27-Dec-2017</span></td></tr></table></div>"
        },
        "type": {
          "coding": [
            {
              "code": "122592007",
              "system": "http://snomed.info/sct",
              "display": "Acellular blood (serum or plasma) specimen"
            }
          ]
        }
      }
    },
    {
      "fullUrl": "urn:uuid:ba45c65e-c77f-4702-b8b5-9a232a503fc5",
      "resource": {
        "resourceType": "Specimen",
        "id": "ba45c65e-c77f-4702-b8b5-9a232a503fc5",
        "meta": {
          "profile": [
            "http://hl7.eu/fhir/laboratory/StructureDefinition/Specimen-eu-lab"
          ]
        },
        "collection": {
          "collectedDateTime": "2017-12-27"
        },
        "text": {
          "status": "generated",
          "div": "<div xmlns=\"http://www.w3.org/1999/xhtml\"><table class=\"hl7__eu__lab__report\"><tr><th>Specimen</th><th>Collection Date</th></tr><tr><td>Urine specimen</td><td><span class=\"nb\">27-Dec-2017</span></td></tr></table></div>"
        },
        "type": {
          "coding": [
            {
              "code": "122575003",
              "system": "http://snomed.info/sct",
              "display": "Urine specimen"
            }
          ]
        }
      }
    },
    {
      "fullUrl": "urn:uuid:b83ba050-3aee-4ee5-bf29-6b270b631902",
      "resource": {
        "resourceType": "Specimen",
        "id": "b83ba050-3aee-4ee5-bf29-6b270b631902",
        "meta": {
          "profile": [
            "http://hl7.eu/fhir/laboratory/StructureDefinition/Specimen-eu-lab"
          ]
        },
        "collection": {
          "collectedDateTime": "2017-12-27"
        },
        "text": {
          "status": "generated",
          "div": "<div xmlns=\"http://www.w3.org/1999/xhtml\"><table class=\"hl7__eu__lab__report\"><tr><th>Specimen</th><th>Collection Date</th></tr><tr><td>Whole blood specimen (specimen)</td><td><span class=\"nb\">27-Dec-2017</span></td></tr></table></div>"
        },
        "type": {
          "coding": [
            {
              "code": "258580003",
              "system": "http://snomed.info/sct",
              "display": "Whole blood specimen (specimen)"
            }
          ]
        }
      }
    },
    {
      "fullUrl": "urn:uuid:1ce4b044-a2df-4ec8-ba7b-19261e267cb9",
      "resource": {
        "resourceType": "Observation",
        "id": "1ce4b044-a2df-4ec8-ba7b-19261e267cb9",
        "meta": {
          "profile": [
            "http://hl7.eu/fhir/laboratory/StructureDefinition/Observation-resultslab-eu-lab"
          ]
        },
        "performer": [
          {
            "display": "The Central European Lab"
          }
        ],
        "category": [
          {
            "coding": [
              {
                "system": "http://terminology.hl7.org/CodeSystem/observation-category",
                "code": "laboratory"
              }
            ]
          }
        ],
        "code": {
          "coding": [
            {
              "code": "2345-7",
              "system": "http://loinc.org",
              "display": "Glucose [Mass/volume] in Serum or Plasma"
            }
          ],
          "text": "Glucose [Mass/volume] in Serum or Plasma"
        },
        "valueQuantity": {
          "system": "http://unitsofmeasure.org",
          "value": 70.7,
          "unit": "mg/dL",
          "code": "mg/dL"
        },
        "referenceRange": [
          {
            "low": {
              "value": 70,
              "code": "mg/dL",
              "system": "http://unitsofmeasure.org"
            }
          },
          {
            "high": {
              "value": 140,
              "code": "mg/dL",
              "system": "http://unitsofmeasure.org"
            }
          }
        ],
        "text": {
          "status": "generated",
          "div": "<div xmlns=\"http://www.w3.org/1999/xhtml\"><table class=\"hl7__eu__lab__report\"><tr><th>Test</th><th>27-Dec-2017</th><th>Reference&#xA0;Range</th><th>Unit</th></tr><tr><td>Glucose [Mass/volume] in Serum or Plasma</td><td>70.7</td><td>70 - 140</td><td></td><td>mg/dL</td></tr></table></div>"
        },
        "status": "final",
        "subject": {
          "reference": "urn:uuid:a68d4795-a41d-4c4b-a909-aa08773bb98a",
          "display": "Θεμιστοκλής Λιναρδάκη"
        },
        "effectiveDateTime": "2017-12-27T06:16:00Z",
        "specimen": {
          "reference": "urn:uuid:415c7e08-268c-4df1-8a8f-dd221114fbc8"
        }
      }
    },
    {
      "fullUrl": "urn:uuid:f207b40e-1e4b-4357-8404-99a585517a62",
      "resource": {
        "resourceType": "Observation",
        "id": "f207b40e-1e4b-4357-8404-99a585517a62",
        "meta": {
          "profile": [
            "http://hl7.eu/fhir/laboratory/StructureDefinition/Observation-resultslab-eu-lab"
          ]
        },
        "performer": [
          {
            "display": "The Central European Lab"
          }
        ],
        "category": [
          {
            "coding": [
              {
                "system": "http://terminology.hl7.org/CodeSystem/observation-category",
                "code": "laboratory"
              }
            ]
          }
        ],
        "code": {
          "coding": [
            {
              "code": "3094-0",
              "system": "http://loinc.org",
              "display": "Urea nitrogen [Mass/volume] in Serum or Plasma"
            }
          ],
          "text": "Urea nitrogen [Mass/volume] in Serum or Plasma"
        },
        "valueQuantity": {
          "system": "http://unitsofmeasure.org",
          "value": 15.6,
          "unit": "mg/dL",
          "code": "mg/dL"
        },
        "referenceRange": [
          {
            "low": {
              "value": 7,
              "code": "mg/dL",
              "system": "http://unitsofmeasure.org"
            }
          },
          {
            "high": {
              "value": 20,
              "code": "mg/dL",
              "system": "http://unitsofmeasure.org"
            }
          }
        ],
        "text": {
          "status": "generated",
          "div": "<div xmlns=\"http://www.w3.org/1999/xhtml\"><table class=\"hl7__eu__lab__report\"><tr><th>Test</th><th>27-Dec-2017</th><th>Reference&#xA0;Range</th><th>Unit</th></tr><tr><td>Urea nitrogen [Mass/volume] in Serum or Plasma</td><td>15.6</td><td>7 - 20</td><td></td><td>mg/dL</td></tr></table></div>"
        },
        "status": "final",
        "subject": {
          "reference": "urn:uuid:a68d4795-a41d-4c4b-a909-aa08773bb98a",
          "display": "Θεμιστοκλής Λιναρδάκη"
        },
        "effectiveDateTime": "2017-12-27T06:16:00Z",
        "specimen": {
          "reference": "urn:uuid:415c7e08-268c-4df1-8a8f-dd221114fbc8"
        }
      }
    },
    {
      "fullUrl": "urn:uuid:eac567e0-9cba-4400-a706-f9e2217f39f9",
      "resource": {
        "resourceType": "Observation",
        "id": "eac567e0-9cba-4400-a706-f9e2217f39f9",
        "meta": {
          "profile": [
            "http://hl7.eu/fhir/laboratory/StructureDefinition/Observation-resultslab-eu-lab"
          ]
        },
        "performer": [
          {
            "display": "The Central European Lab"
          }
        ],
        "category": [
          {
            "coding": [
              {
                "system": "http://terminology.hl7.org/CodeSystem/observation-category",
                "code": "laboratory"
              }
            ]
          }
        ],
        "code": {
          "coding": [
            {
              "code": "2160-0",
              "system": "http://loinc.org",
              "display": "Creatinine [Mass/volume] in Serum or Plasma"
            }
          ],
          "text": "Creatinine [Mass/volume] in Serum or Plasma"
        },
        "valueQuantity": {
          "system": "http://unitsofmeasure.org",
          "value": 2,
          "unit": "mg/dL",
          "code": "mg/dL"
        },
        "referenceRange": [
          {
            "low": {
              "value": 0.9,
              "code": "mg/dL",
              "system": "http://unitsofmeasure.org"
            }
          },
          {
            "high": {
              "value": 1.3,
              "code": "mg/dL",
              "system": "http://unitsofmeasure.org"
            }
          }
        ],
        "interpretation": [
          {
            "coding": [
              {
                "code": "H",
                "system": "http://terminology.hl7.org/CodeSystem/v3-ObservationInterpretation",
                "display": "High"
              }
            ]
          }
        ],
        "text": {
          "status": "generated",
          "div": "<div xmlns=\"http://www.w3.org/1999/xhtml\"><table class=\"hl7__eu__lab__report\"><tr><th>Test</th><th>27-Dec-2017</th><th>Reference&#xA0;Range</th><th>Unit</th></tr><tr><td>Creatinine [Mass/volume] in Serum or Plasma</td><td>2.0</td><td>0.9 - 1.3</td><td>H</td><td>mg/dL</td></tr></table></div>"
        },
        "status": "final",
        "subject": {
          "reference": "urn:uuid:a68d4795-a41d-4c4b-a909-aa08773bb98a",
          "display": "Θεμιστοκλής Λιναρδάκη"
        },
        "effectiveDateTime": "2017-12-27T06:16:00Z",
        "specimen": {
          "reference": "urn:uuid:415c7e08-268c-4df1-8a8f-dd221114fbc8"
        }
      }
    },
    {
      "fullUrl": "urn:uuid:32b05a5d-039e-4c8f-812c-19b8d58bcbb9",
      "resource": {
        "resourceType": "Observation",
        "id": "32b05a5d-039e-4c8f-812c-19b8d58bcbb9",
        "meta": {
          "profile": [
            "http://hl7.eu/fhir/laboratory/StructureDefinition/Observation-resultslab-eu-lab"
          ]
        },
        "performer": [
          {
            "display": "The Central European Lab"
          }
        ],
        "category": [
          {
            "coding": [
              {
                "system": "http://terminology.hl7.org/CodeSystem/observation-category",
                "code": "laboratory"
              }
            ]
          }
        ],
        "code": {
          "coding": [
            {
              "code": "17861-6",
              "system": "http://loinc.org",
              "display": "Calcium [Mass/volume] in Serum or Plasma"
            }
          ],
          "text": "Calcium [Mass/volume] in Serum or Plasma"
        },
        "valueQuantity": {
          "system": "http://unitsofmeasure.org",
          "value": 8.8,
          "unit": "mg/dL",
          "code": "mg/dL"
        },
        "referenceRange": [
          {
            "low": {
              "value": 8.5,
              "code": "mg/dL",
              "system": "http://unitsofmeasure.org"
            }
          },
          {
            "high": {
              "value": 10.5,
              "code": "mg/dL",
              "system": "http://unitsofmeasure.org"
            }
          }
        ],
        "text": {
          "status": "generated",
          "div": "<div xmlns=\"http://www.w3.org/1999/xhtml\"><table class=\"hl7__eu__lab__report\"><tr><th>Test</th><th>27-Dec-2017</th><th>Reference&#xA0;Range</th><th>Unit</th></tr><tr><td>Calcium [Mass/volume] in Serum or Plasma</td><td>8.8</td><td>8.5 - 10.5</td><td></td><td>mg/dL</td></tr></table></div>"
        },
        "status": "final",
        "subject": {
          "reference": "urn:uuid:a68d4795-a41d-4c4b-a909-aa08773bb98a",
          "display": "Θεμιστοκλής Λιναρδάκη"
        },
        "effectiveDateTime": "2017-12-27T06:16:00Z",
        "specimen": {
          "reference": "urn:uuid:415c7e08-268c-4df1-8a8f-dd221114fbc8"
        }
      }
    },
    {
      "fullUrl": "urn:uuid:1e3ad223-f226-4f89-9a79-da16208b02d9",
      "resource": {
        "resourceType": "Observation",
        "id": "1e3ad223-f226-4f89-9a79-da16208b02d9",
        "meta": {
          "profile": [
            "http://hl7.eu/fhir/laboratory/StructureDefinition/Observation-resultslab-eu-lab"
          ]
        },
        "performer": [
          {
            "display": "The Central European Lab"
          }
        ],
        "category": [
          {
            "coding": [
              {
                "system": "http://terminology.hl7.org/CodeSystem/observation-category",
                "code": "laboratory"
              }
            ]
          }
        ],
        "code": {
          "coding": [
            {
              "code": "2951-2",
              "system": "http://loinc.org",
              "display": "Sodium [Moles/volume] in Serum or Plasma"
            }
          ],
          "text": "Sodium [Moles/volume] in Serum or Plasma"
        },
        "valueQuantity": {
          "system": "http://unitsofmeasure.org",
          "value": 138.4,
          "unit": "mmol/L",
          "code": "mmol/L"
        },
        "referenceRange": [
          {
            "low": {
              "value": 135,
              "code": "mmol/L",
              "system": "http://unitsofmeasure.org"
            }
          },
          {
            "high": {
              "value": 145,
              "code": "mmol/L",
              "system": "http://unitsofmeasure.org"
            }
          }
        ],
        "text": {
          "status": "generated",
          "div": "<div xmlns=\"http://www.w3.org/1999/xhtml\"><table class=\"hl7__eu__lab__report\"><tr><th>Test</th><th>27-Dec-2017</th><th>Reference&#xA0;Range</th><th>Unit</th></tr><tr><td>Sodium [Moles/volume] in Serum or Plasma</td><td>138.4</td><td>135 - 145</td><td></td><td>mmol/L</td></tr></table></div>"
        },
        "status": "final",
        "subject": {
          "reference": "urn:uuid:a68d4795-a41d-4c4b-a909-aa08773bb98a",
          "display": "Θεμιστοκλής Λιναρδάκη"
        },
        "effectiveDateTime": "2017-12-27T06:16:00Z",
        "specimen": {
          "reference": "urn:uuid:415c7e08-268c-4df1-8a8f-dd221114fbc8"
        }
      }
    },
    {
      "fullUrl": "urn:uuid:6cab764b-cd0d-4733-a4ce-82795209d230",
      "resource": {
        "resourceType": "Observation",
        "id": "6cab764b-cd0d-4733-a4ce-82795209d230",
        "meta": {
          "profile": [
            "http://hl7.eu/fhir/laboratory/StructureDefinition/Observation-resultslab-eu-lab"
          ]
        },
        "performer": [
          {
            "display": "The Central European Lab"
          }
        ],
        "category": [
          {
            "coding": [
              {
                "system": "http://terminology.hl7.org/CodeSystem/observation-category",
                "code": "laboratory"
              }
            ]
          }
        ],
        "code": {
          "coding": [
            {
              "code": "2823-3",
              "system": "http://loinc.org",
              "display": "Potassium [Moles/volume] in Serum or Plasma"
            }
          ],
          "text": "Potassium [Moles/volume] in Serum or Plasma"
        },
        "valueQuantity": {
          "system": "http://unitsofmeasure.org",
          "value": 4.3,
          "unit": "mmol/L",
          "code": "mmol/L"
        },
        "referenceRange": [
          {
            "low": {
              "value": 3.5,
              "code": "mmol/L",
              "system": "http://unitsofmeasure.org"
            }
          },
          {
            "high": {
              "value": 5,
              "code": "mmol/L",
              "system": "http://unitsofmeasure.org"
            }
          }
        ],
        "text": {
          "status": "generated",
          "div": "<div xmlns=\"http://www.w3.org/1999/xhtml\"><table class=\"hl7__eu__lab__report\"><tr><th>Test</th><th>27-Dec-2017</th><th>Reference&#xA0;Range</th><th>Unit</th></tr><tr><td>Potassium [Moles/volume] in Serum or Plasma</td><td>4.3</td><td>3.5 - 5</td><td></td><td>mmol/L</td></tr></table></div>"
        },
        "status": "final",
        "subject": {
          "reference": "urn:uuid:a68d4795-a41d-4c4b-a909-aa08773bb98a",
          "display": "Θεμιστοκλής Λιναρδάκη"
        },
        "effectiveDateTime": "2017-12-27T06:16:00Z",
        "specimen": {
          "reference": "urn:uuid:415c7e08-268c-4df1-8a8f-dd221114fbc8"
        }
      }
    },
    {
      "fullUrl": "urn:uuid:43f7bcca-91a1-47c0-86e1-af03091042e4",
      "resource": {
        "resourceType": "Observation",
        "id": "43f7bcca-91a1-47c0-86e1-af03091042e4",
        "meta": {
          "profile": [
            "http://hl7.eu/fhir/laboratory/StructureDefinition/Observation-resultslab-eu-lab"
          ]
        },
        "performer": [
          {
            "display": "The Central European Lab"
          }
        ],
        "category": [
          {
            "coding": [
              {
                "system": "http://terminology.hl7.org/CodeSystem/observation-category",
                "code": "laboratory"
              }
            ]
          }
        ],
        "code": {
          "coding": [
            {
              "code": "2075-0",
              "system": "http://loinc.org",
              "display": "Chloride [Moles/volume] in Serum or Plasma"
            }
          ],
          "text": "Chloride [Moles/volume] in Serum or Plasma"
        },
        "valueQuantity": {
          "system": "http://unitsofmeasure.org",
          "value": 110.9,
          "unit": "mmol/L",
          "code": "mmol/L"
        },
        "referenceRange": [
          {
            "low": {
              "value": 98,
              "code": "mmol/L",
              "system": "http://unitsofmeasure.org"
            }
          },
          {
            "high": {
              "value": 108,
              "code": "mmol/L",
              "system": "http://unitsofmeasure.org"
            }
          }
        ],
        "interpretation": [
          {
            "coding": [
              {
                "code": "H",
                "system": "http://terminology.hl7.org/CodeSystem/v3-ObservationInterpretation",
                "display": "High"
              }
            ]
          }
        ],
        "text": {
          "status": "generated",
          "div": "<div xmlns=\"http://www.w3.org/1999/xhtml\"><table class=\"hl7__eu__lab__report\"><tr><th>Test</th><th>27-Dec-2017</th><th>Reference&#xA0;Range</th><th>Unit</th></tr><tr><td>Chloride [Moles/volume] in Serum or Plasma</td><td>110.9</td><td>98 - 108</td><td>H</td><td>mmol/L</td></tr></table></div>"
        },
        "status": "final",
        "subject": {
          "reference": "urn:uuid:a68d4795-a41d-4c4b-a909-aa08773bb98a",
          "display": "Θεμιστοκλής Λιναρδάκη"
        },
        "effectiveDateTime": "2017-12-27T06:16:00Z",
        "specimen": {
          "reference": "urn:uuid:415c7e08-268c-4df1-8a8f-dd221114fbc8"
        }
      }
    },
    {
      "fullUrl": "urn:uuid:55844ce9-c6a6-42b3-b88c-82de1844676b",
      "resource": {
        "resourceType": "Observation",
        "id": "55844ce9-c6a6-42b3-b88c-82de1844676b",
        "meta": {
          "profile": [
            "http://hl7.eu/fhir/laboratory/StructureDefinition/Observation-resultslab-eu-lab"
          ]
        },
        "performer": [
          {
            "display": "The Central European Lab"
          }
        ],
        "category": [
          {
            "coding": [
              {
                "system": "http://terminology.hl7.org/CodeSystem/observation-category",
                "code": "laboratory"
              }
            ]
          }
        ],
        "code": {
          "coding": [
            {
              "code": "2028-9",
              "system": "http://loinc.org",
              "display": "Carbon dioxide, total [Moles/volume] in Serum or Plasma"
            }
          ],
          "text": "Carbon dioxide, total [Moles/volume] in Serum or Plasma"
        },
        "valueQuantity": {
          "system": "http://unitsofmeasure.org",
          "value": 27.2,
          "unit": "mmol/L",
          "code": "mmol/L"
        },
        "referenceRange": [
          {
            "low": {
              "value": 22,
              "code": "mmol/L",
              "system": "http://unitsofmeasure.org"
            }
          },
          {
            "high": {
              "value": 29,
              "code": "mmol/L",
              "system": "http://unitsofmeasure.org"
            }
          }
        ],
        "text": {
          "status": "generated",
          "div": "<div xmlns=\"http://www.w3.org/1999/xhtml\"><table class=\"hl7__eu__lab__report\"><tr><th>Test</th><th>27-Dec-2017</th><th>Reference&#xA0;Range</th><th>Unit</th></tr><tr><td>Carbon dioxide, total [Moles/volume] in Serum or Plasma</td><td>27.2</td><td>22 - 29</td><td></td><td>mmol/L</td></tr></table></div>"
        },
        "status": "final",
        "subject": {
          "reference": "urn:uuid:a68d4795-a41d-4c4b-a909-aa08773bb98a",
          "display": "Θεμιστοκλής Λιναρδάκη"
        },
        "effectiveDateTime": "2017-12-27T06:16:00Z",
        "specimen": {
          "reference": "urn:uuid:415c7e08-268c-4df1-8a8f-dd221114fbc8"
        }
      }
    },
    {
      "fullUrl": "urn:uuid:a175c074-b5ba-4fee-89a2-177e9e6264b6",
      "resource": {
        "resourceType": "Observation",
        "id": "a175c074-b5ba-4fee-89a2-177e9e6264b6",
        "meta": {
          "profile": [
            "http://hl7.eu/fhir/laboratory/StructureDefinition/Observation-resultslab-eu-lab"
          ]
        },
        "performer": [
          {
            "display": "The Central European Lab"
          }
        ],
        "category": [
          {
            "coding": [
              {
                "system": "http://terminology.hl7.org/CodeSystem/observation-category",
                "code": "laboratory"
              }
            ]
          }
        ],
        "code": {
          "coding": [
            {
              "code": "5767-9",
              "system": "http://loinc.org",
              "display": "Appearance of Urine"
            }
          ],
          "text": "Appearance of Urine"
        },
        "text": {
          "status": "generated",
          "div": "<div xmlns=\"http://www.w3.org/1999/xhtml\"><table class=\"hl7__eu__lab__report\"><tr><th>Test</th><th>27-Dec-2017</th><th>Reference&#xA0;Range</th><th>Unit</th></tr><tr><td>Appearance of Urine</td></tr></table></div>"
        },
        "status": "final",
        "subject": {
          "reference": "urn:uuid:a68d4795-a41d-4c4b-a909-aa08773bb98a",
          "display": "Θεμιστοκλής Λιναρδάκη"
        },
        "effectiveDateTime": "2017-12-27T06:16:00Z",
        "specimen": {
          "reference": "urn:uuid:ba45c65e-c77f-4702-b8b5-9a232a503fc5"
        }
      }
    },
    {
      "fullUrl": "urn:uuid:2ee0f49a-d778-4090-a658-f5bde27a535b",
      "resource": {
        "resourceType": "Observation",
        "id": "2ee0f49a-d778-4090-a658-f5bde27a535b",
        "meta": {
          "profile": [
            "http://hl7.eu/fhir/laboratory/StructureDefinition/Observation-resultslab-eu-lab"
          ]
        },
        "performer": [
          {
            "display": "The Central European Lab"
          }
        ],
        "category": [
          {
            "coding": [
              {
                "system": "http://terminology.hl7.org/CodeSystem/observation-category",
                "code": "laboratory"
              }
            ]
          }
        ],
        "code": {
          "coding": [
            {
              "code": "34533-0",
              "system": "http://loinc.org",
              "display": "Odor of Urine"
            }
          ],
          "text": "Odor of Urine"
        },
        "text": {
          "status": "generated",
          "div": "<div xmlns=\"http://www.w3.org/1999/xhtml\"><table class=\"hl7__eu__lab__report\"><tr><th>Test</th><th>27-Dec-2017</th><th>Reference&#xA0;Range</th><th>Unit</th></tr><tr><td>Odor of Urine</td></tr></table></div>"
        },
        "status": "final",
        "subject": {
          "reference": "urn:uuid:a68d4795-a41d-4c4b-a909-aa08773bb98a",
          "display": "Θεμιστοκλής Λιναρδάκη"
        },
        "effectiveDateTime": "2017-12-27T06:16:00Z",
        "specimen": {
          "reference": "urn:uuid:ba45c65e-c77f-4702-b8b5-9a232a503fc5"
        }
      }
    },
    {
      "fullUrl": "urn:uuid:1f7bf09f-0364-43dd-9fec-da8c2da72ca4",
      "resource": {
        "resourceType": "Observation",
        "id": "1f7bf09f-0364-43dd-9fec-da8c2da72ca4",
        "meta": {
          "profile": [
            "http://hl7.eu/fhir/laboratory/StructureDefinition/Observation-resultslab-eu-lab"
          ]
        },
        "performer": [
          {
            "display": "The Central European Lab"
          }
        ],
        "category": [
          {
            "coding": [
              {
                "system": "http://terminology.hl7.org/CodeSystem/observation-category",
                "code": "laboratory"
              }
            ]
          }
        ],
        "code": {
          "coding": [
            {
              "code": "32167-9",
              "system": "http://loinc.org",
              "display": "Clarity of Urine"
            }
          ],
          "text": "Clarity of Urine"
        },
        "text": {
          "status": "generated",
          "div": "<div xmlns=\"http://www.w3.org/1999/xhtml\"><table class=\"hl7__eu__lab__report\"><tr><th>Test</th><th>27-Dec-2017</th><th>Reference&#xA0;Range</th><th>Unit</th></tr><tr><td>Clarity of Urine</td></tr></table></div>"
        },
        "status": "final",
        "subject": {
          "reference": "urn:uuid:a68d4795-a41d-4c4b-a909-aa08773bb98a",
          "display": "Θεμιστοκλής Λιναρδάκη"
        },
        "effectiveDateTime": "2017-12-27T06:16:00Z",
        "specimen": {
          "reference": "urn:uuid:ba45c65e-c77f-4702-b8b5-9a232a503fc5"
        }
      }
    },
    {
      "fullUrl": "urn:uuid:95408daf-94e8-488f-b00a-f50e12824fc9",
      "resource": {
        "resourceType": "Observation",
        "id": "95408daf-94e8-488f-b00a-f50e12824fc9",
        "meta": {
          "profile": [
            "http://hl7.eu/fhir/laboratory/StructureDefinition/Observation-resultslab-eu-lab"
          ]
        },
        "performer": [
          {
            "display": "The Central European Lab"
          }
        ],
        "category": [
          {
            "coding": [
              {
                "system": "http://terminology.hl7.org/CodeSystem/observation-category",
                "code": "laboratory"
              }
            ]
          }
        ],
        "code": {
          "coding": [
            {
              "code": "5778-6",
              "system": "http://loinc.org",
              "display": "Color of Urine"
            }
          ],
          "text": "Color of Urine"
        },
        "text": {
          "status": "generated",
          "div": "<div xmlns=\"http://www.w3.org/1999/xhtml\"><table class=\"hl7__eu__lab__report\"><tr><th>Test</th><th>27-Dec-2017</th><th>Reference&#xA0;Range</th><th>Unit</th></tr><tr><td>Color of Urine</td></tr></table></div>"
        },
        "status": "final",
        "subject": {
          "reference": "urn:uuid:a68d4795-a41d-4c4b-a909-aa08773bb98a",
          "display": "Θεμιστοκλής Λιναρδάκη"
        },
        "effectiveDateTime": "2017-12-27T06:16:00Z",
        "specimen": {
          "reference": "urn:uuid:ba45c65e-c77f-4702-b8b5-9a232a503fc5"
        }
      }
    },
    {
      "fullUrl": "urn:uuid:0a8c8431-17ce-4d71-8b51-acb9d8956283",
      "resource": {
        "resourceType": "Observation",
        "id": "0a8c8431-17ce-4d71-8b51-acb9d8956283",
        "meta": {
          "profile": [
            "http://hl7.eu/fhir/laboratory/StructureDefinition/Observation-resultslab-eu-lab"
          ]
        },
        "performer": [
          {
            "display": "The Central European Lab"
          }
        ],
        "category": [
          {
            "coding": [
              {
                "system": "http://terminology.hl7.org/CodeSystem/observation-category",
                "code": "laboratory"
              }
            ]
          }
        ],
        "code": {
          "coding": [
            {
              "code": "5792-7",
              "system": "http://loinc.org",
              "display": "Glucose [Mass/volume] in Urine by Test strip"
            }
          ],
          "text": "Glucose [Mass/volume] in Urine by Test strip"
        },
        "valueQuantity": {
          "system": "http://unitsofmeasure.org",
          "value": 2,
          "unit": "mg/dL",
          "code": "mg/dL"
        },
        "referenceRange": [
          {
            "low": {
              "value": 0,
              "code": "mg/dL",
              "system": "http://unitsofmeasure.org"
            }
          },
          {
            "high": {
              "value": 0.8,
              "code": "mg/dL",
              "system": "http://unitsofmeasure.org"
            }
          }
        ],
        "interpretation": [
          {
            "coding": [
              {
                "code": "H",
                "system": "http://terminology.hl7.org/CodeSystem/v3-ObservationInterpretation",
                "display": "High"
              }
            ]
          }
        ],
        "text": {
          "status": "generated",
          "div": "<div xmlns=\"http://www.w3.org/1999/xhtml\"><table class=\"hl7__eu__lab__report\"><tr><th>Test</th><th>27-Dec-2017</th><th>Reference&#xA0;Range</th><th>Unit</th></tr><tr><td>Glucose [Mass/volume] in Urine by Test strip</td><td>2.0</td><td>0 - 0.8</td><td>H</td><td>mg/dL</td></tr></table></div>"
        },
        "status": "final",
        "subject": {
          "reference": "urn:uuid:a68d4795-a41d-4c4b-a909-aa08773bb98a",
          "display": "Θεμιστοκλής Λιναρδάκη"
        },
        "effectiveDateTime": "2017-12-27T06:16:00Z",
        "specimen": {
          "reference": "urn:uuid:ba45c65e-c77f-4702-b8b5-9a232a503fc5"
        }
      }
    },
    {
      "fullUrl": "urn:uuid:6be11e30-10cb-4f6e-a38b-7cc439396809",
      "resource": {
        "resourceType": "Observation",
        "id": "6be11e30-10cb-4f6e-a38b-7cc439396809",
        "meta": {
          "profile": [
            "http://hl7.eu/fhir/laboratory/StructureDefinition/Observation-resultslab-eu-lab"
          ]
        },
        "performer": [
          {
            "display": "The Central European Lab"
          }
        ],
        "category": [
          {
            "coding": [
              {
                "system": "http://terminology.hl7.org/CodeSystem/observation-category",
                "code": "laboratory"
              }
            ]
          }
        ],
        "code": {
          "coding": [
            {
              "code": "25428-4",
              "system": "http://loinc.org",
              "display": "Glucose [Presence] in Urine by Test strip"
            }
          ],
          "text": "Glucose [Presence] in Urine by Test strip"
        },
        "text": {
          "status": "generated",
          "div": "<div xmlns=\"http://www.w3.org/1999/xhtml\"><table class=\"hl7__eu__lab__report\"><tr><th>Test</th><th>27-Dec-2017</th><th>Reference&#xA0;Range</th><th>Unit</th></tr><tr><td>Glucose [Presence] in Urine by Test strip</td></tr></table></div>"
        },
        "status": "final",
        "subject": {
          "reference": "urn:uuid:a68d4795-a41d-4c4b-a909-aa08773bb98a",
          "display": "Θεμιστοκλής Λιναρδάκη"
        },
        "effectiveDateTime": "2017-12-27T06:16:00Z",
        "specimen": {
          "reference": "urn:uuid:ba45c65e-c77f-4702-b8b5-9a232a503fc5"
        }
      }
    },
    {
      "fullUrl": "urn:uuid:6e7931c2-c343-4730-9932-460a424f3be7",
      "resource": {
        "resourceType": "Observation",
        "id": "6e7931c2-c343-4730-9932-460a424f3be7",
        "meta": {
          "profile": [
            "http://hl7.eu/fhir/laboratory/StructureDefinition/Observation-resultslab-eu-lab"
          ]
        },
        "performer": [
          {
            "display": "The Central European Lab"
          }
        ],
        "category": [
          {
            "coding": [
              {
                "system": "http://terminology.hl7.org/CodeSystem/observation-category",
                "code": "laboratory"
              }
            ]
          }
        ],
        "code": {
          "coding": [
            {
              "code": "20505-4",
              "system": "http://loinc.org",
              "display": "Bilirubin.total [Mass/volume] in Urine by Test strip"
            }
          ],
          "text": "Bilirubin.total [Mass/volume] in Urine by Test strip"
        },
        "valueQuantity": {
          "system": "http://unitsofmeasure.org",
          "value": 0.3,
          "unit": "mg/dL",
          "code": "mg/dL"
        },
        "referenceRange": [
          {
            "low": {
              "value": 0.2,
              "code": "mg/dL",
              "system": "http://unitsofmeasure.org"
            }
          },
          {
            "high": {
              "value": 1,
              "code": "mg/dL",
              "system": "http://unitsofmeasure.org"
            }
          }
        ],
        "text": {
          "status": "generated",
          "div": "<div xmlns=\"http://www.w3.org/1999/xhtml\"><table class=\"hl7__eu__lab__report\"><tr><th>Test</th><th>27-Dec-2017</th><th>Reference&#xA0;Range</th><th>Unit</th></tr><tr><td>Bilirubin.total [Mass/volume] in Urine by Test strip</td><td>0.3</td><td>0.2 - 1</td><td></td><td>mg/dL</td></tr></table></div>"
        },
        "status": "final",
        "subject": {
          "reference": "urn:uuid:a68d4795-a41d-4c4b-a909-aa08773bb98a",
          "display": "Θεμιστοκλής Λιναρδάκη"
        },
        "effectiveDateTime": "2017-12-27T06:16:00Z",
        "specimen": {
          "reference": "urn:uuid:ba45c65e-c77f-4702-b8b5-9a232a503fc5"
        }
      }
    },
    {
      "fullUrl": "urn:uuid:2e52663b-f0b8-42d9-b423-f36c7f1ac14b",
      "resource": {
        "resourceType": "Observation",
        "id": "2e52663b-f0b8-42d9-b423-f36c7f1ac14b",
        "meta": {
          "profile": [
            "http://hl7.eu/fhir/laboratory/StructureDefinition/Observation-resultslab-eu-lab"
          ]
        },
        "performer": [
          {
            "display": "The Central European Lab"
          }
        ],
        "category": [
          {
            "coding": [
              {
                "system": "http://terminology.hl7.org/CodeSystem/observation-category",
                "code": "laboratory"
              }
            ]
          }
        ],
        "code": {
          "coding": [
            {
              "code": "5770-3",
              "system": "http://loinc.org",
              "display": "Bilirubin.total [Presence] in Urine by Test strip"
            }
          ],
          "text": "Bilirubin.total [Presence] in Urine by Test strip"
        },
        "text": {
          "status": "generated",
          "div": "<div xmlns=\"http://www.w3.org/1999/xhtml\"><table class=\"hl7__eu__lab__report\"><tr><th>Test</th><th>27-Dec-2017</th><th>Reference&#xA0;Range</th><th>Unit</th></tr><tr><td>Bilirubin.total [Presence] in Urine by Test strip</td></tr></table></div>"
        },
        "status": "final",
        "subject": {
          "reference": "urn:uuid:a68d4795-a41d-4c4b-a909-aa08773bb98a",
          "display": "Θεμιστοκλής Λιναρδάκη"
        },
        "effectiveDateTime": "2017-12-27T06:16:00Z",
        "specimen": {
          "reference": "urn:uuid:ba45c65e-c77f-4702-b8b5-9a232a503fc5"
        }
      }
    },
    {
      "fullUrl": "urn:uuid:df820e48-5ccd-4b23-819e-ebc485e176fa",
      "resource": {
        "resourceType": "Observation",
        "id": "df820e48-5ccd-4b23-819e-ebc485e176fa",
        "meta": {
          "profile": [
            "http://hl7.eu/fhir/laboratory/StructureDefinition/Observation-resultslab-eu-lab"
          ]
        },
        "performer": [
          {
            "display": "The Central European Lab"
          }
        ],
        "category": [
          {
            "coding": [
              {
                "system": "http://terminology.hl7.org/CodeSystem/observation-category",
                "code": "laboratory"
              }
            ]
          }
        ],
        "code": {
          "coding": [
            {
              "code": "5797-6",
              "system": "http://loinc.org",
              "display": "Ketones [Mass/volume] in Urine by Test strip"
            }
          ],
          "text": "Ketones [Mass/volume] in Urine by Test strip"
        },
        "valueQuantity": {
          "system": "http://unitsofmeasure.org",
          "value": 8.9,
          "unit": "mg/dL",
          "code": "mg/dL"
        },
        "referenceRange": [
          {
            "low": {
              "value": 0,
              "code": "mg/dL",
              "system": "http://unitsofmeasure.org"
            }
          },
          {
            "high": {
              "value": 5,
              "code": "mg/dL",
              "system": "http://unitsofmeasure.org"
            }
          }
        ],
        "interpretation": [
          {
            "coding": [
              {
                "code": "H",
                "system": "http://terminology.hl7.org/CodeSystem/v3-ObservationInterpretation",
                "display": "High"
              }
            ]
          }
        ],
        "text": {
          "status": "generated",
          "div": "<div xmlns=\"http://www.w3.org/1999/xhtml\"><table class=\"hl7__eu__lab__report\"><tr><th>Test</th><th>27-Dec-2017</th><th>Reference&#xA0;Range</th><th>Unit</th></tr><tr><td>Ketones [Mass/volume] in Urine by Test strip</td><td>8.9</td><td>0 - 5</td><td>H</td><td>mg/dL</td></tr></table></div>"
        },
        "status": "final",
        "subject": {
          "reference": "urn:uuid:a68d4795-a41d-4c4b-a909-aa08773bb98a",
          "display": "Θεμιστοκλής Λιναρδάκη"
        },
        "effectiveDateTime": "2017-12-27T06:16:00Z",
        "specimen": {
          "reference": "urn:uuid:ba45c65e-c77f-4702-b8b5-9a232a503fc5"
        }
      }
    },
    {
      "fullUrl": "urn:uuid:71d032eb-5806-4426-bdff-0385b56c1222",
      "resource": {
        "resourceType": "Observation",
        "id": "71d032eb-5806-4426-bdff-0385b56c1222",
        "meta": {
          "profile": [
            "http://hl7.eu/fhir/laboratory/StructureDefinition/Observation-resultslab-eu-lab"
          ]
        },
        "performer": [
          {
            "display": "The Central European Lab"
          }
        ],
        "category": [
          {
            "coding": [
              {
                "system": "http://terminology.hl7.org/CodeSystem/observation-category",
                "code": "laboratory"
              }
            ]
          }
        ],
        "code": {
          "coding": [
            {
              "code": "2514-8",
              "system": "http://loinc.org",
              "display": "Ketones [Presence] in Urine by Test strip"
            }
          ],
          "text": "Ketones [Presence] in Urine by Test strip"
        },
        "text": {
          "status": "generated",
          "div": "<div xmlns=\"http://www.w3.org/1999/xhtml\"><table class=\"hl7__eu__lab__report\"><tr><th>Test</th><th>27-Dec-2017</th><th>Reference&#xA0;Range</th><th>Unit</th></tr><tr><td>Ketones [Presence] in Urine by Test strip</td></tr></table></div>"
        },
        "status": "final",
        "subject": {
          "reference": "urn:uuid:a68d4795-a41d-4c4b-a909-aa08773bb98a",
          "display": "Θεμιστοκλής Λιναρδάκη"
        },
        "effectiveDateTime": "2017-12-27T06:16:00Z",
        "specimen": {
          "reference": "urn:uuid:ba45c65e-c77f-4702-b8b5-9a232a503fc5"
        }
      }
    },
    {
      "fullUrl": "urn:uuid:9a906841-b99d-4d7b-a07e-987b1e4e471d",
      "resource": {
        "resourceType": "Observation",
        "id": "9a906841-b99d-4d7b-a07e-987b1e4e471d",
        "meta": {
          "profile": [
            "http://hl7.eu/fhir/laboratory/StructureDefinition/Observation-resultslab-eu-lab"
          ]
        },
        "performer": [
          {
            "display": "The Central European Lab"
          }
        ],
        "category": [
          {
            "coding": [
              {
                "system": "http://terminology.hl7.org/CodeSystem/observation-category",
                "code": "laboratory"
              }
            ]
          }
        ],
        "code": {
          "coding": [
            {
              "code": "5811-5",
              "system": "http://loinc.org",
              "display": "Specific gravity of Urine by Test strip"
            }
          ],
          "text": "Specific gravity of Urine by Test strip"
        },
        "valueQuantity": {
          "system": "http://unitsofmeasure.org",
          "value": 1,
          "unit": "{nominal}",
          "code": "{nominal}"
        },
        "referenceRange": [
          {
            "low": {
              "value": 1.005,
              "code": "g/mL",
              "system": "http://unitsofmeasure.org"
            }
          },
          {
            "high": {
              "value": 1.03,
              "code": "g/mL",
              "system": "http://unitsofmeasure.org"
            }
          }
        ],
        "interpretation": [
          {
            "coding": [
              {
                "code": "L",
                "system": "http://terminology.hl7.org/CodeSystem/v3-ObservationInterpretation",
                "display": "Low"
              }
            ]
          }
        ],
        "text": {
          "status": "generated",
          "div": "<div xmlns=\"http://www.w3.org/1999/xhtml\"><table class=\"hl7__eu__lab__report\"><tr><th>Test</th><th>27-Dec-2017</th><th>Reference&#xA0;Range</th><th>Unit</th></tr><tr><td>Specific gravity of Urine by Test strip</td><td>1.0</td><td>1.005 - 1.03</td><td>L</td><td>{nominal}</td></tr></table></div>"
        },
        "status": "final",
        "subject": {
          "reference": "urn:uuid:a68d4795-a41d-4c4b-a909-aa08773bb98a",
          "display": "Θεμιστοκλής Λιναρδάκη"
        },
        "effectiveDateTime": "2017-12-27T06:16:00Z",
        "specimen": {
          "reference": "urn:uuid:ba45c65e-c77f-4702-b8b5-9a232a503fc5"
        }
      }
    },
    {
      "fullUrl": "urn:uuid:1d581a40-2281-4796-bdb1-8edbbca091f8",
      "resource": {
        "resourceType": "Observation",
        "id": "1d581a40-2281-4796-bdb1-8edbbca091f8",
        "meta": {
          "profile": [
            "http://hl7.eu/fhir/laboratory/StructureDefinition/Observation-resultslab-eu-lab"
          ]
        },
        "performer": [
          {
            "display": "The Central European Lab"
          }
        ],
        "category": [
          {
            "coding": [
              {
                "system": "http://terminology.hl7.org/CodeSystem/observation-category",
                "code": "laboratory"
              }
            ]
          }
        ],
        "code": {
          "coding": [
            {
              "code": "5803-2",
              "system": "http://loinc.org",
              "display": "pH of Urine by Test strip"
            }
          ],
          "text": "pH of Urine by Test strip"
        },
        "valueQuantity": {
          "system": "http://unitsofmeasure.org",
          "value": 5.9,
          "unit": "pH",
          "code": "pH"
        },
        "referenceRange": [
          {
            "low": {
              "value": 4.6,
              "code": "pH",
              "system": "http://unitsofmeasure.org"
            }
          },
          {
            "high": {
              "value": 7,
              "code": "pH",
              "system": "http://unitsofmeasure.org"
            }
          }
        ],
        "text": {
          "status": "generated",
          "div": "<div xmlns=\"http://www.w3.org/1999/xhtml\"><table class=\"hl7__eu__lab__report\"><tr><th>Test</th><th>27-Dec-2017</th><th>Reference&#xA0;Range</th><th>Unit</th></tr><tr><td>pH of Urine by Test strip</td><td>5.9</td><td>4.6 - 7</td><td></td><td>pH</td></tr></table></div>"
        },
        "status": "final",
        "subject": {
          "reference": "urn:uuid:a68d4795-a41d-4c4b-a909-aa08773bb98a",
          "display": "Θεμιστοκλής Λιναρδάκη"
        },
        "effectiveDateTime": "2017-12-27T06:16:00Z",
        "specimen": {
          "reference": "urn:uuid:ba45c65e-c77f-4702-b8b5-9a232a503fc5"
        }
      }
    },
    {
      "fullUrl": "urn:uuid:50d6230d-bead-402f-93c1-e304bb7d5beb",
      "resource": {
        "resourceType": "Observation",
        "id": "50d6230d-bead-402f-93c1-e304bb7d5beb",
        "meta": {
          "profile": [
            "http://hl7.eu/fhir/laboratory/StructureDefinition/Observation-resultslab-eu-lab"
          ]
        },
        "performer": [
          {
            "display": "The Central European Lab"
          }
        ],
        "category": [
          {
            "coding": [
              {
                "system": "http://terminology.hl7.org/CodeSystem/observation-category",
                "code": "laboratory"
              }
            ]
          }
        ],
        "code": {
          "coding": [
            {
              "code": "5804-0",
              "system": "http://loinc.org",
              "display": "Protein [Mass/volume] in Urine by Test strip"
            }
          ],
          "text": "Protein [Mass/volume] in Urine by Test strip"
        },
        "valueQuantity": {
          "system": "http://unitsofmeasure.org",
          "value": 233.6,
          "unit": "mg/dL",
          "code": "mg/dL"
        },
        "referenceRange": [
          {
            "low": {
              "value": 0,
              "code": "mg/dL",
              "system": "http://unitsofmeasure.org"
            }
          },
          {
            "high": {
              "value": 150,
              "code": "mg/dL",
              "system": "http://unitsofmeasure.org"
            }
          }
        ],
        "interpretation": [
          {
            "coding": [
              {
                "code": "H",
                "system": "http://terminology.hl7.org/CodeSystem/v3-ObservationInterpretation",
                "display": "High"
              }
            ]
          }
        ],
        "text": {
          "status": "generated",
          "div": "<div xmlns=\"http://www.w3.org/1999/xhtml\"><table class=\"hl7__eu__lab__report\"><tr><th>Test</th><th>27-Dec-2017</th><th>Reference&#xA0;Range</th><th>Unit</th></tr><tr><td>Protein [Mass/volume] in Urine by Test strip</td><td>233.6</td><td>0 - 150</td><td>H</td><td>mg/dL</td></tr></table></div>"
        },
        "status": "final",
        "subject": {
          "reference": "urn:uuid:a68d4795-a41d-4c4b-a909-aa08773bb98a",
          "display": "Θεμιστοκλής Λιναρδάκη"
        },
        "effectiveDateTime": "2017-12-27T06:16:00Z",
        "specimen": {
          "reference": "urn:uuid:ba45c65e-c77f-4702-b8b5-9a232a503fc5"
        }
      }
    },
    {
      "fullUrl": "urn:uuid:6729e4d6-6ece-46cc-8ad3-79dca0655b61",
      "resource": {
        "resourceType": "Observation",
        "id": "6729e4d6-6ece-46cc-8ad3-79dca0655b61",
        "meta": {
          "profile": [
            "http://hl7.eu/fhir/laboratory/StructureDefinition/Observation-resultslab-eu-lab"
          ]
        },
        "performer": [
          {
            "display": "The Central European Lab"
          }
        ],
        "category": [
          {
            "coding": [
              {
                "system": "http://terminology.hl7.org/CodeSystem/observation-category",
                "code": "laboratory"
              }
            ]
          }
        ],
        "code": {
          "coding": [
            {
              "code": "20454-5",
              "system": "http://loinc.org",
              "display": "Protein [Presence] in Urine by Test strip"
            }
          ],
          "text": "Protein [Presence] in Urine by Test strip"
        },
        "text": {
          "status": "generated",
          "div": "<div xmlns=\"http://www.w3.org/1999/xhtml\"><table class=\"hl7__eu__lab__report\"><tr><th>Test</th><th>27-Dec-2017</th><th>Reference&#xA0;Range</th><th>Unit</th></tr><tr><td>Protein [Presence] in Urine by Test strip</td></tr></table></div>"
        },
        "status": "final",
        "subject": {
          "reference": "urn:uuid:a68d4795-a41d-4c4b-a909-aa08773bb98a",
          "display": "Θεμιστοκλής Λιναρδάκη"
        },
        "effectiveDateTime": "2017-12-27T06:16:00Z",
        "specimen": {
          "reference": "urn:uuid:ba45c65e-c77f-4702-b8b5-9a232a503fc5"
        }
      }
    },
    {
      "fullUrl": "urn:uuid:f74afa54-007b-4521-90d0-644f7b3f73ed",
      "resource": {
        "resourceType": "Observation",
        "id": "f74afa54-007b-4521-90d0-644f7b3f73ed",
        "meta": {
          "profile": [
            "http://hl7.eu/fhir/laboratory/StructureDefinition/Observation-resultslab-eu-lab"
          ]
        },
        "performer": [
          {
            "display": "The Central European Lab"
          }
        ],
        "category": [
          {
            "coding": [
              {
                "system": "http://terminology.hl7.org/CodeSystem/observation-category",
                "code": "laboratory"
              }
            ]
          }
        ],
        "code": {
          "coding": [
            {
              "code": "5802-4",
              "system": "http://loinc.org",
              "display": "Nitrite [Presence] in Urine by Test strip"
            }
          ],
          "text": "Nitrite [Presence] in Urine by Test strip"
        },
        "text": {
          "status": "generated",
          "div": "<div xmlns=\"http://www.w3.org/1999/xhtml\"><table class=\"hl7__eu__lab__report\"><tr><th>Test</th><th>27-Dec-2017</th><th>Reference&#xA0;Range</th><th>Unit</th></tr><tr><td>Nitrite [Presence] in Urine by Test strip</td></tr></table></div>"
        },
        "status": "final",
        "subject": {
          "reference": "urn:uuid:a68d4795-a41d-4c4b-a909-aa08773bb98a",
          "display": "Θεμιστοκλής Λιναρδάκη"
        },
        "effectiveDateTime": "2017-12-27T06:16:00Z",
        "specimen": {
          "reference": "urn:uuid:ba45c65e-c77f-4702-b8b5-9a232a503fc5"
        }
      }
    },
    {
      "fullUrl": "urn:uuid:97252261-8fd0-434d-a55f-e5a194f0dd4f",
      "resource": {
        "resourceType": "Observation",
        "id": "97252261-8fd0-434d-a55f-e5a194f0dd4f",
        "meta": {
          "profile": [
            "http://hl7.eu/fhir/laboratory/StructureDefinition/Observation-resultslab-eu-lab"
          ]
        },
        "performer": [
          {
            "display": "The Central European Lab"
          }
        ],
        "category": [
          {
            "coding": [
              {
                "system": "http://terminology.hl7.org/CodeSystem/observation-category",
                "code": "laboratory"
              }
            ]
          }
        ],
        "code": {
          "coding": [
            {
              "code": "5794-3",
              "system": "http://loinc.org",
              "display": "Hemoglobin [Presence] in Urine by Test strip"
            }
          ],
          "text": "Hemoglobin [Presence] in Urine by Test strip"
        },
        "text": {
          "status": "generated",
          "div": "<div xmlns=\"http://www.w3.org/1999/xhtml\"><table class=\"hl7__eu__lab__report\"><tr><th>Test</th><th>27-Dec-2017</th><th>Reference&#xA0;Range</th><th>Unit</th></tr><tr><td>Hemoglobin [Presence] in Urine by Test strip</td></tr></table></div>"
        },
        "status": "final",
        "subject": {
          "reference": "urn:uuid:a68d4795-a41d-4c4b-a909-aa08773bb98a",
          "display": "Θεμιστοκλής Λιναρδάκη"
        },
        "effectiveDateTime": "2017-12-27T06:16:00Z",
        "specimen": {
          "reference": "urn:uuid:ba45c65e-c77f-4702-b8b5-9a232a503fc5"
        }
      }
    },
    {
      "fullUrl": "urn:uuid:5be6369d-26e3-4f1b-be29-15d33bc887b1",
      "resource": {
        "resourceType": "Observation",
        "id": "5be6369d-26e3-4f1b-be29-15d33bc887b1",
        "meta": {
          "profile": [
            "http://hl7.eu/fhir/laboratory/StructureDefinition/Observation-resultslab-eu-lab"
          ]
        },
        "performer": [
          {
            "display": "The Central European Lab"
          }
        ],
        "category": [
          {
            "coding": [
              {
                "system": "http://terminology.hl7.org/CodeSystem/observation-category",
                "code": "laboratory"
              }
            ]
          }
        ],
        "code": {
          "coding": [
            {
              "code": "5799-2",
              "system": "http://loinc.org",
              "display": "Leukocyte esterase [Presence] in Urine by Test strip"
            }
          ],
          "text": "Leukocyte esterase [Presence] in Urine by Test strip"
        },
        "text": {
          "status": "generated",
          "div": "<div xmlns=\"http://www.w3.org/1999/xhtml\"><table class=\"hl7__eu__lab__report\"><tr><th>Test</th><th>27-Dec-2017</th><th>Reference&#xA0;Range</th><th>Unit</th></tr><tr><td>Leukocyte esterase [Presence] in Urine by Test strip</td></tr></table></div>"
        },
        "status": "final",
        "subject": {
          "reference": "urn:uuid:a68d4795-a41d-4c4b-a909-aa08773bb98a",
          "display": "Θεμιστοκλής Λιναρδάκη"
        },
        "effectiveDateTime": "2017-12-27T06:16:00Z",
        "specimen": {
          "reference": "urn:uuid:ba45c65e-c77f-4702-b8b5-9a232a503fc5"
        }
      }
    },
    {
      "fullUrl": "urn:uuid:f923668f-92f8-4dcb-a5a3-c91f116bdf5a",
      "resource": {
        "resourceType": "Observation",
        "id": "f923668f-92f8-4dcb-a5a3-c91f116bdf5a",
        "meta": {
          "profile": [
            "http://hl7.eu/fhir/laboratory/StructureDefinition/Observation-resultslab-eu-lab"
          ]
        },
        "performer": [
          {
            "display": "The Central European Lab"
          }
        ],
        "category": [
          {
            "coding": [
              {
                "system": "http://terminology.hl7.org/CodeSystem/observation-category",
                "code": "laboratory"
              }
            ]
          }
        ],
        "code": {
          "coding": [
            {
              "code": "4548-4",
              "system": "http://loinc.org",
              "display": "Hemoglobin A1c/Hemoglobin.total in Blood"
            }
          ],
          "text": "Hemoglobin A1c/Hemoglobin.total in Blood"
        },
        "valueQuantity": {
          "system": "http://unitsofmeasure.org",
          "value": 3.3,
          "unit": "%",
          "code": "%"
        },
        "referenceRange": [
          {
            "low": {
              "value": 4.3,
              "code": "%",
              "system": "http://unitsofmeasure.org"
            }
          },
          {
            "high": {
              "value": 6.4,
              "code": "%",
              "system": "http://unitsofmeasure.org"
            }
          }
        ],
        "interpretation": [
          {
            "coding": [
              {
                "code": "L",
                "system": "http://terminology.hl7.org/CodeSystem/v3-ObservationInterpretation",
                "display": "Low"
              }
            ]
          }
        ],
        "text": {
          "status": "generated",
          "div": "<div xmlns=\"http://www.w3.org/1999/xhtml\"><table class=\"hl7__eu__lab__report\"><tr><th>Test</th><th>27-Dec-2017</th><th>Reference&#xA0;Range</th><th>Unit</th></tr><tr><td>Hemoglobin A1c/Hemoglobin.total in Blood</td><td>3.3</td><td>4.3 - 6.4</td><td>L</td><td>%</td></tr></table></div>"
        },
        "status": "final",
        "subject": {
          "reference": "urn:uuid:a68d4795-a41d-4c4b-a909-aa08773bb98a",
          "display": "Θεμιστοκλής Λιναρδάκη"
        },
        "effectiveDateTime": "2017-12-27T06:16:00Z",
        "specimen": {
          "reference": "urn:uuid:b83ba050-3aee-4ee5-bf29-6b270b631902"
        }
      }
    },
    {
      "fullUrl": "urn:uuid:1979be92-d59b-4e3f-9ccc-3e47271a497f",
      "resource": {
        "resourceType": "Observation",
        "id": "1979be92-d59b-4e3f-9ccc-3e47271a497f",
        "meta": {
          "profile": [
            "http://hl7.eu/fhir/laboratory/StructureDefinition/Observation-resultslab-eu-lab"
          ]
        },
        "performer": [
          {
            "display": "The Central European Lab"
          }
        ],
        "category": [
          {
            "coding": [
              {
                "system": "http://terminology.hl7.org/CodeSystem/observation-category",
                "code": "laboratory"
              }
            ]
          }
        ],
        "code": {
          "coding": [
            {
              "code": "2339-0",
              "system": "http://loinc.org",
              "display": "Glucose [Mass/volume] in Blood"
            }
          ],
          "text": "Glucose [Mass/volume] in Blood"
        },
        "valueQuantity": {
          "system": "http://unitsofmeasure.org",
          "value": 70.7,
          "unit": "mg/dL",
          "code": "mg/dL"
        },
        "referenceRange": [
          {
            "low": {
              "value": 70,
              "code": "mg/dL",
              "system": "http://unitsofmeasure.org"
            }
          },
          {
            "high": {
              "value": 140,
              "code": "mg/dL",
              "system": "http://unitsofmeasure.org"
            }
          }
        ],
        "text": {
          "status": "generated",
          "div": "<div xmlns=\"http://www.w3.org/1999/xhtml\"><table class=\"hl7__eu__lab__report\"><tr><th>Test</th><th>27-Dec-2017</th><th>Reference&#xA0;Range</th><th>Unit</th></tr><tr><td>Glucose [Mass/volume] in Blood</td><td>70.7</td><td>70 - 140</td><td></td><td>mg/dL</td></tr></table></div>"
        },
        "status": "final",
        "subject": {
          "reference": "urn:uuid:a68d4795-a41d-4c4b-a909-aa08773bb98a",
          "display": "Θεμιστοκλής Λιναρδάκη"
        },
        "effectiveDateTime": "2017-12-27T06:16:00Z",
        "specimen": {
          "reference": "urn:uuid:b83ba050-3aee-4ee5-bf29-6b270b631902"
        }
      }
    },
    {
      "fullUrl": "urn:uuid:918547e0-82f9-45aa-8de6-84f71301d657",
      "resource": {
        "resourceType": "Observation",
        "id": "918547e0-82f9-45aa-8de6-84f71301d657",
        "meta": {
          "profile": [
            "http://hl7.eu/fhir/laboratory/StructureDefinition/Observation-resultslab-eu-lab"
          ]
        },
        "performer": [
          {
            "display": "The Central European Lab"
          }
        ],
        "category": [
          {
            "coding": [
              {
                "system": "http://terminology.hl7.org/CodeSystem/observation-category",
                "code": "laboratory"
              }
            ]
          }
        ],
        "code": {
          "coding": [
            {
              "code": "6299-2",
              "system": "http://loinc.org",
              "display": "Urea nitrogen [Mass/volume] in Blood"
            }
          ],
          "text": "Urea nitrogen [Mass/volume] in Blood"
        },
        "valueQuantity": {
          "system": "http://unitsofmeasure.org",
          "value": 15.6,
          "unit": "mg/dL",
          "code": "mg/dL"
        },
        "referenceRange": [
          {
            "low": {
              "value": 7,
              "code": "mg/dL",
              "system": "http://unitsofmeasure.org"
            }
          },
          {
            "high": {
              "value": 20,
              "code": "mg/dL",
              "system": "http://unitsofmeasure.org"
            }
          }
        ],
        "text": {
          "status": "generated",
          "div": "<div xmlns=\"http://www.w3.org/1999/xhtml\"><table class=\"hl7__eu__lab__report\"><tr><th>Test</th><th>27-Dec-2017</th><th>Reference&#xA0;Range</th><th>Unit</th></tr><tr><td>Urea nitrogen [Mass/volume] in Blood</td><td>15.6</td><td>7 - 20</td><td></td><td>mg/dL</td></tr></table></div>"
        },
        "status": "final",
        "subject": {
          "reference": "urn:uuid:a68d4795-a41d-4c4b-a909-aa08773bb98a",
          "display": "Θεμιστοκλής Λιναρδάκη"
        },
        "effectiveDateTime": "2017-12-27T06:16:00Z",
        "specimen": {
          "reference": "urn:uuid:b83ba050-3aee-4ee5-bf29-6b270b631902"
        }
      }
    },
    {
      "fullUrl": "urn:uuid:55088ada-964c-4d3f-86ab-5746d4dfd4b9",
      "resource": {
        "resourceType": "Observation",
        "id": "55088ada-964c-4d3f-86ab-5746d4dfd4b9",
        "meta": {
          "profile": [
            "http://hl7.eu/fhir/laboratory/StructureDefinition/Observation-resultslab-eu-lab"
          ]
        },
        "performer": [
          {
            "display": "The Central European Lab"
          }
        ],
        "category": [
          {
            "coding": [
              {
                "system": "http://terminology.hl7.org/CodeSystem/observation-category",
                "code": "laboratory"
              }
            ]
          }
        ],
        "code": {
          "coding": [
            {
              "code": "38483-4",
              "system": "http://loinc.org",
              "display": "Creatinine [Mass/volume] in Blood"
            }
          ],
          "text": "Creatinine [Mass/volume] in Blood"
        },
        "valueQuantity": {
          "system": "http://unitsofmeasure.org",
          "value": 6.8,
          "unit": "mg/dL",
          "code": "mg/dL"
        },
        "referenceRange": [
          {
            "low": {
              "value": 0.6,
              "code": "mg/dL",
              "system": "http://unitsofmeasure.org"
            }
          },
          {
            "high": {
              "value": 1.3,
              "code": "mg/dL",
              "system": "http://unitsofmeasure.org"
            }
          }
        ],
        "interpretation": [
          {
            "coding": [
              {
                "code": "H",
                "system": "http://terminology.hl7.org/CodeSystem/v3-ObservationInterpretation",
                "display": "High"
              }
            ]
          }
        ],
        "text": {
          "status": "generated",
          "div": "<div xmlns=\"http://www.w3.org/1999/xhtml\"><table class=\"hl7__eu__lab__report\"><tr><th>Test</th><th>27-Dec-2017</th><th>Reference&#xA0;Range</th><th>Unit</th></tr><tr><td>Creatinine [Mass/volume] in Blood</td><td>6.8</td><td>0.6 - 1.3</td><td>H</td><td>mg/dL</td></tr></table></div>"
        },
        "status": "final",
        "subject": {
          "reference": "urn:uuid:a68d4795-a41d-4c4b-a909-aa08773bb98a",
          "display": "Θεμιστοκλής Λιναρδάκη"
        },
        "effectiveDateTime": "2017-12-27T06:16:00Z",
        "specimen": {
          "reference": "urn:uuid:b83ba050-3aee-4ee5-bf29-6b270b631902"
        }
      }
    },
    {
      "fullUrl": "urn:uuid:d83bb892-30f3-4ab7-ba5e-452c63c035ff",
      "resource": {
        "resourceType": "Observation",
        "id": "d83bb892-30f3-4ab7-ba5e-452c63c035ff",
        "meta": {
          "profile": [
            "http://hl7.eu/fhir/laboratory/StructureDefinition/Observation-resultslab-eu-lab"
          ]
        },
        "performer": [
          {
            "display": "The Central European Lab"
          }
        ],
        "category": [
          {
            "coding": [
              {
                "system": "http://terminology.hl7.org/CodeSystem/observation-category",
                "code": "laboratory"
              }
            ]
          }
        ],
        "code": {
          "coding": [
            {
              "code": "49765-1",
              "system": "http://loinc.org",
              "display": "Calcium [Mass/volume] in Blood"
            }
          ],
          "text": "Calcium [Mass/volume] in Blood"
        },
        "valueQuantity": {
          "system": "http://unitsofmeasure.org",
          "value": 8.8,
          "unit": "mg/dL",
          "code": "mg/dL"
        },
        "referenceRange": [
          {
            "low": {
              "value": 8.5,
              "code": "mg/dL",
              "system": "http://unitsofmeasure.org"
            }
          },
          {
            "high": {
              "value": 10.5,
              "code": "mg/dL",
              "system": "http://unitsofmeasure.org"
            }
          }
        ],
        "text": {
          "status": "generated",
          "div": "<div xmlns=\"http://www.w3.org/1999/xhtml\"><table class=\"hl7__eu__lab__report\"><tr><th>Test</th><th>27-Dec-2017</th><th>Reference&#xA0;Range</th><th>Unit</th></tr><tr><td>Calcium [Mass/volume] in Blood</td><td>8.8</td><td>8.5 - 10.5</td><td></td><td>mg/dL</td></tr></table></div>"
        },
        "status": "final",
        "subject": {
          "reference": "urn:uuid:a68d4795-a41d-4c4b-a909-aa08773bb98a",
          "display": "Θεμιστοκλής Λιναρδάκη"
        },
        "effectiveDateTime": "2017-12-27T06:16:00Z",
        "specimen": {
          "reference": "urn:uuid:b83ba050-3aee-4ee5-bf29-6b270b631902"
        }
      }
    },
    {
      "fullUrl": "urn:uuid:be286787-0b19-4fe7-a666-4aabb9a56733",
      "resource": {
        "resourceType": "Observation",
        "id": "be286787-0b19-4fe7-a666-4aabb9a56733",
        "meta": {
          "profile": [
            "http://hl7.eu/fhir/laboratory/StructureDefinition/Observation-resultslab-eu-lab"
          ]
        },
        "performer": [
          {
            "display": "The Central European Lab"
          }
        ],
        "category": [
          {
            "coding": [
              {
                "system": "http://terminology.hl7.org/CodeSystem/observation-category",
                "code": "laboratory"
              }
            ]
          }
        ],
        "code": {
          "coding": [
            {
              "code": "2947-0",
              "system": "http://loinc.org",
              "display": "Sodium [Moles/volume] in Blood"
            }
          ],
          "text": "Sodium [Moles/volume] in Blood"
        },
        "valueQuantity": {
          "system": "http://unitsofmeasure.org",
          "value": 138.4,
          "unit": "mmol/L",
          "code": "mmol/L"
        },
        "referenceRange": [
          {
            "low": {
              "value": 135,
              "code": "mmol/L",
              "system": "http://unitsofmeasure.org"
            }
          },
          {
            "high": {
              "value": 145,
              "code": "mmol/L",
              "system": "http://unitsofmeasure.org"
            }
          }
        ],
        "text": {
          "status": "generated",
          "div": "<div xmlns=\"http://www.w3.org/1999/xhtml\"><table class=\"hl7__eu__lab__report\"><tr><th>Test</th><th>27-Dec-2017</th><th>Reference&#xA0;Range</th><th>Unit</th></tr><tr><td>Sodium [Moles/volume] in Blood</td><td>138.4</td><td>135 - 145</td><td></td><td>mmol/L</td></tr></table></div>"
        },
        "status": "final",
        "subject": {
          "reference": "urn:uuid:a68d4795-a41d-4c4b-a909-aa08773bb98a",
          "display": "Θεμιστοκλής Λιναρδάκη"
        },
        "effectiveDateTime": "2017-12-27T06:16:00Z",
        "specimen": {
          "reference": "urn:uuid:b83ba050-3aee-4ee5-bf29-6b270b631902"
        }
      }
    },
    {
      "fullUrl": "urn:uuid:da79538d-fb61-4735-87ab-d6525b76dd6e",
      "resource": {
        "resourceType": "Observation",
        "id": "da79538d-fb61-4735-87ab-d6525b76dd6e",
        "meta": {
          "profile": [
            "http://hl7.eu/fhir/laboratory/StructureDefinition/Observation-resultslab-eu-lab"
          ]
        },
        "performer": [
          {
            "display": "The Central European Lab"
          }
        ],
        "category": [
          {
            "coding": [
              {
                "system": "http://terminology.hl7.org/CodeSystem/observation-category",
                "code": "laboratory"
              }
            ]
          }
        ],
        "code": {
          "coding": [
            {
              "code": "6298-4",
              "system": "http://loinc.org",
              "display": "Potassium [Moles/volume] in Blood"
            }
          ],
          "text": "Potassium [Moles/volume] in Blood"
        },
        "valueQuantity": {
          "system": "http://unitsofmeasure.org",
          "value": 4.3,
          "unit": "mmol/L",
          "code": "mmol/L"
        },
        "referenceRange": [
          {
            "low": {
              "value": 3.5,
              "code": "mmol/L",
              "system": "http://unitsofmeasure.org"
            }
          },
          {
            "high": {
              "value": 5.3,
              "code": "mmol/L",
              "system": "http://unitsofmeasure.org"
            }
          }
        ],
        "text": {
          "status": "generated",
          "div": "<div xmlns=\"http://www.w3.org/1999/xhtml\"><table class=\"hl7__eu__lab__report\"><tr><th>Test</th><th>27-Dec-2017</th><th>Reference&#xA0;Range</th><th>Unit</th></tr><tr><td>Potassium [Moles/volume] in Blood</td><td>4.3</td><td>3.5 - 5.3</td><td></td><td>mmol/L</td></tr></table></div>"
        },
        "status": "final",
        "subject": {
          "reference": "urn:uuid:a68d4795-a41d-4c4b-a909-aa08773bb98a",
          "display": "Θεμιστοκλής Λιναρδάκη"
        },
        "effectiveDateTime": "2017-12-27T06:16:00Z",
        "specimen": {
          "reference": "urn:uuid:b83ba050-3aee-4ee5-bf29-6b270b631902"
        }
      }
    },
    {
      "fullUrl": "urn:uuid:1f077e77-0694-4fa4-9228-53e91782b93f",
      "resource": {
        "resourceType": "Observation",
        "id": "1f077e77-0694-4fa4-9228-53e91782b93f",
        "meta": {
          "profile": [
            "http://hl7.eu/fhir/laboratory/StructureDefinition/Observation-resultslab-eu-lab"
          ]
        },
        "performer": [
          {
            "display": "The Central European Lab"
          }
        ],
        "category": [
          {
            "coding": [
              {
                "system": "http://terminology.hl7.org/CodeSystem/observation-category",
                "code": "laboratory"
              }
            ]
          }
        ],
        "code": {
          "coding": [
            {
              "code": "2069-3",
              "system": "http://loinc.org",
              "display": "Chloride [Moles/volume] in Blood"
            }
          ],
          "text": "Chloride [Moles/volume] in Blood"
        },
        "valueQuantity": {
          "system": "http://unitsofmeasure.org",
          "value": 110.9,
          "unit": "mmol/L",
          "code": "mmol/L"
        },
        "referenceRange": [
          {
            "low": {
              "value": 98,
              "code": "mmol/L",
              "system": "http://unitsofmeasure.org"
            }
          },
          {
            "high": {
              "value": 110,
              "code": "mmol/L",
              "system": "http://unitsofmeasure.org"
            }
          }
        ],
        "interpretation": [
          {
            "coding": [
              {
                "code": "H",
                "system": "http://terminology.hl7.org/CodeSystem/v3-ObservationInterpretation",
                "display": "High"
              }
            ]
          }
        ],
        "text": {
          "status": "generated",
          "div": "<div xmlns=\"http://www.w3.org/1999/xhtml\"><table class=\"hl7__eu__lab__report\"><tr><th>Test</th><th>27-Dec-2017</th><th>Reference&#xA0;Range</th><th>Unit</th></tr><tr><td>Chloride [Moles/volume] in Blood</td><td>110.9</td><td>98 - 110</td><td>H</td><td>mmol/L</td></tr></table></div>"
        },
        "status": "final",
        "subject": {
          "reference": "urn:uuid:a68d4795-a41d-4c4b-a909-aa08773bb98a",
          "display": "Θεμιστοκλής Λιναρδάκη"
        },
        "effectiveDateTime": "2017-12-27T06:16:00Z",
        "specimen": {
          "reference": "urn:uuid:b83ba050-3aee-4ee5-bf29-6b270b631902"
        }
      }
    },
    {
      "fullUrl": "urn:uuid:69546da4-5705-41b3-9231-efd8476a1c84",
      "resource": {
        "resourceType": "Observation",
        "id": "69546da4-5705-41b3-9231-efd8476a1c84",
        "meta": {
          "profile": [
            "http://hl7.eu/fhir/laboratory/StructureDefinition/Observation-resultslab-eu-lab"
          ]
        },
        "performer": [
          {
            "display": "The Central European Lab"
          }
        ],
        "category": [
          {
            "coding": [
              {
                "system": "http://terminology.hl7.org/CodeSystem/observation-category",
                "code": "laboratory"
              }
            ]
          }
        ],
        "code": {
          "coding": [
            {
              "code": "20565-8",
              "system": "http://loinc.org",
              "display": "Carbon dioxide, total [Moles/volume] in Blood"
            }
          ],
          "text": "Carbon dioxide, total [Moles/volume] in Blood"
        },
        "valueQuantity": {
          "system": "http://unitsofmeasure.org",
          "value": 27.2,
          "unit": "mmol/L",
          "code": "mmol/L"
        },
        "referenceRange": [
          {
            "low": {
              "value": 22,
              "code": "mmol/L",
              "system": "http://unitsofmeasure.org"
            }
          },
          {
            "high": {
              "value": 29,
              "code": "mmol/L",
              "system": "http://unitsofmeasure.org"
            }
          }
        ],
        "text": {
          "status": "generated",
          "div": "<div xmlns=\"http://www.w3.org/1999/xhtml\"><table class=\"hl7__eu__lab__report\"><tr><th>Test</th><th>27-Dec-2017</th><th>Reference&#xA0;Range</th><th>Unit</th></tr><tr><td>Carbon dioxide, total [Moles/volume] in Blood</td><td>27.2</td><td>22 - 29</td><td></td><td>mmol/L</td></tr></table></div>"
        },
        "status": "final",
        "subject": {
          "reference": "urn:uuid:a68d4795-a41d-4c4b-a909-aa08773bb98a",
          "display": "Θεμιστοκλής Λιναρδάκη"
        },
        "effectiveDateTime": "2017-12-27T06:16:00Z",
        "specimen": {
          "reference": "urn:uuid:b83ba050-3aee-4ee5-bf29-6b270b631902"
        }
      }
    },
    {
      "fullUrl": "urn:uuid:2db4d038-a015-481c-a4ad-596b4c991a3f",
      "resource": {
        "resourceType": "Device",
        "id": "2db4d038-a015-481c-a4ad-596b4c991a3f",
        "deviceName": [
          {
            "name": "SYNDERAI Synthetic Generator",
            "type": "manufacturer-name"
          }
        ],
        "version": [
          {
            "value": "5.0"
          }
        ],
        "text": {
          "status": "generated",
          "div": "<div xmlns=\"http://www.w3.org/1999/xhtml\">SYNDERAI Synthetic Generator v5.0</div>"
        },
        "status": "active\"",
        "distinctIdentifier": "synderai-generator-50",
        "manufacturer": "SYNDERAI Project"
      }
    },
    {
      "fullUrl": "urn:uuid:3a0d9157-8af6-4ffc-9486-edf92ea27746",
      "resource": {
        "resourceType": "Provenance",
        "id": "3a0d9157-8af6-4ffc-9486-edf92ea27746",
        "target": [
          {
            "reference": "Patient/a68d4795-a41d-4c4b-a909-aa08773bb98a"
          },
          {
            "reference": "Bundle/c5b07a03-9641-49e4-a962-fdd79b2398a1"
          },
          {
            "reference": "Composition/d7d98231-0341-451d-a9e9-aec0811be87d"
          },
          {
            "reference": "PractitionerRole/b520bc9c-fb8f-4e95-9041-e8654ccaf893"
          },
          {
            "reference": "Practitioner/a88f7279-d7a2-475b-8ea5-036762ed39d9"
          },
          {
            "reference": "PractitionerRole/831d98f7-4b98-4a6d-9ec0-b18c90221bbf"
          },
          {
            "reference": "Organization/ca892b6d-3e5f-4e21-ada1-319544a5ceaf"
          }
        ],
        "activity": {
          "text": "Synthetic Example Data Generation"
        },
        "policy": [
          "https://synderai.net/synderai-synthetic-data-policy"
        ],
        "agent": [
          {
            "type": {
              "text": "author"
            },
            "who": {
              "reference": "Device/2db4d038-a015-481c-a4ad-596b4c991a3f"
            }
          }
        ],
        "reason": [
          {
            "text": "Interoperability Testing and Training (non-clinical use)"
          }
        ],
        "text": {
          "status": "generated",
          "div": "<div xmlns=\"http://www.w3.org/1999/xhtml\">Provenance for SYNDERAI Synthetic Example Data Resource</div>"
        },
        "recorded": "2017-12-27T07:16:00Z"
      }
    },
    {
      "fullUrl": "urn:uuid:b520bc9c-fb8f-4e95-9041-e8654ccaf893",
      "resource": {
        "resourceType": "PractitionerRole",
        "id": "b520bc9c-fb8f-4e95-9041-e8654ccaf893",
        "meta": {
          "profile": [
            "http://hl7.eu/fhir/base/StructureDefinition/practitionerRole-eu"
          ]
        },
        "text": {
          "status": "generated",
          "div": "<div xmlns=\"http://www.w3.org/1999/xhtml\">Laboratory Role Id: b520bc9c-fb8f-4e95-9041-e8654ccaf893</div>"
        },
        "practitioner": {
          "reference": "urn:uuid:a88f7279-d7a2-475b-8ea5-036762ed39d9"
        }
      }
    },
    {
      "fullUrl": "urn:uuid:a88f7279-d7a2-475b-8ea5-036762ed39d9",
      "resource": {
        "resourceType": "Practitioner",
        "id": "a88f7279-d7a2-475b-8ea5-036762ed39d9",
        "meta": {
          "profile": [
            "http://hl7.eu/fhir/base/StructureDefinition/practitioner-eu"
          ]
        },
        "identifier": [
          {
            "assigner": {
              "display": "HL7 Europe"
            },
            "system": "urn:oid:2.16.840.1.113883.2.51.999",
            "value": "efd66ea2-813c-446c-8c31-b9baf2ae279d"
          }
        ],
        "name": [
          {
            "prefix": [
              "dr"
            ],
            "given": [
              "Ex"
            ],
            "family": "Ample"
          }
        ],
        "address": [
          {
            "line": [
              "Laboratoire Central Européenne",
              "Boulevard du Jardin Botanique 32"
            ],
            "postalCode": "1000",
            "city": "Brussels",
            "country": "Belgium"
          }
        ],
        "text": {
          "status": "generated",
          "div": "<div xmlns=\"http://www.w3.org/1999/xhtml\">Laboratory: Laboratoire Central Européenne, 1000 Brussels, Belgium</div>"
        }
      }
    }
  ],
  "type": "document",
  "timestamp": "2017-12-27T07:16:00Z"
}
