{
  "resourceType": "Bundle",
  "id": "b123ac89-223a-481e-ac8b-7aa4a4b0bf90",
  "meta": {
    "profile": [
      "http://hl7.eu/fhir/laboratory/StructureDefinition/Bundle-eu-lab"
    ]
  },
  "identifier": {
    "assigner": {
      "display": "HL7 Europe"
    },
    "system": "urn:oid:2.16.840.1.113883.2.51.999",
    "value": "20411cc3-16d9-45df-8067-1eec64862c8b"
  },
  "entry": [
    {
      "fullUrl": "urn:uuid:22aee624-e7ea-47cf-a4aa-3f5c617b88b2",
      "resource": {
        "resourceType": "Composition",
        "id": "22aee624-e7ea-47cf-a4aa-3f5c617b88b2",
        "meta": {
          "profile": [
            "http://hl7.eu/fhir/laboratory/StructureDefinition/Composition-eu-lab"
          ]
        },
        "identifier": {
          "assigner": {
            "display": "HL7 Europe"
          },
          "system": "urn:oid:2.16.840.1.113883.2.51.999",
          "value": "ccc5b683-aeb0-420b-bef7-119a5b8ad776"
        },
        "author": [
          {
            "reference": "urn:uuid:841955b6-5294-47fe-b97f-282d70bfc6ec"
          }
        ],
        "category": [
          {
            "coding": [
              {
                "code": "26436-6",
                "system": "http://loinc.org",
                "display": "Laboratory studies (set)"
              }
            ]
          }
        ],
        "type": {
          "coding": [
            {
              "code": "11502-2",
              "system": "http://loinc.org",
              "display": "Laboratory report"
            }
          ],
          "text": "Laboratory Report"
        },
        "section": [
          {
            "code": {
              "coding": [
                {
                  "code": "26436-6",
                  "system": "http://loinc.org",
                  "display": "Laboratory studies (set)"
                }
              ],
              "text": "Laboratory studies"
            },
            "section": [
              {
                "code": {
                  "coding": [
                    {
                      "code": "$18723-7",
                      "system": "http://loinc.org",
                      "display": "Hematology studies (set)"
                    }
                  ],
                  "text": "Hematology"
                },
                "entry": [
                  {
                    "reference": "urn:uuid:9be77b90-3b09-4834-9d99-9a08d9078dc0"
                  },
                  {
                    "reference": "urn:uuid:fed81091-de0b-4cde-9602-3cfc4585a4f9"
                  },
                  {
                    "reference": "urn:uuid:57af9351-2c44-4720-90a4-2d90a0eed4fb"
                  },
                  {
                    "reference": "urn:uuid:b0aa6c34-c161-4fd7-9fe7-1ebd40926afa"
                  },
                  {
                    "reference": "urn:uuid:1de0bbe9-732a-4110-9e78-f6d20e6ec829"
                  },
                  {
                    "reference": "urn:uuid:883d99d9-4a1b-4d18-8b26-06e66cada651"
                  },
                  {
                    "reference": "urn:uuid:b8c2f4ef-f073-4c0d-b7f8-c176d5e814f1"
                  },
                  {
                    "reference": "urn:uuid:230705eb-dc87-4705-bcbd-cc88e45f43a7"
                  },
                  {
                    "reference": "urn:uuid:d20501f0-956f-48ab-8e35-76eedda3d9c2"
                  },
                  {
                    "reference": "urn:uuid:002645f1-4467-43c5-a577-78b8e5181ff7"
                  },
                  {
                    "reference": "urn:uuid:03683ba9-4f0b-4140-939d-3fd6f49d386a"
                  }
                ],
                "text": {
                  "status": "generated",
                  "div": "<div xmlns=\"http://www.w3.org/1999/xhtml\"><h3>Hematology</h3><table class=\"hl7__eu__lab__report\"><thead><tr><th>Test</th><th>27-MAR-2021</th><th>Reference&#xA0;Range</th><th>Unit</th></tr></thead><tbody><tr><td>Leukocytes [#/volume] in Blood by Automated count</td><td>5.9</td><td>3.5 - 10.5</td><td>10*3/uL</td></tr><tr><td>Erythrocytes [#/volume] in Blood by Automated count</td><td>5.2</td><td>4.5 - 5.5</td><td>10*6/uL</td></tr><tr><td>Hemoglobin [Mass/volume] in Blood</td><td><strong>17.3 H</strong></td><td>12 - 16</td><td>g/dL</td></tr><tr><td>Hematocrit [Volume Fraction] of Blood by Automated count</td><td>36.5</td><td>36 - 48</td><td>%</td></tr><tr><td>MCV [Entitic volume] by Automated count</td><td><strong>81.5 L</strong></td><td>82 - 98</td><td>fL</td></tr><tr><td>MCH [Entitic mass] by Automated count</td><td>28.4</td><td>27.5 - 34.5</td><td>pg</td></tr><tr><td>MCHC [Mass/volume] by Automated count</td><td>33.6</td><td>32 - 37</td><td>g/dL</td></tr><tr><td>Erythrocyte distribution width [Entitic volume] by Automated count</td><td>45.6</td><td>36 - 55</td><td>fL</td></tr><tr><td>Platelets [#/volume] in Blood by Automated count</td><td>333.8</td><td>150 - 450</td><td>10*3/uL</td></tr><tr><td>Platelet distribution width [Entitic volume] in Blood by Automated count</td><td><strong>330.5 H</strong></td><td>11 - 15</td><td>fL</td></tr><tr><td>Platelet mean volume [Entitic volume] in Blood by Automated count</td><td>9.9</td><td>7.2 - 13.8</td><td>fL</td></tr></tbody></table></div>"
                },
                "title": "Hematology"
              }
            ],
            "title": "Laboratory Report"
          },
          {
            "text": {
              "status": "generated",
              "div": "<div xmlns=\"http://www.w3.org/1999/xhtml\"><h3>Annotation</h3><table class=\"hl7__eu__lab__report\"><tr><th>Conclusion and Recommendations based on this report and previous findings known to us</th></tr><tr><td>The results show elevated hemoglobin and a slightly low MCV, which may suggest mild erythrocytosis or possible dehydration; other red cell indices are within normal limits. Platelet count is normal, but platelet distribution width is markedly elevated, which may indicate increased platelet size variability, possibly due to reactive or regenerative processes. No acute abnormalities detected, but clinical correlation is recommended.</td></tr></table></div>"
            },
            "code": {
              "coding": [
                {
                  "system": "http://loinc.org",
                  "code": "48767-8",
                  "display": "Annotation comment"
                }
              ]
            },
            "title": "Annotation comment"
          }
        ],
        "status": "final",
        "subject": {
          "reference": "urn:uuid:5a5ed36e-eb13-4639-b527-4269b97a0047",
          "display": "Pamela Dixon"
        },
        "date": "2021-03-27T19:20:37Z",
        "title": "Laboratory Report",
        "confidentiality": "N"
      }
    },
    {
      "fullUrl": "urn:uuid:becb5b58-d5bd-44ed-b6d3-747975632abe",
      "resource": {
        "resourceType": "DiagnosticReport",
        "id": "becb5b58-d5bd-44ed-b6d3-747975632abe",
        "meta": {
          "profile": [
            "http://hl7.eu/fhir/laboratory/StructureDefinition/DiagnosticReport-eu-lab"
          ]
        },
        "identifier": [
          {
            "assigner": {
              "display": "HL7 Europe"
            },
            "system": "urn:oid:2.16.840.1.113883.2.51.999",
            "value": "93b0fa73-e240-4677-b932-7ca628d3f27f"
          }
        ],
        "extension": [
          {
            "url": "http://hl7.org/fhir/5.0/StructureDefinition/extension-DiagnosticReport.composition",
            "valueReference": {
              "reference": "urn:uuid:ccc5b683-aeb0-420b-bef7-119a5b8ad776"
            }
          }
        ],
        "category": [
          {
            "coding": [
              {
                "code": "26436-6",
                "system": "http://loinc.org",
                "display": "Laboratory studies (set)"
              }
            ]
          }
        ],
        "specimen": [
          {
            "reference": "urn:uuid:e7f02377-5a2c-4ed0-a446-6326e58a2226"
          },
          {
            "reference": "urn:uuid:e7f02377-5a2c-4ed0-a446-6326e58a2226"
          }
        ],
        "result": [
          {
            "reference": "urn:uuid:9be77b90-3b09-4834-9d99-9a08d9078dc0"
          },
          {
            "reference": "urn:uuid:fed81091-de0b-4cde-9602-3cfc4585a4f9"
          },
          {
            "reference": "urn:uuid:57af9351-2c44-4720-90a4-2d90a0eed4fb"
          },
          {
            "reference": "urn:uuid:b0aa6c34-c161-4fd7-9fe7-1ebd40926afa"
          },
          {
            "reference": "urn:uuid:1de0bbe9-732a-4110-9e78-f6d20e6ec829"
          },
          {
            "reference": "urn:uuid:883d99d9-4a1b-4d18-8b26-06e66cada651"
          },
          {
            "reference": "urn:uuid:b8c2f4ef-f073-4c0d-b7f8-c176d5e814f1"
          },
          {
            "reference": "urn:uuid:230705eb-dc87-4705-bcbd-cc88e45f43a7"
          },
          {
            "reference": "urn:uuid:d20501f0-956f-48ab-8e35-76eedda3d9c2"
          },
          {
            "reference": "urn:uuid:002645f1-4467-43c5-a577-78b8e5181ff7"
          },
          {
            "reference": "urn:uuid:03683ba9-4f0b-4140-939d-3fd6f49d386a"
          }
        ],
        "status": "registered",
        "code": {
          "coding": [
            {
              "code": "11502-2",
              "system": "http://loinc.org",
              "display": "Laboratory report"
            }
          ]
        },
        "subject": {
          "reference": "urn:uuid:5a5ed36e-eb13-4639-b527-4269b97a0047",
          "display": "Pamela Dixon"
        }
      }
    },
    {
      "fullUrl": "urn:uuid:5a5ed36e-eb13-4639-b527-4269b97a0047",
      "resource": {
        "resourceType": "Patient",
        "id": "5a5ed36e-eb13-4639-b527-4269b97a0047",
        "meta": {
          "security": [
            {
              "system": "http://terminology.hl7.org/CodeSystem/v3-ActReason",
              "code": "HTEST"
            },
            {
              "system": "http://terminology.hl7.org/CodeSystem/v3-ActReason",
              "code": "TRAIN"
            }
          ],
          "tag": [
            {
              "system": "https://synderai.net/fhir/CodeSystem/tags",
              "code": "synthetic",
              "display": "SYNDERAI Synthetic data"
            }
          ],
          "profile": [
            "http://hl7.eu/fhir/base/StructureDefinition/patient-eu-core"
          ]
        },
        "identifier": [
          {
            "type": {
              "coding": [
                {
                  "code": "PT",
                  "system": "http://terminology.hl7.org/CodeSystem/v2-0203"
                }
              ]
            },
            "system": "http://ec.europa.eu/identifier/eci",
            "value": "6166-148600-3"
          },
          {
            "type": {
              "coding": [
                {
                  "code": "MR",
                  "system": "http://terminology.hl7.org/CodeSystem/v2-0203"
                }
              ]
            },
            "system": "http://local.setting.eu/identifier",
            "value": "aa6e2273-ade9-f985-ca21-1a30863d243e"
          }
        ],
        "name": [
          {
            "family": "Dixon"
          },
          {
            "given": [
              "Pamela"
            ]
          },
          {
            "text": "Pamela Dixon"
          }
        ],
        "address": [
          {
            "line": [
              "6 Diana landing"
            ],
            "use": "home",
            "type": "physical",
            "postalCode": "M14",
            "city": "Claireport",
            "country": "United Kingdom"
          }
        ],
        "telecom": [
          {
            "system": "phone",
            "value": "0121 496 0481"
          }
        ],
        "extension": [
          {
            "url": "http://hl7.org/fhir/StructureDefinition/patient-nationality",
            "valueCodeableConcept": {
              "coding": [
                {
                  "code": "GB",
                  "system": "http://hl7.org/fhir/ValueSet/country"
                }
              ]
            }
          }
        ],
        "text": {
          "status": "generated",
          "div": "<div xmlns=\"http://www.w3.org/1999/xhtml\"><table class=\"hl7__ips\"><tr><td>Pamela Dixon</td><td>female</td><td>01-Dec-1990</td></tr></table></div>"
        },
        "gender": "female",
        "birthDate": "1990-12-01"
      }
    },
    {
      "fullUrl": "urn:uuid:4a56fc4c-9fc1-4719-8f36-712737026903",
      "resource": {
        "resourceType": "ServiceRequest",
        "id": "4a56fc4c-9fc1-4719-8f36-712737026903",
        "meta": {
          "profile": [
            "http://hl7.eu/fhir/laboratory/StructureDefinition/ServiceRequest-eu-lab"
          ]
        },
        "identifier": [
          {
            "system": "http://example.org",
            "value": "6285f080-5ca5-40fa-8512-7bf8dea9bb3a"
          }
        ],
        "specimen": [
          {
            "reference": "urn:uuid:e7f02377-5a2c-4ed0-a446-6326e58a2226"
          }
        ],
        "status": "active",
        "intent": "order",
        "code": {
          "coding": [
            {
              "code": "108252007",
              "system": "http://snomed.info/sct",
              "display": "Laboratory procedure"
            }
          ]
        },
        "subject": {
          "reference": "urn:uuid:5a5ed36e-eb13-4639-b527-4269b97a0047",
          "display": "Pamela Dixon"
        },
        "requester": {
          "reference": "urn:uuid:8948a73c-6a07-4ed6-bfa4-abe149fe11d6"
        }
      }
    },
    {
      "fullUrl": "urn:uuid:8948a73c-6a07-4ed6-bfa4-abe149fe11d6",
      "resource": {
        "resourceType": "PractitionerRole",
        "id": "8948a73c-6a07-4ed6-bfa4-abe149fe11d6",
        "meta": {
          "profile": [
            "http://hl7.eu/fhir/base/StructureDefinition/practitionerRole-eu"
          ]
        },
        "text": {
          "status": "generated",
          "div": "<div xmlns=\"http://www.w3.org/1999/xhtml\">Provider Role Id: 8948a73c-6a07-4ed6-bfa4-abe149fe11d6</div>"
        },
        "organization": {
          "reference": "urn:uuid:d860ae41-76b1-4b0a-9422-12fb917fdf42"
        }
      }
    },
    {
      "fullUrl": "urn:uuid:d860ae41-76b1-4b0a-9422-12fb917fdf42",
      "resource": {
        "resourceType": "Organization",
        "id": "d860ae41-76b1-4b0a-9422-12fb917fdf42",
        "meta": {
          "profile": [
            "http://hl7.eu/fhir/base/StructureDefinition/organization-eu"
          ]
        },
        "identifier": [
          {
            "assigner": {
              "display": "HL7 Europe"
            },
            "system": "urn:oid:2.16.840.1.113883.2.51.999",
            "value": "9de20ed2-a0ed-4953-84ff-ba91dabc2e55"
          }
        ],
        "address": [
          {
            "line": [
              "City Road 204"
            ],
            "city": "Manchester",
            "postalCode": "M3 3",
            "country": "United Kingdom"
          }
        ],
        "text": {
          "status": "generated",
          "div": "<div xmlns=\"http://www.w3.org/1999/xhtml\">Provider Organization: Cornbrook Medical Practice</div>"
        },
        "name": "Cornbrook Medical Practice"
      }
    },
    {
      "fullUrl": "urn:uuid:e7f02377-5a2c-4ed0-a446-6326e58a2226",
      "resource": {
        "resourceType": "Specimen",
        "id": "e7f02377-5a2c-4ed0-a446-6326e58a2226",
        "meta": {
          "profile": [
            "http://hl7.eu/fhir/laboratory/StructureDefinition/Specimen-eu-lab"
          ]
        },
        "collection": {
          "collectedDateTime": "2021-03-27"
        },
        "text": {
          "status": "generated",
          "div": "<div xmlns=\"http://www.w3.org/1999/xhtml\"><table class=\"hl7__eu__lab__report\"><tr><th>Specimen</th><th>Collection Date</th></tr><tr><td>Whole blood specimen (specimen)</td><td><span class=\"nb\">27-Mar-2021</span></td></tr></table></div>"
        },
        "type": {
          "coding": [
            {
              "code": "258580003",
              "system": "http://snomed.info/sct",
              "display": "Whole blood specimen (specimen)"
            }
          ]
        }
      }
    },
    {
      "fullUrl": "urn:uuid:e7f02377-5a2c-4ed0-a446-6326e58a2226",
      "resource": {
        "resourceType": "Specimen",
        "id": "e7f02377-5a2c-4ed0-a446-6326e58a2226",
        "meta": {
          "profile": [
            "http://hl7.eu/fhir/laboratory/StructureDefinition/Specimen-eu-lab"
          ]
        },
        "collection": {
          "collectedDateTime": "2021-03-27"
        },
        "text": {
          "status": "generated",
          "div": "<div xmlns=\"http://www.w3.org/1999/xhtml\"><table class=\"hl7__eu__lab__report\"><tr><th>Specimen</th><th>Collection Date</th></tr><tr><td>Whole blood specimen (specimen)</td><td><span class=\"nb\">27-Mar-2021</span></td></tr></table></div>"
        },
        "type": {
          "coding": [
            {
              "code": "258580003",
              "system": "http://snomed.info/sct",
              "display": "Whole blood specimen (specimen)"
            }
          ]
        }
      }
    },
    {
      "fullUrl": "urn:uuid:9be77b90-3b09-4834-9d99-9a08d9078dc0",
      "resource": {
        "resourceType": "Observation",
        "id": "9be77b90-3b09-4834-9d99-9a08d9078dc0",
        "meta": {
          "profile": [
            "http://hl7.eu/fhir/laboratory/StructureDefinition/Observation-resultslab-eu-lab"
          ]
        },
        "performer": [
          {
            "display": "The Central European Lab"
          }
        ],
        "category": [
          {
            "coding": [
              {
                "system": "http://terminology.hl7.org/CodeSystem/observation-category",
                "code": "laboratory"
              }
            ]
          }
        ],
        "code": {
          "coding": [
            {
              "code": "6690-2",
              "system": "http://loinc.org",
              "display": "Leukocytes [#/volume] in Blood by Automated count"
            }
          ],
          "text": "Leukocytes [#/volume] in Blood by Automated count"
        },
        "valueQuantity": {
          "system": "http://unitsofmeasure.org",
          "value": 5.9,
          "unit": "10*3/uL",
          "code": "10*3/uL"
        },
        "referenceRange": [
          {
            "low": {
              "value": 3.5,
              "code": "10*3/uL",
              "system": "http://unitsofmeasure.org"
            }
          },
          {
            "high": {
              "value": 10.5,
              "code": "10*3/uL",
              "system": "http://unitsofmeasure.org"
            }
          }
        ],
        "text": {
          "status": "generated",
          "div": "<div xmlns=\"http://www.w3.org/1999/xhtml\"><table class=\"hl7__eu__lab__report\"><tr><th>Test</th><th>27-Mar-2021</th><th>Reference&#xA0;Range</th><th>Unit</th></tr><tr><td>Leukocytes [#/volume] in Blood by Automated count</td><td>5.9</td><td>3.5 - 10.5</td><td></td><td>10*3/uL</td></tr></table></div>"
        },
        "status": "final",
        "subject": {
          "reference": "urn:uuid:5a5ed36e-eb13-4639-b527-4269b97a0047",
          "display": "Pamela Dixon"
        },
        "effectiveDateTime": "2021-03-27T18:20:37Z",
        "specimen": {
          "reference": "urn:uuid:e7f02377-5a2c-4ed0-a446-6326e58a2226"
        }
      }
    },
    {
      "fullUrl": "urn:uuid:fed81091-de0b-4cde-9602-3cfc4585a4f9",
      "resource": {
        "resourceType": "Observation",
        "id": "fed81091-de0b-4cde-9602-3cfc4585a4f9",
        "meta": {
          "profile": [
            "http://hl7.eu/fhir/laboratory/StructureDefinition/Observation-resultslab-eu-lab"
          ]
        },
        "performer": [
          {
            "display": "The Central European Lab"
          }
        ],
        "category": [
          {
            "coding": [
              {
                "system": "http://terminology.hl7.org/CodeSystem/observation-category",
                "code": "laboratory"
              }
            ]
          }
        ],
        "code": {
          "coding": [
            {
              "code": "789-8",
              "system": "http://loinc.org",
              "display": "Erythrocytes [#/volume] in Blood by Automated count"
            }
          ],
          "text": "Erythrocytes [#/volume] in Blood by Automated count"
        },
        "valueQuantity": {
          "system": "http://unitsofmeasure.org",
          "value": 5.2,
          "unit": "10*6/uL",
          "code": "10*6/uL"
        },
        "referenceRange": [
          {
            "low": {
              "value": 4.5,
              "code": "10*6/uL",
              "system": "http://unitsofmeasure.org"
            }
          },
          {
            "high": {
              "value": 5.5,
              "code": "10*6/uL",
              "system": "http://unitsofmeasure.org"
            }
          }
        ],
        "text": {
          "status": "generated",
          "div": "<div xmlns=\"http://www.w3.org/1999/xhtml\"><table class=\"hl7__eu__lab__report\"><tr><th>Test</th><th>27-Mar-2021</th><th>Reference&#xA0;Range</th><th>Unit</th></tr><tr><td>Erythrocytes [#/volume] in Blood by Automated count</td><td>5.2</td><td>4.5 - 5.5</td><td></td><td>10*6/uL</td></tr></table></div>"
        },
        "status": "final",
        "subject": {
          "reference": "urn:uuid:5a5ed36e-eb13-4639-b527-4269b97a0047",
          "display": "Pamela Dixon"
        },
        "effectiveDateTime": "2021-03-27T18:20:37Z",
        "specimen": {
          "reference": "urn:uuid:e7f02377-5a2c-4ed0-a446-6326e58a2226"
        }
      }
    },
    {
      "fullUrl": "urn:uuid:57af9351-2c44-4720-90a4-2d90a0eed4fb",
      "resource": {
        "resourceType": "Observation",
        "id": "57af9351-2c44-4720-90a4-2d90a0eed4fb",
        "meta": {
          "profile": [
            "http://hl7.eu/fhir/laboratory/StructureDefinition/Observation-resultslab-eu-lab"
          ]
        },
        "performer": [
          {
            "display": "The Central European Lab"
          }
        ],
        "category": [
          {
            "coding": [
              {
                "system": "http://terminology.hl7.org/CodeSystem/observation-category",
                "code": "laboratory"
              }
            ]
          }
        ],
        "code": {
          "coding": [
            {
              "code": "718-7",
              "system": "http://loinc.org",
              "display": "Hemoglobin [Mass/volume] in Blood"
            }
          ],
          "text": "Hemoglobin [Mass/volume] in Blood"
        },
        "valueQuantity": {
          "system": "http://unitsofmeasure.org",
          "value": 17.3,
          "unit": "g/dL",
          "code": "g/dL"
        },
        "referenceRange": [
          {
            "low": {
              "value": 12,
              "code": "g/dL",
              "system": "http://unitsofmeasure.org"
            }
          },
          {
            "high": {
              "value": 16,
              "code": "g/dL",
              "system": "http://unitsofmeasure.org"
            }
          }
        ],
        "interpretation": [
          {
            "coding": [
              {
                "code": "H",
                "system": "http://terminology.hl7.org/CodeSystem/v3-ObservationInterpretation",
                "display": "High"
              }
            ]
          }
        ],
        "text": {
          "status": "generated",
          "div": "<div xmlns=\"http://www.w3.org/1999/xhtml\"><table class=\"hl7__eu__lab__report\"><tr><th>Test</th><th>27-Mar-2021</th><th>Reference&#xA0;Range</th><th>Unit</th></tr><tr><td>Hemoglobin [Mass/volume] in Blood</td><td>17.3</td><td>12 - 16</td><td>H</td><td>g/dL</td></tr></table></div>"
        },
        "status": "final",
        "subject": {
          "reference": "urn:uuid:5a5ed36e-eb13-4639-b527-4269b97a0047",
          "display": "Pamela Dixon"
        },
        "effectiveDateTime": "2021-03-27T18:20:37Z",
        "specimen": {
          "reference": "urn:uuid:e7f02377-5a2c-4ed0-a446-6326e58a2226"
        }
      }
    },
    {
      "fullUrl": "urn:uuid:b0aa6c34-c161-4fd7-9fe7-1ebd40926afa",
      "resource": {
        "resourceType": "Observation",
        "id": "b0aa6c34-c161-4fd7-9fe7-1ebd40926afa",
        "meta": {
          "profile": [
            "http://hl7.eu/fhir/laboratory/StructureDefinition/Observation-resultslab-eu-lab"
          ]
        },
        "performer": [
          {
            "display": "The Central European Lab"
          }
        ],
        "category": [
          {
            "coding": [
              {
                "system": "http://terminology.hl7.org/CodeSystem/observation-category",
                "code": "laboratory"
              }
            ]
          }
        ],
        "code": {
          "coding": [
            {
              "code": "4544-3",
              "system": "http://loinc.org",
              "display": "Hematocrit [Volume Fraction] of Blood by Automated count"
            }
          ],
          "text": "Hematocrit [Volume Fraction] of Blood by Automated count"
        },
        "valueQuantity": {
          "system": "http://unitsofmeasure.org",
          "value": 36.5,
          "unit": "%",
          "code": "%"
        },
        "referenceRange": [
          {
            "low": {
              "value": 36,
              "code": "%",
              "system": "http://unitsofmeasure.org"
            }
          },
          {
            "high": {
              "value": 48,
              "code": "%",
              "system": "http://unitsofmeasure.org"
            }
          }
        ],
        "text": {
          "status": "generated",
          "div": "<div xmlns=\"http://www.w3.org/1999/xhtml\"><table class=\"hl7__eu__lab__report\"><tr><th>Test</th><th>27-Mar-2021</th><th>Reference&#xA0;Range</th><th>Unit</th></tr><tr><td>Hematocrit [Volume Fraction] of Blood by Automated count</td><td>36.5</td><td>36 - 48</td><td></td><td>%</td></tr></table></div>"
        },
        "status": "final",
        "subject": {
          "reference": "urn:uuid:5a5ed36e-eb13-4639-b527-4269b97a0047",
          "display": "Pamela Dixon"
        },
        "effectiveDateTime": "2021-03-27T18:20:37Z",
        "specimen": {
          "reference": "urn:uuid:e7f02377-5a2c-4ed0-a446-6326e58a2226"
        }
      }
    },
    {
      "fullUrl": "urn:uuid:1de0bbe9-732a-4110-9e78-f6d20e6ec829",
      "resource": {
        "resourceType": "Observation",
        "id": "1de0bbe9-732a-4110-9e78-f6d20e6ec829",
        "meta": {
          "profile": [
            "http://hl7.eu/fhir/laboratory/StructureDefinition/Observation-resultslab-eu-lab"
          ]
        },
        "performer": [
          {
            "display": "The Central European Lab"
          }
        ],
        "category": [
          {
            "coding": [
              {
                "system": "http://terminology.hl7.org/CodeSystem/observation-category",
                "code": "laboratory"
              }
            ]
          }
        ],
        "code": {
          "coding": [
            {
              "code": "787-2",
              "system": "http://loinc.org",
              "display": "MCV [Entitic volume] by Automated count"
            }
          ],
          "text": "MCV [Entitic volume] by Automated count"
        },
        "valueQuantity": {
          "system": "http://unitsofmeasure.org",
          "value": 81.5,
          "unit": "fL",
          "code": "fL"
        },
        "referenceRange": [
          {
            "low": {
              "value": 82,
              "code": "fL",
              "system": "http://unitsofmeasure.org"
            }
          },
          {
            "high": {
              "value": 98,
              "code": "fL",
              "system": "http://unitsofmeasure.org"
            }
          }
        ],
        "interpretation": [
          {
            "coding": [
              {
                "code": "L",
                "system": "http://terminology.hl7.org/CodeSystem/v3-ObservationInterpretation",
                "display": "Low"
              }
            ]
          }
        ],
        "text": {
          "status": "generated",
          "div": "<div xmlns=\"http://www.w3.org/1999/xhtml\"><table class=\"hl7__eu__lab__report\"><tr><th>Test</th><th>27-Mar-2021</th><th>Reference&#xA0;Range</th><th>Unit</th></tr><tr><td>MCV [Entitic volume] by Automated count</td><td>81.5</td><td>82 - 98</td><td>L</td><td>fL</td></tr></table></div>"
        },
        "status": "final",
        "subject": {
          "reference": "urn:uuid:5a5ed36e-eb13-4639-b527-4269b97a0047",
          "display": "Pamela Dixon"
        },
        "effectiveDateTime": "2021-03-27T18:20:37Z",
        "specimen": {
          "reference": "urn:uuid:e7f02377-5a2c-4ed0-a446-6326e58a2226"
        }
      }
    },
    {
      "fullUrl": "urn:uuid:883d99d9-4a1b-4d18-8b26-06e66cada651",
      "resource": {
        "resourceType": "Observation",
        "id": "883d99d9-4a1b-4d18-8b26-06e66cada651",
        "meta": {
          "profile": [
            "http://hl7.eu/fhir/laboratory/StructureDefinition/Observation-resultslab-eu-lab"
          ]
        },
        "performer": [
          {
            "display": "The Central European Lab"
          }
        ],
        "category": [
          {
            "coding": [
              {
                "system": "http://terminology.hl7.org/CodeSystem/observation-category",
                "code": "laboratory"
              }
            ]
          }
        ],
        "code": {
          "coding": [
            {
              "code": "785-6",
              "system": "http://loinc.org",
              "display": "MCH [Entitic mass] by Automated count"
            }
          ],
          "text": "MCH [Entitic mass] by Automated count"
        },
        "valueQuantity": {
          "system": "http://unitsofmeasure.org",
          "value": 28.4,
          "unit": "pg",
          "code": "pg"
        },
        "referenceRange": [
          {
            "low": {
              "value": 27.5,
              "code": "pg",
              "system": "http://unitsofmeasure.org"
            }
          },
          {
            "high": {
              "value": 34.5,
              "code": "pg",
              "system": "http://unitsofmeasure.org"
            }
          }
        ],
        "text": {
          "status": "generated",
          "div": "<div xmlns=\"http://www.w3.org/1999/xhtml\"><table class=\"hl7__eu__lab__report\"><tr><th>Test</th><th>27-Mar-2021</th><th>Reference&#xA0;Range</th><th>Unit</th></tr><tr><td>MCH [Entitic mass] by Automated count</td><td>28.4</td><td>27.5 - 34.5</td><td></td><td>pg</td></tr></table></div>"
        },
        "status": "final",
        "subject": {
          "reference": "urn:uuid:5a5ed36e-eb13-4639-b527-4269b97a0047",
          "display": "Pamela Dixon"
        },
        "effectiveDateTime": "2021-03-27T18:20:37Z",
        "specimen": {
          "reference": "urn:uuid:e7f02377-5a2c-4ed0-a446-6326e58a2226"
        }
      }
    },
    {
      "fullUrl": "urn:uuid:b8c2f4ef-f073-4c0d-b7f8-c176d5e814f1",
      "resource": {
        "resourceType": "Observation",
        "id": "b8c2f4ef-f073-4c0d-b7f8-c176d5e814f1",
        "meta": {
          "profile": [
            "http://hl7.eu/fhir/laboratory/StructureDefinition/Observation-resultslab-eu-lab"
          ]
        },
        "performer": [
          {
            "display": "The Central European Lab"
          }
        ],
        "category": [
          {
            "coding": [
              {
                "system": "http://terminology.hl7.org/CodeSystem/observation-category",
                "code": "laboratory"
              }
            ]
          }
        ],
        "code": {
          "coding": [
            {
              "code": "786-4",
              "system": "http://loinc.org",
              "display": "MCHC [Mass/volume] by Automated count"
            }
          ],
          "text": "MCHC [Mass/volume] by Automated count"
        },
        "valueQuantity": {
          "system": "http://unitsofmeasure.org",
          "value": 33.6,
          "unit": "g/dL",
          "code": "g/dL"
        },
        "referenceRange": [
          {
            "low": {
              "value": 32,
              "code": "g/dL",
              "system": "http://unitsofmeasure.org"
            }
          },
          {
            "high": {
              "value": 37,
              "code": "g/dL",
              "system": "http://unitsofmeasure.org"
            }
          }
        ],
        "text": {
          "status": "generated",
          "div": "<div xmlns=\"http://www.w3.org/1999/xhtml\"><table class=\"hl7__eu__lab__report\"><tr><th>Test</th><th>27-Mar-2021</th><th>Reference&#xA0;Range</th><th>Unit</th></tr><tr><td>MCHC [Mass/volume] by Automated count</td><td>33.6</td><td>32 - 37</td><td></td><td>g/dL</td></tr></table></div>"
        },
        "status": "final",
        "subject": {
          "reference": "urn:uuid:5a5ed36e-eb13-4639-b527-4269b97a0047",
          "display": "Pamela Dixon"
        },
        "effectiveDateTime": "2021-03-27T18:20:37Z",
        "specimen": {
          "reference": "urn:uuid:e7f02377-5a2c-4ed0-a446-6326e58a2226"
        }
      }
    },
    {
      "fullUrl": "urn:uuid:230705eb-dc87-4705-bcbd-cc88e45f43a7",
      "resource": {
        "resourceType": "Observation",
        "id": "230705eb-dc87-4705-bcbd-cc88e45f43a7",
        "meta": {
          "profile": [
            "http://hl7.eu/fhir/laboratory/StructureDefinition/Observation-resultslab-eu-lab"
          ]
        },
        "performer": [
          {
            "display": "The Central European Lab"
          }
        ],
        "category": [
          {
            "coding": [
              {
                "system": "http://terminology.hl7.org/CodeSystem/observation-category",
                "code": "laboratory"
              }
            ]
          }
        ],
        "code": {
          "coding": [
            {
              "code": "21000-5",
              "system": "http://loinc.org",
              "display": "Erythrocyte distribution width [Entitic volume] by Automated count"
            }
          ],
          "text": "Erythrocyte distribution width [Entitic volume] by Automated count"
        },
        "valueQuantity": {
          "system": "http://unitsofmeasure.org",
          "value": 45.6,
          "unit": "fL",
          "code": "fL"
        },
        "referenceRange": [
          {
            "low": {
              "value": 36,
              "code": "fL",
              "system": "http://unitsofmeasure.org"
            }
          },
          {
            "high": {
              "value": 55,
              "code": "fL",
              "system": "http://unitsofmeasure.org"
            }
          }
        ],
        "text": {
          "status": "generated",
          "div": "<div xmlns=\"http://www.w3.org/1999/xhtml\"><table class=\"hl7__eu__lab__report\"><tr><th>Test</th><th>27-Mar-2021</th><th>Reference&#xA0;Range</th><th>Unit</th></tr><tr><td>Erythrocyte distribution width [Entitic volume] by Automated count</td><td>45.6</td><td>36 - 55</td><td></td><td>fL</td></tr></table></div>"
        },
        "status": "final",
        "subject": {
          "reference": "urn:uuid:5a5ed36e-eb13-4639-b527-4269b97a0047",
          "display": "Pamela Dixon"
        },
        "effectiveDateTime": "2021-03-27T18:20:37Z",
        "specimen": {
          "reference": "urn:uuid:e7f02377-5a2c-4ed0-a446-6326e58a2226"
        }
      }
    },
    {
      "fullUrl": "urn:uuid:d20501f0-956f-48ab-8e35-76eedda3d9c2",
      "resource": {
        "resourceType": "Observation",
        "id": "d20501f0-956f-48ab-8e35-76eedda3d9c2",
        "meta": {
          "profile": [
            "http://hl7.eu/fhir/laboratory/StructureDefinition/Observation-resultslab-eu-lab"
          ]
        },
        "performer": [
          {
            "display": "The Central European Lab"
          }
        ],
        "category": [
          {
            "coding": [
              {
                "system": "http://terminology.hl7.org/CodeSystem/observation-category",
                "code": "laboratory"
              }
            ]
          }
        ],
        "code": {
          "coding": [
            {
              "code": "777-3",
              "system": "http://loinc.org",
              "display": "Platelets [#/volume] in Blood by Automated count"
            }
          ],
          "text": "Platelets [#/volume] in Blood by Automated count"
        },
        "valueQuantity": {
          "system": "http://unitsofmeasure.org",
          "value": 333.8,
          "unit": "10*3/uL",
          "code": "10*3/uL"
        },
        "referenceRange": [
          {
            "low": {
              "value": 150,
              "code": "10*3/uL",
              "system": "http://unitsofmeasure.org"
            }
          },
          {
            "high": {
              "value": 450,
              "code": "10*3/uL",
              "system": "http://unitsofmeasure.org"
            }
          }
        ],
        "text": {
          "status": "generated",
          "div": "<div xmlns=\"http://www.w3.org/1999/xhtml\"><table class=\"hl7__eu__lab__report\"><tr><th>Test</th><th>27-Mar-2021</th><th>Reference&#xA0;Range</th><th>Unit</th></tr><tr><td>Platelets [#/volume] in Blood by Automated count</td><td>333.8</td><td>150 - 450</td><td></td><td>10*3/uL</td></tr></table></div>"
        },
        "status": "final",
        "subject": {
          "reference": "urn:uuid:5a5ed36e-eb13-4639-b527-4269b97a0047",
          "display": "Pamela Dixon"
        },
        "effectiveDateTime": "2021-03-27T18:20:37Z",
        "specimen": {
          "reference": "urn:uuid:e7f02377-5a2c-4ed0-a446-6326e58a2226"
        }
      }
    },
    {
      "fullUrl": "urn:uuid:002645f1-4467-43c5-a577-78b8e5181ff7",
      "resource": {
        "resourceType": "Observation",
        "id": "002645f1-4467-43c5-a577-78b8e5181ff7",
        "meta": {
          "profile": [
            "http://hl7.eu/fhir/laboratory/StructureDefinition/Observation-resultslab-eu-lab"
          ]
        },
        "performer": [
          {
            "display": "The Central European Lab"
          }
        ],
        "category": [
          {
            "coding": [
              {
                "system": "http://terminology.hl7.org/CodeSystem/observation-category",
                "code": "laboratory"
              }
            ]
          }
        ],
        "code": {
          "coding": [
            {
              "code": "32207-3",
              "system": "http://loinc.org",
              "display": "Platelet distribution width [Entitic volume] in Blood by Automated count"
            }
          ],
          "text": "Platelet distribution width [Entitic volume] in Blood by Automated count"
        },
        "valueQuantity": {
          "system": "http://unitsofmeasure.org",
          "value": 330.5,
          "unit": "fL",
          "code": "fL"
        },
        "referenceRange": [
          {
            "low": {
              "value": 11,
              "code": "fL",
              "system": "http://unitsofmeasure.org"
            }
          },
          {
            "high": {
              "value": 15,
              "code": "fL",
              "system": "http://unitsofmeasure.org"
            }
          }
        ],
        "interpretation": [
          {
            "coding": [
              {
                "code": "H",
                "system": "http://terminology.hl7.org/CodeSystem/v3-ObservationInterpretation",
                "display": "High"
              }
            ]
          }
        ],
        "text": {
          "status": "generated",
          "div": "<div xmlns=\"http://www.w3.org/1999/xhtml\"><table class=\"hl7__eu__lab__report\"><tr><th>Test</th><th>27-Mar-2021</th><th>Reference&#xA0;Range</th><th>Unit</th></tr><tr><td>Platelet distribution width [Entitic volume] in Blood by Automated count</td><td>330.5</td><td>11 - 15</td><td>H</td><td>fL</td></tr></table></div>"
        },
        "status": "final",
        "subject": {
          "reference": "urn:uuid:5a5ed36e-eb13-4639-b527-4269b97a0047",
          "display": "Pamela Dixon"
        },
        "effectiveDateTime": "2021-03-27T18:20:37Z",
        "specimen": {
          "reference": "urn:uuid:e7f02377-5a2c-4ed0-a446-6326e58a2226"
        }
      }
    },
    {
      "fullUrl": "urn:uuid:03683ba9-4f0b-4140-939d-3fd6f49d386a",
      "resource": {
        "resourceType": "Observation",
        "id": "03683ba9-4f0b-4140-939d-3fd6f49d386a",
        "meta": {
          "profile": [
            "http://hl7.eu/fhir/laboratory/StructureDefinition/Observation-resultslab-eu-lab"
          ]
        },
        "performer": [
          {
            "display": "The Central European Lab"
          }
        ],
        "category": [
          {
            "coding": [
              {
                "system": "http://terminology.hl7.org/CodeSystem/observation-category",
                "code": "laboratory"
              }
            ]
          }
        ],
        "code": {
          "coding": [
            {
              "code": "32623-1",
              "system": "http://loinc.org",
              "display": "Platelet mean volume [Entitic volume] in Blood by Automated count"
            }
          ],
          "text": "Platelet mean volume [Entitic volume] in Blood by Automated count"
        },
        "valueQuantity": {
          "system": "http://unitsofmeasure.org",
          "value": 9.9,
          "unit": "fL",
          "code": "fL"
        },
        "referenceRange": [
          {
            "low": {
              "value": 7.2,
              "code": "fL",
              "system": "http://unitsofmeasure.org"
            }
          },
          {
            "high": {
              "value": 13.8,
              "code": "fL",
              "system": "http://unitsofmeasure.org"
            }
          }
        ],
        "text": {
          "status": "generated",
          "div": "<div xmlns=\"http://www.w3.org/1999/xhtml\"><table class=\"hl7__eu__lab__report\"><tr><th>Test</th><th>27-Mar-2021</th><th>Reference&#xA0;Range</th><th>Unit</th></tr><tr><td>Platelet mean volume [Entitic volume] in Blood by Automated count</td><td>9.9</td><td>7.2 - 13.8</td><td></td><td>fL</td></tr></table></div>"
        },
        "status": "final",
        "subject": {
          "reference": "urn:uuid:5a5ed36e-eb13-4639-b527-4269b97a0047",
          "display": "Pamela Dixon"
        },
        "effectiveDateTime": "2021-03-27T18:20:37Z",
        "specimen": {
          "reference": "urn:uuid:e7f02377-5a2c-4ed0-a446-6326e58a2226"
        }
      }
    },
    {
      "fullUrl": "urn:uuid:9fef7f03-e974-4f4b-9916-daa63018ebd4",
      "resource": {
        "resourceType": "Device",
        "id": "9fef7f03-e974-4f4b-9916-daa63018ebd4",
        "deviceName": [
          {
            "name": "SYNDERAI Synthetic Generator",
            "type": "manufacturer-name"
          }
        ],
        "version": [
          {
            "value": "5.0"
          }
        ],
        "text": {
          "status": "generated",
          "div": "<div xmlns=\"http://www.w3.org/1999/xhtml\">SYNDERAI Synthetic Generator v5.0</div>"
        },
        "status": "active\"",
        "distinctIdentifier": "synderai-generator-50",
        "manufacturer": "SYNDERAI Project"
      }
    },
    {
      "fullUrl": "urn:uuid:8a76c354-867b-4cb9-9295-2f1ae1b3f6af",
      "resource": {
        "resourceType": "Provenance",
        "id": "8a76c354-867b-4cb9-9295-2f1ae1b3f6af",
        "target": [
          {
            "reference": "Patient/5a5ed36e-eb13-4639-b527-4269b97a0047"
          },
          {
            "reference": "Bundle/b123ac89-223a-481e-ac8b-7aa4a4b0bf90"
          },
          {
            "reference": "Composition/22aee624-e7ea-47cf-a4aa-3f5c617b88b2"
          },
          {
            "reference": "PractitionerRole/841955b6-5294-47fe-b97f-282d70bfc6ec"
          },
          {
            "reference": "Practitioner/89f1134b-b512-4e1d-a957-1f4262e55ae0"
          },
          {
            "reference": "PractitionerRole/8948a73c-6a07-4ed6-bfa4-abe149fe11d6"
          },
          {
            "reference": "Organization/d860ae41-76b1-4b0a-9422-12fb917fdf42"
          }
        ],
        "activity": {
          "text": "Synthetic Example Data Generation"
        },
        "policy": [
          "https://synderai.net/synderai-synthetic-data-policy"
        ],
        "agent": [
          {
            "type": {
              "text": "author"
            },
            "who": {
              "reference": "Device/9fef7f03-e974-4f4b-9916-daa63018ebd4"
            }
          }
        ],
        "reason": [
          {
            "text": "Interoperability Testing and Training (non-clinical use)"
          }
        ],
        "text": {
          "status": "generated",
          "div": "<div xmlns=\"http://www.w3.org/1999/xhtml\">Provenance for SYNDERAI Synthetic Example Data Resource</div>"
        },
        "recorded": "2021-03-27T19:20:37Z"
      }
    },
    {
      "fullUrl": "urn:uuid:841955b6-5294-47fe-b97f-282d70bfc6ec",
      "resource": {
        "resourceType": "PractitionerRole",
        "id": "841955b6-5294-47fe-b97f-282d70bfc6ec",
        "meta": {
          "profile": [
            "http://hl7.eu/fhir/base/StructureDefinition/practitionerRole-eu"
          ]
        },
        "text": {
          "status": "generated",
          "div": "<div xmlns=\"http://www.w3.org/1999/xhtml\">Laboratory Role Id: 841955b6-5294-47fe-b97f-282d70bfc6ec</div>"
        },
        "practitioner": {
          "reference": "urn:uuid:89f1134b-b512-4e1d-a957-1f4262e55ae0"
        }
      }
    },
    {
      "fullUrl": "urn:uuid:89f1134b-b512-4e1d-a957-1f4262e55ae0",
      "resource": {
        "resourceType": "Practitioner",
        "id": "89f1134b-b512-4e1d-a957-1f4262e55ae0",
        "meta": {
          "profile": [
            "http://hl7.eu/fhir/base/StructureDefinition/practitioner-eu"
          ]
        },
        "identifier": [
          {
            "assigner": {
              "display": "HL7 Europe"
            },
            "system": "urn:oid:2.16.840.1.113883.2.51.999",
            "value": "3613fe20-c4d7-4290-9b44-40ed8e260ecd"
          }
        ],
        "name": [
          {
            "prefix": [
              "dr"
            ],
            "given": [
              "Ex"
            ],
            "family": "Ample"
          }
        ],
        "address": [
          {
            "line": [
              "Laboratoire Central Européenne",
              "Boulevard du Jardin Botanique 32"
            ],
            "postalCode": "1000",
            "city": "Brussels",
            "country": "Belgium"
          }
        ],
        "text": {
          "status": "generated",
          "div": "<div xmlns=\"http://www.w3.org/1999/xhtml\">Laboratory: Laboratoire Central Européenne, 1000 Brussels, Belgium</div>"
        }
      }
    }
  ],
  "type": "document",
  "timestamp": "2021-03-27T19:20:37Z"
}
