{
  "resourceType": "Bundle",
  "id": "eab62214-2b24-434d-951b-f57629022aa8",
  "meta": {
    "profile": [
      "http://hl7.eu/fhir/laboratory/StructureDefinition/Bundle-eu-lab"
    ]
  },
  "identifier": {
    "assigner": {
      "display": "HL7 Europe"
    },
    "system": "urn:oid:2.16.840.1.113883.2.51.999",
    "value": "645da4af-dbfb-403a-8c6c-80d70dc5bbfd"
  },
  "entry": [
    {
      "fullUrl": "urn:uuid:ab013383-54f2-4fbd-97d3-b820d047687b",
      "resource": {
        "resourceType": "Composition",
        "id": "ab013383-54f2-4fbd-97d3-b820d047687b",
        "meta": {
          "profile": [
            "http://hl7.eu/fhir/laboratory/StructureDefinition/Composition-eu-lab"
          ]
        },
        "identifier": {
          "assigner": {
            "display": "HL7 Europe"
          },
          "system": "urn:oid:2.16.840.1.113883.2.51.999",
          "value": "5befbfc1-3fe4-446f-bba9-8dc24f49a9cd"
        },
        "author": [
          {
            "reference": "urn:uuid:0cee8279-31db-45e4-96cf-e5b31a72b166"
          }
        ],
        "category": [
          {
            "coding": [
              {
                "code": "26436-6",
                "system": "http://loinc.org",
                "display": "Laboratory studies (set)"
              }
            ]
          }
        ],
        "type": {
          "coding": [
            {
              "code": "11502-2",
              "system": "http://loinc.org",
              "display": "Laboratory report"
            }
          ],
          "text": "Laboratory Report"
        },
        "section": [
          {
            "code": {
              "coding": [
                {
                  "code": "26436-6",
                  "system": "http://loinc.org",
                  "display": "Laboratory studies (set)"
                }
              ],
              "text": "Laboratory studies"
            },
            "section": [
              {
                "code": {
                  "coding": [
                    {
                      "code": "$18719-5",
                      "system": "http://loinc.org",
                      "display": "Chemistry studies (set)"
                    }
                  ],
                  "text": "Chemistry"
                },
                "entry": [
                  {
                    "reference": "urn:uuid:d5beb064-c16d-4c54-ae93-5ab659544add"
                  }
                ],
                "text": {
                  "status": "generated",
                  "div": "<div xmlns=\"http://www.w3.org/1999/xhtml\"><h3>Chemistry</h3><table class=\"hl7__eu__lab__report\"><thead><tr><th>Test</th><th>06-MAY-2019</th><th>Reference&#xA0;Range</th><th>Unit</th></tr></thead><tbody><tr><td>Hemoglobin.gastrointestinal.lower [Presence] in Stool by Immunoassay --1st specimen</td><td>20.6</td><td>0 - 200</td><td>ng/mL</td></tr></tbody></table></div>"
                },
                "title": "Chemistry"
              },
              {
                "code": {
                  "coding": [
                    {
                      "code": "$LP207911-1",
                      "system": "http://loinc.org",
                      "display": "Cancer pathology panel"
                    }
                  ],
                  "text": "Cancer pathology panel"
                },
                "entry": [
                  {
                    "reference": "urn:uuid:250bbc12-8555-423e-acfe-96539d22a099"
                  }
                ],
                "text": {
                  "status": "generated",
                  "div": "<div xmlns=\"http://www.w3.org/1999/xhtml\"><h3>Cancer pathology panel</h3><table class=\"hl7__eu__lab__report\"><thead><tr><th>Test</th><th>06-MAY-2019</th><th>Reference&#xA0;Range</th><th>Unit</th></tr></thead><tbody><tr><td>Polyp size greatest dimension</td><td>3.2</td><td>0 - 5</td><td>mm</td></tr></tbody></table></div>"
                },
                "title": "Cancer pathology panel"
              }
            ],
            "title": "Laboratory Report"
          },
          {
            "text": {
              "status": "generated",
              "div": "<div xmlns=\"http://www.w3.org/1999/xhtml\"><h3>Annotation</h3><table class=\"hl7__eu__lab__report\"><tr><th>Conclusion and Recommendations based on this report and previous findings known to us</th></tr><tr><td>Both the polyp size (3.2 mm) and fecal hemoglobin (20.6 ng/mL) are within normal limits. No laboratory evidence of significant gastrointestinal bleeding or abnormal polyp size at this time. Recommend routine follow-up as clinically indicated.</td></tr></table></div>"
            },
            "code": {
              "coding": [
                {
                  "system": "http://loinc.org",
                  "code": "48767-8",
                  "display": "Annotation comment"
                }
              ]
            },
            "title": "Annotation comment"
          }
        ],
        "status": "final",
        "subject": {
          "reference": "urn:uuid:459d3629-369b-440d-b172-6a7512b4d50c",
          "display": "Gioele Fabbri"
        },
        "date": "2019-05-06T18:21:12Z",
        "title": "Laboratory Report",
        "confidentiality": "N"
      }
    },
    {
      "fullUrl": "urn:uuid:1166643c-003b-4001-b1c2-b2883f30a092",
      "resource": {
        "resourceType": "DiagnosticReport",
        "id": "1166643c-003b-4001-b1c2-b2883f30a092",
        "meta": {
          "profile": [
            "http://hl7.eu/fhir/laboratory/StructureDefinition/DiagnosticReport-eu-lab"
          ]
        },
        "identifier": [
          {
            "assigner": {
              "display": "HL7 Europe"
            },
            "system": "urn:oid:2.16.840.1.113883.2.51.999",
            "value": "74944a37-462b-43c8-b0c9-b41c502ae0f4"
          }
        ],
        "extension": [
          {
            "url": "http://hl7.org/fhir/5.0/StructureDefinition/extension-DiagnosticReport.composition",
            "valueReference": {
              "reference": "urn:uuid:5befbfc1-3fe4-446f-bba9-8dc24f49a9cd"
            }
          }
        ],
        "category": [
          {
            "coding": [
              {
                "code": "26436-6",
                "system": "http://loinc.org",
                "display": "Laboratory studies (set)"
              }
            ]
          }
        ],
        "specimen": [
          {
            "reference": "urn:uuid:2a163dab-1b34-4e58-9861-61e56fe92516"
          },
          {
            "reference": "urn:uuid:e6a1ae07-92cb-47c7-8c2a-bec6019b9a86"
          }
        ],
        "result": [
          {
            "reference": "urn:uuid:250bbc12-8555-423e-acfe-96539d22a099"
          },
          {
            "reference": "urn:uuid:d5beb064-c16d-4c54-ae93-5ab659544add"
          }
        ],
        "status": "registered",
        "code": {
          "coding": [
            {
              "code": "11502-2",
              "system": "http://loinc.org",
              "display": "Laboratory report"
            }
          ]
        },
        "subject": {
          "reference": "urn:uuid:459d3629-369b-440d-b172-6a7512b4d50c",
          "display": "Gioele Fabbri"
        }
      }
    },
    {
      "fullUrl": "urn:uuid:459d3629-369b-440d-b172-6a7512b4d50c",
      "resource": {
        "resourceType": "Patient",
        "id": "459d3629-369b-440d-b172-6a7512b4d50c",
        "meta": {
          "security": [
            {
              "system": "http://terminology.hl7.org/CodeSystem/v3-ActReason",
              "code": "HTEST"
            },
            {
              "system": "http://terminology.hl7.org/CodeSystem/v3-ActReason",
              "code": "TRAIN"
            }
          ],
          "tag": [
            {
              "system": "https://synderai.net/fhir/CodeSystem/tags",
              "code": "synthetic",
              "display": "SYNDERAI Synthetic data"
            }
          ],
          "profile": [
            "http://hl7.eu/fhir/base/StructureDefinition/patient-eu-core"
          ]
        },
        "identifier": [
          {
            "type": {
              "coding": [
                {
                  "code": "PT",
                  "system": "http://terminology.hl7.org/CodeSystem/v2-0203"
                }
              ]
            },
            "system": "http://ec.europa.eu/identifier/eci",
            "value": "3631-767680-1"
          },
          {
            "type": {
              "coding": [
                {
                  "code": "MR",
                  "system": "http://terminology.hl7.org/CodeSystem/v2-0203"
                }
              ]
            },
            "system": "http://local.setting.eu/identifier",
            "value": "0a14935e-e0f7-2e1e-46fa-42b10e75d1f9"
          }
        ],
        "name": [
          {
            "family": "Fabbri"
          },
          {
            "given": [
              "Gioele"
            ]
          },
          {
            "text": "Gioele Fabbri"
          }
        ],
        "address": [
          {
            "line": [
              "Canale Armani, 25"
            ],
            "use": "home",
            "type": "physical",
            "postalCode": "23887",
            "city": "Revislate",
            "country": "Italy"
          }
        ],
        "telecom": [
          {
            "system": "phone",
            "value": "+39 0423197768"
          }
        ],
        "extension": [
          {
            "url": "http://hl7.org/fhir/StructureDefinition/patient-nationality",
            "valueCodeableConcept": {
              "coding": [
                {
                  "code": "IT",
                  "system": "http://hl7.org/fhir/ValueSet/country"
                }
              ]
            }
          }
        ],
        "text": {
          "status": "generated",
          "div": "<div xmlns=\"http://www.w3.org/1999/xhtml\"><table class=\"hl7__ips\"><tr><td>Gioele Fabbri</td><td>male</td><td>12-Sep-1972</td></tr></table></div>"
        },
        "gender": "male",
        "birthDate": "1972-09-12"
      }
    },
    {
      "fullUrl": "urn:uuid:a6c711a0-7a4e-40ac-8527-2bffd6642028",
      "resource": {
        "resourceType": "ServiceRequest",
        "id": "a6c711a0-7a4e-40ac-8527-2bffd6642028",
        "meta": {
          "profile": [
            "http://hl7.eu/fhir/laboratory/StructureDefinition/ServiceRequest-eu-lab"
          ]
        },
        "identifier": [
          {
            "system": "http://example.org",
            "value": "aa04738d-3262-4b85-a6ea-9e7989951978"
          }
        ],
        "specimen": [
          {
            "reference": "urn:uuid:2a163dab-1b34-4e58-9861-61e56fe92516"
          },
          {
            "reference": "urn:uuid:e6a1ae07-92cb-47c7-8c2a-bec6019b9a86"
          }
        ],
        "reasonCode": [
          {
            "coding": [
              {
                "code": "271737000",
                "system": "http://snomed.info/sct",
                "display": "Anemia"
              }
            ]
          },
          {
            "coding": [
              {
                "code": "15777000",
                "system": "http://snomed.info/sct",
                "display": "Prediabetes"
              }
            ]
          },
          {
            "coding": [
              {
                "code": "713197008",
                "system": "http://snomed.info/sct",
                "display": "Recurrent rectal polyp"
              }
            ]
          },
          {
            "coding": [
              {
                "code": "68496003",
                "system": "http://snomed.info/sct",
                "display": "Polyp of colon"
              }
            ]
          },
          {
            "coding": [
              {
                "code": "55822004",
                "system": "http://snomed.info/sct",
                "display": "Hyperlipidemia"
              }
            ]
          },
          {
            "coding": [
              {
                "code": "124171000119105",
                "system": "http://snomed.info/sct",
                "display": "Chronic intractable migraine without aura"
              }
            ]
          }
        ],
        "status": "active",
        "intent": "order",
        "code": {
          "coding": [
            {
              "code": "108252007",
              "system": "http://snomed.info/sct",
              "display": "Laboratory procedure"
            }
          ]
        },
        "subject": {
          "reference": "urn:uuid:459d3629-369b-440d-b172-6a7512b4d50c",
          "display": "Gioele Fabbri"
        },
        "requester": {
          "reference": "urn:uuid:4f0d651f-4ddb-4932-861b-04bec612280c"
        }
      }
    },
    {
      "fullUrl": "urn:uuid:4f0d651f-4ddb-4932-861b-04bec612280c",
      "resource": {
        "resourceType": "PractitionerRole",
        "id": "4f0d651f-4ddb-4932-861b-04bec612280c",
        "meta": {
          "profile": [
            "http://hl7.eu/fhir/base/StructureDefinition/practitionerRole-eu"
          ]
        },
        "text": {
          "status": "generated",
          "div": "<div xmlns=\"http://www.w3.org/1999/xhtml\">Provider Role Id: 4f0d651f-4ddb-4932-861b-04bec612280c</div>"
        },
        "organization": {
          "reference": "urn:uuid:b7e75e39-c3f0-4668-9790-4177e9ec7f12"
        }
      }
    },
    {
      "fullUrl": "urn:uuid:b7e75e39-c3f0-4668-9790-4177e9ec7f12",
      "resource": {
        "resourceType": "Organization",
        "id": "b7e75e39-c3f0-4668-9790-4177e9ec7f12",
        "meta": {
          "profile": [
            "http://hl7.eu/fhir/base/StructureDefinition/organization-eu"
          ]
        },
        "identifier": [
          {
            "assigner": {
              "display": "HL7 Europe"
            },
            "system": "urn:oid:2.16.840.1.113883.2.51.999",
            "value": "a2d7f941-c766-4fc8-ab18-af581ac8c68a"
          }
        ],
        "address": [
          {
            "line": [
              "Piazza Ospedale 3"
            ],
            "city": "Calcinate",
            "postalCode": "24050",
            "country": "Italy"
          }
        ],
        "text": {
          "status": "generated",
          "div": "<div xmlns=\"http://www.w3.org/1999/xhtml\">Provider Organization: Ospedale di Calcinate &quot;F.M. Passi&quot;</div>"
        },
        "name": "Ospedale di Calcinate &quot;F.M. Passi&quot;"
      }
    },
    {
      "fullUrl": "urn:uuid:2a163dab-1b34-4e58-9861-61e56fe92516",
      "resource": {
        "resourceType": "Specimen",
        "id": "2a163dab-1b34-4e58-9861-61e56fe92516",
        "meta": {
          "profile": [
            "http://hl7.eu/fhir/laboratory/StructureDefinition/Specimen-eu-lab"
          ]
        },
        "collection": {
          "collectedDateTime": "2019-05-06"
        },
        "text": {
          "status": "generated",
          "div": "<div xmlns=\"http://www.w3.org/1999/xhtml\"><table class=\"hl7__eu__lab__report\"><tr><th>Specimen</th><th>Collection Date</th></tr><tr><td>Specimen (specimen)</td><td><span class=\"nb\">06-May-2019</span></td></tr></table></div>"
        },
        "type": {
          "coding": [
            {
              "code": "123038009",
              "system": "http://snomed.info/sct",
              "display": "Specimen (specimen)"
            }
          ]
        }
      }
    },
    {
      "fullUrl": "urn:uuid:e6a1ae07-92cb-47c7-8c2a-bec6019b9a86",
      "resource": {
        "resourceType": "Specimen",
        "id": "e6a1ae07-92cb-47c7-8c2a-bec6019b9a86",
        "meta": {
          "profile": [
            "http://hl7.eu/fhir/laboratory/StructureDefinition/Specimen-eu-lab"
          ]
        },
        "collection": {
          "collectedDateTime": "2019-05-06"
        },
        "text": {
          "status": "generated",
          "div": "<div xmlns=\"http://www.w3.org/1999/xhtml\"><table class=\"hl7__eu__lab__report\"><tr><th>Specimen</th><th>Collection Date</th></tr><tr><td>Feces specimen</td><td><span class=\"nb\">06-May-2019</span></td></tr></table></div>"
        },
        "type": {
          "coding": [
            {
              "code": "119339001",
              "system": "http://snomed.info/sct",
              "display": "Feces specimen"
            }
          ]
        }
      }
    },
    {
      "fullUrl": "urn:uuid:250bbc12-8555-423e-acfe-96539d22a099",
      "resource": {
        "resourceType": "Observation",
        "id": "250bbc12-8555-423e-acfe-96539d22a099",
        "meta": {
          "profile": [
            "http://hl7.eu/fhir/laboratory/StructureDefinition/Observation-resultslab-eu-lab"
          ]
        },
        "performer": [
          {
            "display": "The Central European Lab"
          }
        ],
        "category": [
          {
            "coding": [
              {
                "system": "http://terminology.hl7.org/CodeSystem/observation-category",
                "code": "laboratory"
              }
            ]
          }
        ],
        "code": {
          "coding": [
            {
              "code": "33756-8",
              "system": "http://loinc.org",
              "display": "Polyp size greatest dimension"
            }
          ],
          "text": "Polyp size greatest dimension"
        },
        "valueQuantity": {
          "system": "http://unitsofmeasure.org",
          "value": 3.2,
          "unit": "mm",
          "code": "mm"
        },
        "referenceRange": [
          {
            "low": {
              "value": 0,
              "code": "mm",
              "system": "http://unitsofmeasure.org"
            }
          },
          {
            "high": {
              "value": 5,
              "code": "mm",
              "system": "http://unitsofmeasure.org"
            }
          }
        ],
        "text": {
          "status": "generated",
          "div": "<div xmlns=\"http://www.w3.org/1999/xhtml\"><table class=\"hl7__eu__lab__report\"><tr><th>Test</th><th>06-May-2019</th><th>Reference&#xA0;Range</th><th>Unit</th></tr><tr><td>Polyp size greatest dimension</td><td>3.2</td><td>0 - 5</td><td></td><td>mm</td></tr></table></div>"
        },
        "status": "final",
        "subject": {
          "reference": "urn:uuid:459d3629-369b-440d-b172-6a7512b4d50c",
          "display": "Gioele Fabbri"
        },
        "effectiveDateTime": "2019-05-06T16:21:12Z",
        "specimen": {
          "reference": "urn:uuid:2a163dab-1b34-4e58-9861-61e56fe92516"
        }
      }
    },
    {
      "fullUrl": "urn:uuid:d5beb064-c16d-4c54-ae93-5ab659544add",
      "resource": {
        "resourceType": "Observation",
        "id": "d5beb064-c16d-4c54-ae93-5ab659544add",
        "meta": {
          "profile": [
            "http://hl7.eu/fhir/laboratory/StructureDefinition/Observation-resultslab-eu-lab"
          ]
        },
        "performer": [
          {
            "display": "The Central European Lab"
          }
        ],
        "category": [
          {
            "coding": [
              {
                "system": "http://terminology.hl7.org/CodeSystem/observation-category",
                "code": "laboratory"
              }
            ]
          }
        ],
        "code": {
          "coding": [
            {
              "code": "57905-2",
              "system": "http://loinc.org",
              "display": "Hemoglobin.gastrointestinal.lower [Presence] in Stool by Immunoassay --1st specimen"
            }
          ],
          "text": "Hemoglobin.gastrointestinal.lower [Presence] in Stool by Immunoassay --1st specimen"
        },
        "valueQuantity": {
          "system": "http://unitsofmeasure.org",
          "value": 20.6,
          "unit": "ng/mL",
          "code": "ng/mL"
        },
        "referenceRange": [
          {
            "low": {
              "value": 0,
              "code": "ng/mL",
              "system": "http://unitsofmeasure.org"
            }
          },
          {
            "high": {
              "value": 200,
              "code": "ng/mL",
              "system": "http://unitsofmeasure.org"
            }
          }
        ],
        "text": {
          "status": "generated",
          "div": "<div xmlns=\"http://www.w3.org/1999/xhtml\"><table class=\"hl7__eu__lab__report\"><tr><th>Test</th><th>06-May-2019</th><th>Reference&#xA0;Range</th><th>Unit</th></tr><tr><td>Hemoglobin.gastrointestinal.lower [Presence] in Stool by Immunoassay --1st specimen</td><td>20.6</td><td>0 - 200</td><td></td><td>ng/mL</td></tr></table></div>"
        },
        "status": "final",
        "subject": {
          "reference": "urn:uuid:459d3629-369b-440d-b172-6a7512b4d50c",
          "display": "Gioele Fabbri"
        },
        "effectiveDateTime": "2019-05-06T16:21:12Z",
        "specimen": {
          "reference": "urn:uuid:e6a1ae07-92cb-47c7-8c2a-bec6019b9a86"
        }
      }
    },
    {
      "fullUrl": "urn:uuid:15bcb3d4-710a-46ed-8876-590aa059fab9",
      "resource": {
        "resourceType": "Device",
        "id": "15bcb3d4-710a-46ed-8876-590aa059fab9",
        "deviceName": [
          {
            "name": "SYNDERAI Synthetic Generator",
            "type": "manufacturer-name"
          }
        ],
        "version": [
          {
            "value": "5.0"
          }
        ],
        "text": {
          "status": "generated",
          "div": "<div xmlns=\"http://www.w3.org/1999/xhtml\">SYNDERAI Synthetic Generator v5.0</div>"
        },
        "status": "active\"",
        "distinctIdentifier": "synderai-generator-50",
        "manufacturer": "SYNDERAI Project"
      }
    },
    {
      "fullUrl": "urn:uuid:4dcf6a5a-a4df-4931-b5d1-c6dc77e219fe",
      "resource": {
        "resourceType": "Provenance",
        "id": "4dcf6a5a-a4df-4931-b5d1-c6dc77e219fe",
        "target": [
          {
            "reference": "Patient/459d3629-369b-440d-b172-6a7512b4d50c"
          },
          {
            "reference": "Bundle/eab62214-2b24-434d-951b-f57629022aa8"
          },
          {
            "reference": "Composition/ab013383-54f2-4fbd-97d3-b820d047687b"
          },
          {
            "reference": "PractitionerRole/0cee8279-31db-45e4-96cf-e5b31a72b166"
          },
          {
            "reference": "Practitioner/11298e1f-143a-4b0d-b7d2-934e4e6ba81b"
          },
          {
            "reference": "PractitionerRole/4f0d651f-4ddb-4932-861b-04bec612280c"
          },
          {
            "reference": "Organization/b7e75e39-c3f0-4668-9790-4177e9ec7f12"
          }
        ],
        "activity": {
          "text": "Synthetic Example Data Generation"
        },
        "policy": [
          "https://synderai.net/synderai-synthetic-data-policy"
        ],
        "agent": [
          {
            "type": {
              "text": "author"
            },
            "who": {
              "reference": "Device/15bcb3d4-710a-46ed-8876-590aa059fab9"
            }
          }
        ],
        "reason": [
          {
            "text": "Interoperability Testing and Training (non-clinical use)"
          }
        ],
        "text": {
          "status": "generated",
          "div": "<div xmlns=\"http://www.w3.org/1999/xhtml\">Provenance for SYNDERAI Synthetic Example Data Resource</div>"
        },
        "recorded": "2019-05-06T18:21:12Z"
      }
    },
    {
      "fullUrl": "urn:uuid:0cee8279-31db-45e4-96cf-e5b31a72b166",
      "resource": {
        "resourceType": "PractitionerRole",
        "id": "0cee8279-31db-45e4-96cf-e5b31a72b166",
        "meta": {
          "profile": [
            "http://hl7.eu/fhir/base/StructureDefinition/practitionerRole-eu"
          ]
        },
        "text": {
          "status": "generated",
          "div": "<div xmlns=\"http://www.w3.org/1999/xhtml\">Laboratory Role Id: 0cee8279-31db-45e4-96cf-e5b31a72b166</div>"
        },
        "practitioner": {
          "reference": "urn:uuid:11298e1f-143a-4b0d-b7d2-934e4e6ba81b"
        }
      }
    },
    {
      "fullUrl": "urn:uuid:11298e1f-143a-4b0d-b7d2-934e4e6ba81b",
      "resource": {
        "resourceType": "Practitioner",
        "id": "11298e1f-143a-4b0d-b7d2-934e4e6ba81b",
        "meta": {
          "profile": [
            "http://hl7.eu/fhir/base/StructureDefinition/practitioner-eu"
          ]
        },
        "identifier": [
          {
            "assigner": {
              "display": "HL7 Europe"
            },
            "system": "urn:oid:2.16.840.1.113883.2.51.999",
            "value": "644562b1-10c9-4d1c-8e57-b2093a6189da"
          }
        ],
        "name": [
          {
            "prefix": [
              "dr"
            ],
            "given": [
              "Ex"
            ],
            "family": "Ample"
          }
        ],
        "address": [
          {
            "line": [
              "Laboratoire Central Européenne",
              "Boulevard du Jardin Botanique 32"
            ],
            "postalCode": "1000",
            "city": "Brussels",
            "country": "Belgium"
          }
        ],
        "text": {
          "status": "generated",
          "div": "<div xmlns=\"http://www.w3.org/1999/xhtml\">Laboratory: Laboratoire Central Européenne, 1000 Brussels, Belgium</div>"
        }
      }
    }
  ],
  "type": "document",
  "timestamp": "2019-05-06T18:21:12Z"
}
