{
  "resourceType": "Bundle",
  "id": "527a4986-6767-488e-9924-37ec5ed7afb0",
  "meta": {
    "profile": [
      "http://hl7.eu/fhir/laboratory/StructureDefinition/Bundle-eu-lab"
    ]
  },
  "identifier": {
    "assigner": {
      "display": "HL7 Europe"
    },
    "system": "urn:oid:2.16.840.1.113883.2.51.999",
    "value": "ae16ca5e-489e-45f7-9311-904f59e66ca6"
  },
  "entry": [
    {
      "fullUrl": "urn:uuid:4076c542-a12f-4e68-8881-dd1b04055771",
      "resource": {
        "resourceType": "Composition",
        "id": "4076c542-a12f-4e68-8881-dd1b04055771",
        "meta": {
          "profile": [
            "http://hl7.eu/fhir/laboratory/StructureDefinition/Composition-eu-lab"
          ]
        },
        "identifier": {
          "assigner": {
            "display": "HL7 Europe"
          },
          "system": "urn:oid:2.16.840.1.113883.2.51.999",
          "value": "9fd0351c-6ffc-41ee-b8d4-d22ab5385b9f"
        },
        "author": [
          {
            "reference": "urn:uuid:0eaf8a53-f1bc-4b7d-957d-91ffb7cd894f"
          }
        ],
        "category": [
          {
            "coding": [
              {
                "code": "26436-6",
                "system": "http://loinc.org",
                "display": "Laboratory studies (set)"
              }
            ]
          }
        ],
        "type": {
          "coding": [
            {
              "code": "11502-2",
              "system": "http://loinc.org",
              "display": "Laboratory report"
            }
          ],
          "text": "Laboratory Report"
        },
        "section": [
          {
            "code": {
              "coding": [
                {
                  "code": "26436-6",
                  "system": "http://loinc.org",
                  "display": "Laboratory studies (set)"
                }
              ],
              "text": "Laboratory studies"
            },
            "section": [
              {
                "code": {
                  "coding": [
                    {
                      "code": "$18719-5",
                      "system": "http://loinc.org",
                      "display": "Chemistry studies (set)"
                    }
                  ],
                  "text": "Chemistry"
                },
                "entry": [
                  {
                    "reference": "urn:uuid:134c1b75-39d8-47a2-bfea-1679695987d5"
                  }
                ],
                "text": {
                  "status": "generated",
                  "div": "<div xmlns=\"http://www.w3.org/1999/xhtml\"><h3>Chemistry</h3><table class=\"hl7__eu__lab__report\"><thead><tr><th>Test</th><th>01-FEB-2024</th><th>Reference&#xA0;Range</th><th>Unit</th></tr></thead><tbody><tr><td>Hemoglobin A1c/Hemoglobin.total in Blood</td><td><strong>6.1 H</strong></td><td>4 - 6</td><td>%</td></tr></tbody></table></div>"
                },
                "title": "Chemistry"
              }
            ],
            "title": "Laboratory Report"
          },
          {
            "text": {
              "status": "generated",
              "div": "<div xmlns=\"http://www.w3.org/1999/xhtml\"><h3>Annotation</h3><table class=\"hl7__eu__lab__report\"><tr><th>Conclusion and Recommendations based on this report and previous findings known to us</th></tr><tr><td>The patient&quot;s HbA1c is mildly elevated at 6.1%, indicating impaired glucose regulation and possible prediabetes or early diabetes. Further clinical evaluation and monitoring of glycemic control are recommended. No other abnormalities reported.</td></tr></table></div>"
            },
            "code": {
              "coding": [
                {
                  "system": "http://loinc.org",
                  "code": "48767-8",
                  "display": "Annotation comment"
                }
              ]
            },
            "title": "Annotation comment"
          }
        ],
        "status": "final",
        "subject": {
          "reference": "urn:uuid:21672133-9967-474a-86dd-4f9e98899a68",
          "display": "Vincenza Porzio"
        },
        "date": "2024-02-01T19:51:27Z",
        "title": "Laboratory Report",
        "confidentiality": "N"
      }
    },
    {
      "fullUrl": "urn:uuid:a2d5ffe4-88c8-4a7f-a5ef-ed6eee90f564",
      "resource": {
        "resourceType": "DiagnosticReport",
        "id": "a2d5ffe4-88c8-4a7f-a5ef-ed6eee90f564",
        "meta": {
          "profile": [
            "http://hl7.eu/fhir/laboratory/StructureDefinition/DiagnosticReport-eu-lab"
          ]
        },
        "identifier": [
          {
            "assigner": {
              "display": "HL7 Europe"
            },
            "system": "urn:oid:2.16.840.1.113883.2.51.999",
            "value": "c88e8f88-c3f5-4e30-b9d6-c2cc205c12ed"
          }
        ],
        "extension": [
          {
            "url": "http://hl7.org/fhir/5.0/StructureDefinition/extension-DiagnosticReport.composition",
            "valueReference": {
              "reference": "urn:uuid:9fd0351c-6ffc-41ee-b8d4-d22ab5385b9f"
            }
          }
        ],
        "category": [
          {
            "coding": [
              {
                "code": "26436-6",
                "system": "http://loinc.org",
                "display": "Laboratory studies (set)"
              }
            ]
          }
        ],
        "specimen": [
          {
            "reference": "urn:uuid:54b09e0f-fd0d-4ea5-98d1-2c9cedf532cd"
          }
        ],
        "result": [
          {
            "reference": "urn:uuid:134c1b75-39d8-47a2-bfea-1679695987d5"
          }
        ],
        "status": "registered",
        "code": {
          "coding": [
            {
              "code": "11502-2",
              "system": "http://loinc.org",
              "display": "Laboratory report"
            }
          ]
        },
        "subject": {
          "reference": "urn:uuid:21672133-9967-474a-86dd-4f9e98899a68",
          "display": "Vincenza Porzio"
        }
      }
    },
    {
      "fullUrl": "urn:uuid:21672133-9967-474a-86dd-4f9e98899a68",
      "resource": {
        "resourceType": "Patient",
        "id": "21672133-9967-474a-86dd-4f9e98899a68",
        "meta": {
          "security": [
            {
              "system": "http://terminology.hl7.org/CodeSystem/v3-ActReason",
              "code": "HTEST"
            },
            {
              "system": "http://terminology.hl7.org/CodeSystem/v3-ActReason",
              "code": "TRAIN"
            }
          ],
          "tag": [
            {
              "system": "https://synderai.net/fhir/CodeSystem/tags",
              "code": "synthetic",
              "display": "SYNDERAI Synthetic data"
            }
          ],
          "profile": [
            "http://hl7.eu/fhir/base/StructureDefinition/patient-eu-core"
          ]
        },
        "identifier": [
          {
            "type": {
              "coding": [
                {
                  "code": "PT",
                  "system": "http://terminology.hl7.org/CodeSystem/v2-0203"
                }
              ]
            },
            "system": "http://ec.europa.eu/identifier/eci",
            "value": "9988-341158-1"
          },
          {
            "type": {
              "coding": [
                {
                  "code": "MR",
                  "system": "http://terminology.hl7.org/CodeSystem/v2-0203"
                }
              ]
            },
            "system": "http://local.setting.eu/identifier",
            "value": "559a1acd-87c3-5b56-0345-4eaff6c5aa0a"
          }
        ],
        "name": [
          {
            "family": "Porzio"
          },
          {
            "given": [
              "Vincenza"
            ]
          },
          {
            "text": "Vincenza Porzio"
          }
        ],
        "address": [
          {
            "line": [
              "Piazza Allegra, 720"
            ],
            "use": "home",
            "type": "physical",
            "postalCode": "36040",
            "city": "Grumolo Pedemonte",
            "country": "Italy"
          }
        ],
        "telecom": [
          {
            "system": "phone",
            "value": "041007473"
          }
        ],
        "extension": [
          {
            "url": "http://hl7.org/fhir/StructureDefinition/patient-nationality",
            "valueCodeableConcept": {
              "coding": [
                {
                  "code": "IT",
                  "system": "http://hl7.org/fhir/ValueSet/country"
                }
              ]
            }
          }
        ],
        "text": {
          "status": "generated",
          "div": "<div xmlns=\"http://www.w3.org/1999/xhtml\"><table class=\"hl7__ips\"><tr><td>Vincenza Porzio</td><td>female</td><td>13-Sep-1965</td></tr></table></div>"
        },
        "gender": "female",
        "birthDate": "1965-09-13"
      }
    },
    {
      "fullUrl": "urn:uuid:177fbad0-5549-47f3-8d78-32a557d1e821",
      "resource": {
        "resourceType": "ServiceRequest",
        "id": "177fbad0-5549-47f3-8d78-32a557d1e821",
        "meta": {
          "profile": [
            "http://hl7.eu/fhir/laboratory/StructureDefinition/ServiceRequest-eu-lab"
          ]
        },
        "identifier": [
          {
            "system": "http://example.org",
            "value": "54fb776e-12b8-4586-a5ab-c0fc3663046c"
          }
        ],
        "specimen": [
          {
            "reference": "urn:uuid:54b09e0f-fd0d-4ea5-98d1-2c9cedf532cd"
          }
        ],
        "reasonCode": [
          {
            "coding": [
              {
                "code": "40055000",
                "system": "http://snomed.info/sct",
                "display": "Chronic sinusitis"
              }
            ]
          },
          {
            "coding": [
              {
                "code": "15777000",
                "system": "http://snomed.info/sct",
                "display": "Prediabetes"
              }
            ]
          },
          {
            "coding": [
              {
                "code": "239873007",
                "system": "http://snomed.info/sct",
                "display": "Osteoarthritis of knee"
              }
            ]
          },
          {
            "coding": [
              {
                "code": "6525002",
                "system": "http://snomed.info/sct",
                "display": "Dependent drug abuse"
              }
            ]
          },
          {
            "coding": [
              {
                "code": "196416002",
                "system": "http://snomed.info/sct",
                "display": "Impacted molars"
              }
            ]
          },
          {
            "coding": [
              {
                "code": "124171000119105",
                "system": "http://snomed.info/sct",
                "display": "Chronic intractable migraine without aura"
              }
            ]
          }
        ],
        "status": "active",
        "intent": "order",
        "code": {
          "coding": [
            {
              "code": "108252007",
              "system": "http://snomed.info/sct",
              "display": "Laboratory procedure"
            }
          ]
        },
        "subject": {
          "reference": "urn:uuid:21672133-9967-474a-86dd-4f9e98899a68",
          "display": "Vincenza Porzio"
        },
        "requester": {
          "reference": "urn:uuid:74ae2051-cabe-4be1-8f07-6ef1c86c480d"
        }
      }
    },
    {
      "fullUrl": "urn:uuid:74ae2051-cabe-4be1-8f07-6ef1c86c480d",
      "resource": {
        "resourceType": "PractitionerRole",
        "id": "74ae2051-cabe-4be1-8f07-6ef1c86c480d",
        "meta": {
          "profile": [
            "http://hl7.eu/fhir/base/StructureDefinition/practitionerRole-eu"
          ]
        },
        "text": {
          "status": "generated",
          "div": "<div xmlns=\"http://www.w3.org/1999/xhtml\">Provider Role Id: 74ae2051-cabe-4be1-8f07-6ef1c86c480d</div>"
        },
        "organization": {
          "reference": "urn:uuid:5b881bd5-b9b0-4e45-ac3d-472622e7ee82"
        }
      }
    },
    {
      "fullUrl": "urn:uuid:5b881bd5-b9b0-4e45-ac3d-472622e7ee82",
      "resource": {
        "resourceType": "Organization",
        "id": "5b881bd5-b9b0-4e45-ac3d-472622e7ee82",
        "meta": {
          "profile": [
            "http://hl7.eu/fhir/base/StructureDefinition/organization-eu"
          ]
        },
        "identifier": [
          {
            "assigner": {
              "display": "HL7 Europe"
            },
            "system": "urn:oid:2.16.840.1.113883.2.51.999",
            "value": "79900341-675c-4226-8bf7-bed7011caca7"
          }
        ],
        "address": [
          {
            "country": "Italy"
          }
        ],
        "text": {
          "status": "generated",
          "div": "<div xmlns=\"http://www.w3.org/1999/xhtml\">Provider Organization: Villa Margherita</div>"
        },
        "name": "Villa Margherita"
      }
    },
    {
      "fullUrl": "urn:uuid:54b09e0f-fd0d-4ea5-98d1-2c9cedf532cd",
      "resource": {
        "resourceType": "Specimen",
        "id": "54b09e0f-fd0d-4ea5-98d1-2c9cedf532cd",
        "meta": {
          "profile": [
            "http://hl7.eu/fhir/laboratory/StructureDefinition/Specimen-eu-lab"
          ]
        },
        "collection": {
          "collectedDateTime": "2024-02-01"
        },
        "text": {
          "status": "generated",
          "div": "<div xmlns=\"http://www.w3.org/1999/xhtml\"><table class=\"hl7__eu__lab__report\"><tr><th>Specimen</th><th>Collection Date</th></tr><tr><td>Whole blood specimen (specimen)</td><td><span class=\"nb\">01-Feb-2024</span></td></tr></table></div>"
        },
        "type": {
          "coding": [
            {
              "code": "258580003",
              "system": "http://snomed.info/sct",
              "display": "Whole blood specimen (specimen)"
            }
          ]
        }
      }
    },
    {
      "fullUrl": "urn:uuid:134c1b75-39d8-47a2-bfea-1679695987d5",
      "resource": {
        "resourceType": "Observation",
        "id": "134c1b75-39d8-47a2-bfea-1679695987d5",
        "meta": {
          "profile": [
            "http://hl7.eu/fhir/laboratory/StructureDefinition/Observation-resultslab-eu-lab"
          ]
        },
        "performer": [
          {
            "display": "The Central European Lab"
          }
        ],
        "category": [
          {
            "coding": [
              {
                "system": "http://terminology.hl7.org/CodeSystem/observation-category",
                "code": "laboratory"
              }
            ]
          }
        ],
        "code": {
          "coding": [
            {
              "code": "4548-4",
              "system": "http://loinc.org",
              "display": "Hemoglobin A1c/Hemoglobin.total in Blood"
            }
          ],
          "text": "Hemoglobin A1c/Hemoglobin.total in Blood"
        },
        "valueQuantity": {
          "system": "http://unitsofmeasure.org",
          "value": 6.1,
          "unit": "%",
          "code": "%"
        },
        "referenceRange": [
          {
            "low": {
              "value": 4,
              "code": "%",
              "system": "http://unitsofmeasure.org"
            }
          },
          {
            "high": {
              "value": 6,
              "code": "%",
              "system": "http://unitsofmeasure.org"
            }
          }
        ],
        "interpretation": [
          {
            "coding": [
              {
                "code": "H",
                "system": "http://terminology.hl7.org/CodeSystem/v3-ObservationInterpretation",
                "display": "High"
              }
            ]
          }
        ],
        "text": {
          "status": "generated",
          "div": "<div xmlns=\"http://www.w3.org/1999/xhtml\"><table class=\"hl7__eu__lab__report\"><tr><th>Test</th><th>01-Feb-2024</th><th>Reference&#xA0;Range</th><th>Unit</th></tr><tr><td>Hemoglobin A1c/Hemoglobin.total in Blood</td><td>6.1</td><td>4 - 6</td><td>H</td><td>%</td></tr></table></div>"
        },
        "status": "final",
        "subject": {
          "reference": "urn:uuid:21672133-9967-474a-86dd-4f9e98899a68",
          "display": "Vincenza Porzio"
        },
        "effectiveDateTime": "2024-02-01T18:51:27Z",
        "specimen": {
          "reference": "urn:uuid:54b09e0f-fd0d-4ea5-98d1-2c9cedf532cd"
        }
      }
    },
    {
      "fullUrl": "urn:uuid:4f04671d-2289-4fdb-bebf-c57da84bae13",
      "resource": {
        "resourceType": "Device",
        "id": "4f04671d-2289-4fdb-bebf-c57da84bae13",
        "deviceName": [
          {
            "name": "SYNDERAI Synthetic Generator",
            "type": "manufacturer-name"
          }
        ],
        "version": [
          {
            "value": "5.0"
          }
        ],
        "text": {
          "status": "generated",
          "div": "<div xmlns=\"http://www.w3.org/1999/xhtml\">SYNDERAI Synthetic Generator v5.0</div>"
        },
        "status": "active\"",
        "distinctIdentifier": "synderai-generator-50",
        "manufacturer": "SYNDERAI Project"
      }
    },
    {
      "fullUrl": "urn:uuid:ecbdc8c3-264e-46dd-96cc-8f05caa2488b",
      "resource": {
        "resourceType": "Provenance",
        "id": "ecbdc8c3-264e-46dd-96cc-8f05caa2488b",
        "target": [
          {
            "reference": "Patient/21672133-9967-474a-86dd-4f9e98899a68"
          },
          {
            "reference": "Bundle/527a4986-6767-488e-9924-37ec5ed7afb0"
          },
          {
            "reference": "Composition/4076c542-a12f-4e68-8881-dd1b04055771"
          },
          {
            "reference": "PractitionerRole/0eaf8a53-f1bc-4b7d-957d-91ffb7cd894f"
          },
          {
            "reference": "Practitioner/2d3b2e59-5933-437a-a6fb-d166178e9ae5"
          },
          {
            "reference": "PractitionerRole/74ae2051-cabe-4be1-8f07-6ef1c86c480d"
          },
          {
            "reference": "Organization/5b881bd5-b9b0-4e45-ac3d-472622e7ee82"
          }
        ],
        "activity": {
          "text": "Synthetic Example Data Generation"
        },
        "policy": [
          "https://synderai.net/synderai-synthetic-data-policy"
        ],
        "agent": [
          {
            "type": {
              "text": "author"
            },
            "who": {
              "reference": "Device/4f04671d-2289-4fdb-bebf-c57da84bae13"
            }
          }
        ],
        "reason": [
          {
            "text": "Interoperability Testing and Training (non-clinical use)"
          }
        ],
        "text": {
          "status": "generated",
          "div": "<div xmlns=\"http://www.w3.org/1999/xhtml\">Provenance for SYNDERAI Synthetic Example Data Resource</div>"
        },
        "recorded": "2024-02-01T19:51:27Z"
      }
    },
    {
      "fullUrl": "urn:uuid:0eaf8a53-f1bc-4b7d-957d-91ffb7cd894f",
      "resource": {
        "resourceType": "PractitionerRole",
        "id": "0eaf8a53-f1bc-4b7d-957d-91ffb7cd894f",
        "meta": {
          "profile": [
            "http://hl7.eu/fhir/base/StructureDefinition/practitionerRole-eu"
          ]
        },
        "text": {
          "status": "generated",
          "div": "<div xmlns=\"http://www.w3.org/1999/xhtml\">Laboratory Role Id: 0eaf8a53-f1bc-4b7d-957d-91ffb7cd894f</div>"
        },
        "practitioner": {
          "reference": "urn:uuid:2d3b2e59-5933-437a-a6fb-d166178e9ae5"
        }
      }
    },
    {
      "fullUrl": "urn:uuid:2d3b2e59-5933-437a-a6fb-d166178e9ae5",
      "resource": {
        "resourceType": "Practitioner",
        "id": "2d3b2e59-5933-437a-a6fb-d166178e9ae5",
        "meta": {
          "profile": [
            "http://hl7.eu/fhir/base/StructureDefinition/practitioner-eu"
          ]
        },
        "identifier": [
          {
            "assigner": {
              "display": "HL7 Europe"
            },
            "system": "urn:oid:2.16.840.1.113883.2.51.999",
            "value": "68dea6ba-0cab-480a-b3db-7f1c1b674d96"
          }
        ],
        "name": [
          {
            "prefix": [
              "dr"
            ],
            "given": [
              "Ex"
            ],
            "family": "Ample"
          }
        ],
        "address": [
          {
            "line": [
              "Laboratoire Central Européenne",
              "Boulevard du Jardin Botanique 32"
            ],
            "postalCode": "1000",
            "city": "Brussels",
            "country": "Belgium"
          }
        ],
        "text": {
          "status": "generated",
          "div": "<div xmlns=\"http://www.w3.org/1999/xhtml\">Laboratory: Laboratoire Central Européenne, 1000 Brussels, Belgium</div>"
        }
      }
    }
  ],
  "type": "document",
  "timestamp": "2024-02-01T19:51:27Z"
}
