{
  "resourceType": "Bundle",
  "id": "776f01b5-6868-49f2-acc0-71e0a715121e",
  "meta": {
    "profile": [
      "http://hl7.eu/fhir/laboratory/StructureDefinition/Bundle-eu-lab"
    ]
  },
  "identifier": {
    "assigner": {
      "display": "HL7 Europe"
    },
    "system": "urn:oid:2.16.840.1.113883.2.51.999",
    "value": "eb3434c8-8154-4507-8182-118cce9aa7f0"
  },
  "entry": [
    {
      "fullUrl": "urn:uuid:cb2d5cad-c1ec-4976-8f0b-febdc05fa1d9",
      "resource": {
        "resourceType": "Composition",
        "id": "cb2d5cad-c1ec-4976-8f0b-febdc05fa1d9",
        "meta": {
          "profile": [
            "http://hl7.eu/fhir/laboratory/StructureDefinition/Composition-eu-lab"
          ]
        },
        "identifier": {
          "assigner": {
            "display": "HL7 Europe"
          },
          "system": "urn:oid:2.16.840.1.113883.2.51.999",
          "value": "47f7fe53-cbff-421a-aead-64bb59866ba4"
        },
        "author": [
          {
            "reference": "urn:uuid:760dce51-9a92-43b9-93a9-cfc661a0642f"
          }
        ],
        "category": [
          {
            "coding": [
              {
                "code": "26436-6",
                "system": "http://loinc.org",
                "display": "Laboratory studies (set)"
              }
            ]
          }
        ],
        "type": {
          "coding": [
            {
              "code": "11502-2",
              "system": "http://loinc.org",
              "display": "Laboratory report"
            }
          ],
          "text": "Laboratory Report"
        },
        "section": [
          {
            "code": {
              "coding": [
                {
                  "code": "26436-6",
                  "system": "http://loinc.org",
                  "display": "Laboratory studies (set)"
                }
              ],
              "text": "Laboratory studies"
            },
            "section": [
              {
                "code": {
                  "coding": [
                    {
                      "code": "$18723-7",
                      "system": "http://loinc.org",
                      "display": "Hematology studies (set)"
                    }
                  ],
                  "text": "Hematology"
                },
                "entry": [
                  {
                    "reference": "urn:uuid:1c6128de-0f09-466a-9ce7-d7d98eb8ffa8"
                  },
                  {
                    "reference": "urn:uuid:f0db8471-e8b7-42d8-b596-416ca7736860"
                  },
                  {
                    "reference": "urn:uuid:e59b2b83-7d45-47a2-98c0-b6916c4168e0"
                  },
                  {
                    "reference": "urn:uuid:1413ea60-cbec-4d5e-99e0-67753489ec0a"
                  },
                  {
                    "reference": "urn:uuid:091b2456-380b-4ef8-8549-fa0b64c84062"
                  },
                  {
                    "reference": "urn:uuid:752eb2a4-39e6-4cde-8417-79900c1f2464"
                  },
                  {
                    "reference": "urn:uuid:2b6da202-17a9-4490-a48c-39f6414a5221"
                  },
                  {
                    "reference": "urn:uuid:a2bf373a-6fba-4813-a74b-fe33b8f56bda"
                  },
                  {
                    "reference": "urn:uuid:edd5aeb2-7dd9-4064-acb0-dd0fd253526b"
                  },
                  {
                    "reference": "urn:uuid:bee3ff77-c8ed-4499-8ae1-1613a1653894"
                  },
                  {
                    "reference": "urn:uuid:d41fa57e-1072-428e-b731-8a9b4c865a42"
                  }
                ],
                "text": {
                  "status": "generated",
                  "div": "<div xmlns=\"http://www.w3.org/1999/xhtml\"><h3>Hematology</h3><table class=\"hl7__eu__lab__report\"><thead><tr><th>Test</th><th>20-JUL-2018</th><th>Reference&#xA0;Range</th><th>Unit</th></tr></thead><tbody><tr><td>Leukocytes [#/volume] in Blood by Automated count</td><td><strong>3.8 L</strong></td><td>4 - 11</td><td>10*3/uL</td></tr><tr><td>Erythrocytes [#/volume] in Blood by Automated count</td><td>4.4</td><td>3.9 - 5.2</td><td>10*6/uL</td></tr><tr><td>Hemoglobin [Mass/volume] in Blood</td><td><strong>16.7 H</strong></td><td>12 - 15.5</td><td>g/dL</td></tr><tr><td>Hematocrit [Volume Fraction] of Blood by Automated count</td><td>39.6</td><td>38 - 54</td><td>%</td></tr><tr><td>MCV [Entitic volume] by Automated count</td><td>83.6</td><td>78 - 98</td><td>fL</td></tr><tr><td>MCH [Entitic mass] by Automated count</td><td>31.4</td><td>27 - 33</td><td>pg</td></tr><tr><td>MCHC [Mass/volume] by Automated count</td><td>34.7</td><td>31 - 35</td><td>g/dL</td></tr><tr><td>Erythrocyte distribution width [Entitic volume] by Automated count</td><td>45.3</td><td>36 - 56</td><td>fL</td></tr><tr><td>Platelets [#/volume] in Blood by Automated count</td><td>437.7</td><td>150 - 450</td><td>10*3/uL</td></tr><tr><td>Platelet distribution width [Entitic volume] in Blood by Automated count</td><td>407.2</td><td>15.5 - 450</td><td>fL</td></tr><tr><td>Platelet mean volume [Entitic volume] in Blood by Automated count</td><td>11.5</td><td>7.2 - 13.5</td><td>fL</td></tr></tbody></table></div>"
                },
                "title": "Hematology"
              },
              {
                "code": {
                  "coding": [
                    {
                      "code": "$18719-5",
                      "system": "http://loinc.org",
                      "display": "Chemistry studies (set)"
                    }
                  ],
                  "text": "Chemistry"
                },
                "entry": [
                  {
                    "reference": "urn:uuid:ba293a1f-e62e-4514-9bf1-817f44f760ee"
                  },
                  {
                    "reference": "urn:uuid:bd810e57-2d33-4f42-a516-059b57e63057"
                  },
                  {
                    "reference": "urn:uuid:ad5aa60b-534e-491b-bd0d-df336bf00021"
                  },
                  {
                    "reference": "urn:uuid:30f823ff-0983-4dfa-b4a1-2d0a27fbc335"
                  },
                  {
                    "reference": "urn:uuid:48063a09-73ff-4c15-aba2-23ca08b6b761"
                  },
                  {
                    "reference": "urn:uuid:8ad2e2a8-9ca5-4a55-bf8d-afcb4dfc7a70"
                  },
                  {
                    "reference": "urn:uuid:fdeb39d5-0f52-479e-8605-7dfa06f998b8"
                  },
                  {
                    "reference": "urn:uuid:381b9905-ef55-4ce6-8c2b-37186fc8253c"
                  }
                ],
                "text": {
                  "status": "generated",
                  "div": "<div xmlns=\"http://www.w3.org/1999/xhtml\"><h3>Chemistry</h3><table class=\"hl7__eu__lab__report\"><thead><tr><th>Test</th><th>20-JUL-2018</th><th>Reference&#xA0;Range</th><th>Unit</th></tr></thead><tbody><tr><td>Glucose [Mass/volume] in Blood</td><td>86.0</td><td>70 - 140</td><td>mg/dL</td></tr><tr><td>Urea nitrogen [Mass/volume] in Blood</td><td>16.1</td><td>7 - 30</td><td>mg/dL</td></tr><tr><td>Creatinine [Mass/volume] in Blood</td><td>0.7</td><td>0.5 - 1.3</td><td>mg/dL</td></tr><tr><td>Calcium [Mass/volume] in Blood</td><td>9.6</td><td>8.6 - 10.2</td><td>mg/dL</td></tr><tr><td>Sodium [Moles/volume] in Blood</td><td>141.3</td><td>135 - 145</td><td>mmol/L</td></tr><tr><td>Potassium [Moles/volume] in Blood</td><td>4.5</td><td>3.5 - 5.1</td><td>mmol/L</td></tr><tr><td>Chloride [Moles/volume] in Blood</td><td>107.8</td><td>98 - 114</td><td>mmol/L</td></tr><tr><td>Carbon dioxide, total [Moles/volume] in Blood</td><td>24.4</td><td>22 - 32</td><td>mmol/L</td></tr></tbody></table></div>"
                },
                "title": "Chemistry"
              }
            ],
            "title": "Laboratory Report"
          },
          {
            "text": {
              "status": "generated",
              "div": "<div xmlns=\"http://www.w3.org/1999/xhtml\"><h3>Annotation</h3><table class=\"hl7__eu__lab__report\"><tr><th>Conclusion and Recommendations based on this report and previous findings known to us</th></tr><tr><td>All parameters are within normal limits except for mild leukopenia and elevated hemoglobin. The low leukocyte count may indicate increased infection risk or bone marrow suppression; clinical correlation is advised. Elevated hemoglobin could be due to dehydration or other causes; consider hydration status and clinical context. No evidence of renal or electrolyte disturbances. Recommend monitoring and further evaluation if clinically indicated.</td></tr></table></div>"
            },
            "code": {
              "coding": [
                {
                  "system": "http://loinc.org",
                  "code": "48767-8",
                  "display": "Annotation comment"
                }
              ]
            },
            "title": "Annotation comment"
          }
        ],
        "status": "final",
        "subject": {
          "reference": "urn:uuid:2368e1c4-af5a-47cd-a56f-13b1b855cbe6",
          "display": "Maria Nohlmans"
        },
        "date": "2018-07-20T18:25:55Z",
        "title": "Laboratory Report",
        "confidentiality": "N"
      }
    },
    {
      "fullUrl": "urn:uuid:dee28838-ab76-4737-acc1-7421a57ab93a",
      "resource": {
        "resourceType": "DiagnosticReport",
        "id": "dee28838-ab76-4737-acc1-7421a57ab93a",
        "meta": {
          "profile": [
            "http://hl7.eu/fhir/laboratory/StructureDefinition/DiagnosticReport-eu-lab"
          ]
        },
        "identifier": [
          {
            "assigner": {
              "display": "HL7 Europe"
            },
            "system": "urn:oid:2.16.840.1.113883.2.51.999",
            "value": "9de08c63-1b89-4c6e-abc8-1d8194937a48"
          }
        ],
        "extension": [
          {
            "url": "http://hl7.org/fhir/5.0/StructureDefinition/extension-DiagnosticReport.composition",
            "valueReference": {
              "reference": "urn:uuid:47f7fe53-cbff-421a-aead-64bb59866ba4"
            }
          }
        ],
        "category": [
          {
            "coding": [
              {
                "code": "26436-6",
                "system": "http://loinc.org",
                "display": "Laboratory studies (set)"
              }
            ]
          }
        ],
        "specimen": [
          {
            "reference": "urn:uuid:82baa009-1613-427d-89c8-0c598b450eeb"
          },
          {
            "reference": "urn:uuid:82baa009-1613-427d-89c8-0c598b450eeb"
          }
        ],
        "result": [
          {
            "reference": "urn:uuid:ba293a1f-e62e-4514-9bf1-817f44f760ee"
          },
          {
            "reference": "urn:uuid:bd810e57-2d33-4f42-a516-059b57e63057"
          },
          {
            "reference": "urn:uuid:ad5aa60b-534e-491b-bd0d-df336bf00021"
          },
          {
            "reference": "urn:uuid:30f823ff-0983-4dfa-b4a1-2d0a27fbc335"
          },
          {
            "reference": "urn:uuid:48063a09-73ff-4c15-aba2-23ca08b6b761"
          },
          {
            "reference": "urn:uuid:8ad2e2a8-9ca5-4a55-bf8d-afcb4dfc7a70"
          },
          {
            "reference": "urn:uuid:fdeb39d5-0f52-479e-8605-7dfa06f998b8"
          },
          {
            "reference": "urn:uuid:381b9905-ef55-4ce6-8c2b-37186fc8253c"
          },
          {
            "reference": "urn:uuid:1c6128de-0f09-466a-9ce7-d7d98eb8ffa8"
          },
          {
            "reference": "urn:uuid:f0db8471-e8b7-42d8-b596-416ca7736860"
          },
          {
            "reference": "urn:uuid:e59b2b83-7d45-47a2-98c0-b6916c4168e0"
          },
          {
            "reference": "urn:uuid:1413ea60-cbec-4d5e-99e0-67753489ec0a"
          },
          {
            "reference": "urn:uuid:091b2456-380b-4ef8-8549-fa0b64c84062"
          },
          {
            "reference": "urn:uuid:752eb2a4-39e6-4cde-8417-79900c1f2464"
          },
          {
            "reference": "urn:uuid:2b6da202-17a9-4490-a48c-39f6414a5221"
          },
          {
            "reference": "urn:uuid:a2bf373a-6fba-4813-a74b-fe33b8f56bda"
          },
          {
            "reference": "urn:uuid:edd5aeb2-7dd9-4064-acb0-dd0fd253526b"
          },
          {
            "reference": "urn:uuid:bee3ff77-c8ed-4499-8ae1-1613a1653894"
          },
          {
            "reference": "urn:uuid:d41fa57e-1072-428e-b731-8a9b4c865a42"
          }
        ],
        "status": "registered",
        "code": {
          "coding": [
            {
              "code": "11502-2",
              "system": "http://loinc.org",
              "display": "Laboratory report"
            }
          ]
        },
        "subject": {
          "reference": "urn:uuid:2368e1c4-af5a-47cd-a56f-13b1b855cbe6",
          "display": "Maria Nohlmans"
        }
      }
    },
    {
      "fullUrl": "urn:uuid:2368e1c4-af5a-47cd-a56f-13b1b855cbe6",
      "resource": {
        "resourceType": "Patient",
        "id": "2368e1c4-af5a-47cd-a56f-13b1b855cbe6",
        "meta": {
          "security": [
            {
              "system": "http://terminology.hl7.org/CodeSystem/v3-ActReason",
              "code": "HTEST"
            },
            {
              "system": "http://terminology.hl7.org/CodeSystem/v3-ActReason",
              "code": "TRAIN"
            }
          ],
          "tag": [
            {
              "system": "https://synderai.net/fhir/CodeSystem/tags",
              "code": "synthetic",
              "display": "SYNDERAI Synthetic data"
            }
          ],
          "profile": [
            "http://hl7.eu/fhir/base/StructureDefinition/patient-eu-core"
          ]
        },
        "identifier": [
          {
            "type": {
              "coding": [
                {
                  "code": "PT",
                  "system": "http://terminology.hl7.org/CodeSystem/v2-0203"
                }
              ]
            },
            "system": "http://ec.europa.eu/identifier/eci",
            "value": "6886-506417-1"
          },
          {
            "type": {
              "coding": [
                {
                  "code": "MR",
                  "system": "http://terminology.hl7.org/CodeSystem/v2-0203"
                }
              ]
            },
            "system": "http://local.setting.eu/identifier",
            "value": "2cb21ed6-b617-b1f3-2290-589a710de5ee"
          }
        ],
        "name": [
          {
            "family": "Nohlmans"
          },
          {
            "given": [
              "Maria"
            ]
          },
          {
            "text": "Maria Nohlmans"
          }
        ],
        "address": [
          {
            "line": [
              "Alfons-Wulff-Weg 1"
            ],
            "use": "home",
            "type": "physical",
            "postalCode": "25813",
            "city": "Husum",
            "country": "Germany"
          }
        ],
        "telecom": [
          {
            "system": "phone",
            "value": "+49(0)1911 105501"
          }
        ],
        "extension": [
          {
            "url": "http://hl7.org/fhir/StructureDefinition/patient-nationality",
            "valueCodeableConcept": {
              "coding": [
                {
                  "code": "DE",
                  "system": "http://hl7.org/fhir/ValueSet/country"
                }
              ]
            }
          }
        ],
        "text": {
          "status": "generated",
          "div": "<div xmlns=\"http://www.w3.org/1999/xhtml\"><table class=\"hl7__ips\"><tr><td>Maria Nohlmans</td><td>female</td><td>11-Jun-1947</td></tr></table></div>"
        },
        "gender": "female",
        "birthDate": "1947-06-11"
      }
    },
    {
      "fullUrl": "urn:uuid:4532c652-d1f7-46c9-9c30-d1def9c8d676",
      "resource": {
        "resourceType": "ServiceRequest",
        "id": "4532c652-d1f7-46c9-9c30-d1def9c8d676",
        "meta": {
          "profile": [
            "http://hl7.eu/fhir/laboratory/StructureDefinition/ServiceRequest-eu-lab"
          ]
        },
        "identifier": [
          {
            "system": "http://example.org",
            "value": "fab720aa-dd5f-42e1-9d67-d29628d964db"
          }
        ],
        "specimen": [
          {
            "reference": "urn:uuid:82baa009-1613-427d-89c8-0c598b450eeb"
          }
        ],
        "reasonCode": [
          {
            "coding": [
              {
                "code": "401314000",
                "system": "http://snomed.info/sct",
                "display": "Acute non-ST segment elevation myocardial infarction"
              }
            ]
          },
          {
            "coding": [
              {
                "code": "157141000119108",
                "system": "http://snomed.info/sct",
                "display": "Proteinuria due to type 2 diabetes mellitus"
              }
            ]
          },
          {
            "coding": [
              {
                "code": "237602007",
                "system": "http://snomed.info/sct",
                "display": "Metabolic syndrome X"
              }
            ]
          },
          {
            "coding": [
              {
                "code": "90781000119102",
                "system": "http://snomed.info/sct",
                "display": "Microalbuminuria due to type 2 diabetes mellitus"
              }
            ]
          },
          {
            "coding": [
              {
                "code": "127013003",
                "system": "http://snomed.info/sct",
                "display": "Disorder of kidney due to diabetes mellitus"
              }
            ]
          },
          {
            "coding": [
              {
                "code": "59621000",
                "system": "http://snomed.info/sct",
                "display": "Essential hypertension"
              }
            ]
          },
          {
            "coding": [
              {
                "code": "271737000",
                "system": "http://snomed.info/sct",
                "display": "Anemia"
              }
            ]
          },
          {
            "coding": [
              {
                "code": "15777000",
                "system": "http://snomed.info/sct",
                "display": "Prediabetes"
              }
            ]
          }
        ],
        "status": "active",
        "intent": "order",
        "code": {
          "coding": [
            {
              "code": "108252007",
              "system": "http://snomed.info/sct",
              "display": "Laboratory procedure"
            }
          ]
        },
        "subject": {
          "reference": "urn:uuid:2368e1c4-af5a-47cd-a56f-13b1b855cbe6",
          "display": "Maria Nohlmans"
        },
        "requester": {
          "reference": "urn:uuid:cb57cd1a-d8c9-4a40-a8ac-ae43c9f5cd52"
        }
      }
    },
    {
      "fullUrl": "urn:uuid:cb57cd1a-d8c9-4a40-a8ac-ae43c9f5cd52",
      "resource": {
        "resourceType": "PractitionerRole",
        "id": "cb57cd1a-d8c9-4a40-a8ac-ae43c9f5cd52",
        "meta": {
          "profile": [
            "http://hl7.eu/fhir/base/StructureDefinition/practitionerRole-eu"
          ]
        },
        "text": {
          "status": "generated",
          "div": "<div xmlns=\"http://www.w3.org/1999/xhtml\">Provider Role Id: cb57cd1a-d8c9-4a40-a8ac-ae43c9f5cd52</div>"
        },
        "organization": {
          "reference": "urn:uuid:68b10744-560d-4f20-9e54-faded5528bbb"
        }
      }
    },
    {
      "fullUrl": "urn:uuid:68b10744-560d-4f20-9e54-faded5528bbb",
      "resource": {
        "resourceType": "Organization",
        "id": "68b10744-560d-4f20-9e54-faded5528bbb",
        "meta": {
          "profile": [
            "http://hl7.eu/fhir/base/StructureDefinition/organization-eu"
          ]
        },
        "identifier": [
          {
            "assigner": {
              "display": "HL7 Europe"
            },
            "system": "urn:oid:2.16.840.1.113883.2.51.999",
            "value": "3adfe1c6-a319-49a0-bc80-f45cb292cfa8"
          }
        ],
        "address": [
          {
            "line": [
              "Brinckmannstraße 35"
            ],
            "city": "Husum",
            "postalCode": "25813",
            "country": "Germany"
          }
        ],
        "text": {
          "status": "generated",
          "div": "<div xmlns=\"http://www.w3.org/1999/xhtml\">Provider Organization: Dr. Wolfram Hussels Kieferorthopäde</div>"
        },
        "name": "Dr. Wolfram Hussels Kieferorthopäde"
      }
    },
    {
      "fullUrl": "urn:uuid:82baa009-1613-427d-89c8-0c598b450eeb",
      "resource": {
        "resourceType": "Specimen",
        "id": "82baa009-1613-427d-89c8-0c598b450eeb",
        "meta": {
          "profile": [
            "http://hl7.eu/fhir/laboratory/StructureDefinition/Specimen-eu-lab"
          ]
        },
        "collection": {
          "collectedDateTime": "2018-07-20"
        },
        "text": {
          "status": "generated",
          "div": "<div xmlns=\"http://www.w3.org/1999/xhtml\"><table class=\"hl7__eu__lab__report\"><tr><th>Specimen</th><th>Collection Date</th></tr><tr><td>Whole blood specimen (specimen)</td><td><span class=\"nb\">20-Jul-2018</span></td></tr></table></div>"
        },
        "type": {
          "coding": [
            {
              "code": "258580003",
              "system": "http://snomed.info/sct",
              "display": "Whole blood specimen (specimen)"
            }
          ]
        }
      }
    },
    {
      "fullUrl": "urn:uuid:82baa009-1613-427d-89c8-0c598b450eeb",
      "resource": {
        "resourceType": "Specimen",
        "id": "82baa009-1613-427d-89c8-0c598b450eeb",
        "meta": {
          "profile": [
            "http://hl7.eu/fhir/laboratory/StructureDefinition/Specimen-eu-lab"
          ]
        },
        "collection": {
          "collectedDateTime": "2018-07-20"
        },
        "text": {
          "status": "generated",
          "div": "<div xmlns=\"http://www.w3.org/1999/xhtml\"><table class=\"hl7__eu__lab__report\"><tr><th>Specimen</th><th>Collection Date</th></tr><tr><td>Whole blood specimen (specimen)</td><td><span class=\"nb\">20-Jul-2018</span></td></tr></table></div>"
        },
        "type": {
          "coding": [
            {
              "code": "258580003",
              "system": "http://snomed.info/sct",
              "display": "Whole blood specimen (specimen)"
            }
          ]
        }
      }
    },
    {
      "fullUrl": "urn:uuid:ba293a1f-e62e-4514-9bf1-817f44f760ee",
      "resource": {
        "resourceType": "Observation",
        "id": "ba293a1f-e62e-4514-9bf1-817f44f760ee",
        "meta": {
          "profile": [
            "http://hl7.eu/fhir/laboratory/StructureDefinition/Observation-resultslab-eu-lab"
          ]
        },
        "performer": [
          {
            "display": "The Central European Lab"
          }
        ],
        "category": [
          {
            "coding": [
              {
                "system": "http://terminology.hl7.org/CodeSystem/observation-category",
                "code": "laboratory"
              }
            ]
          }
        ],
        "code": {
          "coding": [
            {
              "code": "2339-0",
              "system": "http://loinc.org",
              "display": "Glucose [Mass/volume] in Blood"
            }
          ],
          "text": "Glucose [Mass/volume] in Blood"
        },
        "valueQuantity": {
          "system": "http://unitsofmeasure.org",
          "value": 86,
          "unit": "mg/dL",
          "code": "mg/dL"
        },
        "referenceRange": [
          {
            "low": {
              "value": 70,
              "code": "mg/dL",
              "system": "http://unitsofmeasure.org"
            }
          },
          {
            "high": {
              "value": 140,
              "code": "mg/dL",
              "system": "http://unitsofmeasure.org"
            }
          }
        ],
        "text": {
          "status": "generated",
          "div": "<div xmlns=\"http://www.w3.org/1999/xhtml\"><table class=\"hl7__eu__lab__report\"><tr><th>Test</th><th>20-Jul-2018</th><th>Reference&#xA0;Range</th><th>Unit</th></tr><tr><td>Glucose [Mass/volume] in Blood</td><td>86.0</td><td>70 - 140</td><td></td><td>mg/dL</td></tr></table></div>"
        },
        "status": "final",
        "subject": {
          "reference": "urn:uuid:2368e1c4-af5a-47cd-a56f-13b1b855cbe6",
          "display": "Maria Nohlmans"
        },
        "effectiveDateTime": "2018-07-20T16:25:55Z",
        "specimen": {
          "reference": "urn:uuid:82baa009-1613-427d-89c8-0c598b450eeb"
        }
      }
    },
    {
      "fullUrl": "urn:uuid:bd810e57-2d33-4f42-a516-059b57e63057",
      "resource": {
        "resourceType": "Observation",
        "id": "bd810e57-2d33-4f42-a516-059b57e63057",
        "meta": {
          "profile": [
            "http://hl7.eu/fhir/laboratory/StructureDefinition/Observation-resultslab-eu-lab"
          ]
        },
        "performer": [
          {
            "display": "The Central European Lab"
          }
        ],
        "category": [
          {
            "coding": [
              {
                "system": "http://terminology.hl7.org/CodeSystem/observation-category",
                "code": "laboratory"
              }
            ]
          }
        ],
        "code": {
          "coding": [
            {
              "code": "6299-2",
              "system": "http://loinc.org",
              "display": "Urea nitrogen [Mass/volume] in Blood"
            }
          ],
          "text": "Urea nitrogen [Mass/volume] in Blood"
        },
        "valueQuantity": {
          "system": "http://unitsofmeasure.org",
          "value": 16.1,
          "unit": "mg/dL",
          "code": "mg/dL"
        },
        "referenceRange": [
          {
            "low": {
              "value": 7,
              "code": "mg/dL",
              "system": "http://unitsofmeasure.org"
            }
          },
          {
            "high": {
              "value": 30,
              "code": "mg/dL",
              "system": "http://unitsofmeasure.org"
            }
          }
        ],
        "text": {
          "status": "generated",
          "div": "<div xmlns=\"http://www.w3.org/1999/xhtml\"><table class=\"hl7__eu__lab__report\"><tr><th>Test</th><th>20-Jul-2018</th><th>Reference&#xA0;Range</th><th>Unit</th></tr><tr><td>Urea nitrogen [Mass/volume] in Blood</td><td>16.1</td><td>7 - 30</td><td></td><td>mg/dL</td></tr></table></div>"
        },
        "status": "final",
        "subject": {
          "reference": "urn:uuid:2368e1c4-af5a-47cd-a56f-13b1b855cbe6",
          "display": "Maria Nohlmans"
        },
        "effectiveDateTime": "2018-07-20T16:25:55Z",
        "specimen": {
          "reference": "urn:uuid:82baa009-1613-427d-89c8-0c598b450eeb"
        }
      }
    },
    {
      "fullUrl": "urn:uuid:ad5aa60b-534e-491b-bd0d-df336bf00021",
      "resource": {
        "resourceType": "Observation",
        "id": "ad5aa60b-534e-491b-bd0d-df336bf00021",
        "meta": {
          "profile": [
            "http://hl7.eu/fhir/laboratory/StructureDefinition/Observation-resultslab-eu-lab"
          ]
        },
        "performer": [
          {
            "display": "The Central European Lab"
          }
        ],
        "category": [
          {
            "coding": [
              {
                "system": "http://terminology.hl7.org/CodeSystem/observation-category",
                "code": "laboratory"
              }
            ]
          }
        ],
        "code": {
          "coding": [
            {
              "code": "38483-4",
              "system": "http://loinc.org",
              "display": "Creatinine [Mass/volume] in Blood"
            }
          ],
          "text": "Creatinine [Mass/volume] in Blood"
        },
        "valueQuantity": {
          "system": "http://unitsofmeasure.org",
          "value": 0.7,
          "unit": "mg/dL",
          "code": "mg/dL"
        },
        "referenceRange": [
          {
            "low": {
              "value": 0.5,
              "code": "mg/dL",
              "system": "http://unitsofmeasure.org"
            }
          },
          {
            "high": {
              "value": 1.3,
              "code": "mg/dL",
              "system": "http://unitsofmeasure.org"
            }
          }
        ],
        "text": {
          "status": "generated",
          "div": "<div xmlns=\"http://www.w3.org/1999/xhtml\"><table class=\"hl7__eu__lab__report\"><tr><th>Test</th><th>20-Jul-2018</th><th>Reference&#xA0;Range</th><th>Unit</th></tr><tr><td>Creatinine [Mass/volume] in Blood</td><td>0.7</td><td>0.5 - 1.3</td><td></td><td>mg/dL</td></tr></table></div>"
        },
        "status": "final",
        "subject": {
          "reference": "urn:uuid:2368e1c4-af5a-47cd-a56f-13b1b855cbe6",
          "display": "Maria Nohlmans"
        },
        "effectiveDateTime": "2018-07-20T16:25:55Z",
        "specimen": {
          "reference": "urn:uuid:82baa009-1613-427d-89c8-0c598b450eeb"
        }
      }
    },
    {
      "fullUrl": "urn:uuid:30f823ff-0983-4dfa-b4a1-2d0a27fbc335",
      "resource": {
        "resourceType": "Observation",
        "id": "30f823ff-0983-4dfa-b4a1-2d0a27fbc335",
        "meta": {
          "profile": [
            "http://hl7.eu/fhir/laboratory/StructureDefinition/Observation-resultslab-eu-lab"
          ]
        },
        "performer": [
          {
            "display": "The Central European Lab"
          }
        ],
        "category": [
          {
            "coding": [
              {
                "system": "http://terminology.hl7.org/CodeSystem/observation-category",
                "code": "laboratory"
              }
            ]
          }
        ],
        "code": {
          "coding": [
            {
              "code": "49765-1",
              "system": "http://loinc.org",
              "display": "Calcium [Mass/volume] in Blood"
            }
          ],
          "text": "Calcium [Mass/volume] in Blood"
        },
        "valueQuantity": {
          "system": "http://unitsofmeasure.org",
          "value": 9.6,
          "unit": "mg/dL",
          "code": "mg/dL"
        },
        "referenceRange": [
          {
            "low": {
              "value": 8.6,
              "code": "mg/dL",
              "system": "http://unitsofmeasure.org"
            }
          },
          {
            "high": {
              "value": 10.2,
              "code": "mg/dL",
              "system": "http://unitsofmeasure.org"
            }
          }
        ],
        "text": {
          "status": "generated",
          "div": "<div xmlns=\"http://www.w3.org/1999/xhtml\"><table class=\"hl7__eu__lab__report\"><tr><th>Test</th><th>20-Jul-2018</th><th>Reference&#xA0;Range</th><th>Unit</th></tr><tr><td>Calcium [Mass/volume] in Blood</td><td>9.6</td><td>8.6 - 10.2</td><td></td><td>mg/dL</td></tr></table></div>"
        },
        "status": "final",
        "subject": {
          "reference": "urn:uuid:2368e1c4-af5a-47cd-a56f-13b1b855cbe6",
          "display": "Maria Nohlmans"
        },
        "effectiveDateTime": "2018-07-20T16:25:55Z",
        "specimen": {
          "reference": "urn:uuid:82baa009-1613-427d-89c8-0c598b450eeb"
        }
      }
    },
    {
      "fullUrl": "urn:uuid:48063a09-73ff-4c15-aba2-23ca08b6b761",
      "resource": {
        "resourceType": "Observation",
        "id": "48063a09-73ff-4c15-aba2-23ca08b6b761",
        "meta": {
          "profile": [
            "http://hl7.eu/fhir/laboratory/StructureDefinition/Observation-resultslab-eu-lab"
          ]
        },
        "performer": [
          {
            "display": "The Central European Lab"
          }
        ],
        "category": [
          {
            "coding": [
              {
                "system": "http://terminology.hl7.org/CodeSystem/observation-category",
                "code": "laboratory"
              }
            ]
          }
        ],
        "code": {
          "coding": [
            {
              "code": "2947-0",
              "system": "http://loinc.org",
              "display": "Sodium [Moles/volume] in Blood"
            }
          ],
          "text": "Sodium [Moles/volume] in Blood"
        },
        "valueQuantity": {
          "system": "http://unitsofmeasure.org",
          "value": 141.3,
          "unit": "mmol/L",
          "code": "mmol/L"
        },
        "referenceRange": [
          {
            "low": {
              "value": 135,
              "code": "mmol/L",
              "system": "http://unitsofmeasure.org"
            }
          },
          {
            "high": {
              "value": 145,
              "code": "mmol/L",
              "system": "http://unitsofmeasure.org"
            }
          }
        ],
        "text": {
          "status": "generated",
          "div": "<div xmlns=\"http://www.w3.org/1999/xhtml\"><table class=\"hl7__eu__lab__report\"><tr><th>Test</th><th>20-Jul-2018</th><th>Reference&#xA0;Range</th><th>Unit</th></tr><tr><td>Sodium [Moles/volume] in Blood</td><td>141.3</td><td>135 - 145</td><td></td><td>mmol/L</td></tr></table></div>"
        },
        "status": "final",
        "subject": {
          "reference": "urn:uuid:2368e1c4-af5a-47cd-a56f-13b1b855cbe6",
          "display": "Maria Nohlmans"
        },
        "effectiveDateTime": "2018-07-20T16:25:55Z",
        "specimen": {
          "reference": "urn:uuid:82baa009-1613-427d-89c8-0c598b450eeb"
        }
      }
    },
    {
      "fullUrl": "urn:uuid:8ad2e2a8-9ca5-4a55-bf8d-afcb4dfc7a70",
      "resource": {
        "resourceType": "Observation",
        "id": "8ad2e2a8-9ca5-4a55-bf8d-afcb4dfc7a70",
        "meta": {
          "profile": [
            "http://hl7.eu/fhir/laboratory/StructureDefinition/Observation-resultslab-eu-lab"
          ]
        },
        "performer": [
          {
            "display": "The Central European Lab"
          }
        ],
        "category": [
          {
            "coding": [
              {
                "system": "http://terminology.hl7.org/CodeSystem/observation-category",
                "code": "laboratory"
              }
            ]
          }
        ],
        "code": {
          "coding": [
            {
              "code": "6298-4",
              "system": "http://loinc.org",
              "display": "Potassium [Moles/volume] in Blood"
            }
          ],
          "text": "Potassium [Moles/volume] in Blood"
        },
        "valueQuantity": {
          "system": "http://unitsofmeasure.org",
          "value": 4.5,
          "unit": "mmol/L",
          "code": "mmol/L"
        },
        "referenceRange": [
          {
            "low": {
              "value": 3.5,
              "code": "mmol/L",
              "system": "http://unitsofmeasure.org"
            }
          },
          {
            "high": {
              "value": 5.1,
              "code": "mmol/L",
              "system": "http://unitsofmeasure.org"
            }
          }
        ],
        "text": {
          "status": "generated",
          "div": "<div xmlns=\"http://www.w3.org/1999/xhtml\"><table class=\"hl7__eu__lab__report\"><tr><th>Test</th><th>20-Jul-2018</th><th>Reference&#xA0;Range</th><th>Unit</th></tr><tr><td>Potassium [Moles/volume] in Blood</td><td>4.5</td><td>3.5 - 5.1</td><td></td><td>mmol/L</td></tr></table></div>"
        },
        "status": "final",
        "subject": {
          "reference": "urn:uuid:2368e1c4-af5a-47cd-a56f-13b1b855cbe6",
          "display": "Maria Nohlmans"
        },
        "effectiveDateTime": "2018-07-20T16:25:55Z",
        "specimen": {
          "reference": "urn:uuid:82baa009-1613-427d-89c8-0c598b450eeb"
        }
      }
    },
    {
      "fullUrl": "urn:uuid:fdeb39d5-0f52-479e-8605-7dfa06f998b8",
      "resource": {
        "resourceType": "Observation",
        "id": "fdeb39d5-0f52-479e-8605-7dfa06f998b8",
        "meta": {
          "profile": [
            "http://hl7.eu/fhir/laboratory/StructureDefinition/Observation-resultslab-eu-lab"
          ]
        },
        "performer": [
          {
            "display": "The Central European Lab"
          }
        ],
        "category": [
          {
            "coding": [
              {
                "system": "http://terminology.hl7.org/CodeSystem/observation-category",
                "code": "laboratory"
              }
            ]
          }
        ],
        "code": {
          "coding": [
            {
              "code": "2069-3",
              "system": "http://loinc.org",
              "display": "Chloride [Moles/volume] in Blood"
            }
          ],
          "text": "Chloride [Moles/volume] in Blood"
        },
        "valueQuantity": {
          "system": "http://unitsofmeasure.org",
          "value": 107.8,
          "unit": "mmol/L",
          "code": "mmol/L"
        },
        "referenceRange": [
          {
            "low": {
              "value": 98,
              "code": "mmol/L",
              "system": "http://unitsofmeasure.org"
            }
          },
          {
            "high": {
              "value": 114,
              "code": "mmol/L",
              "system": "http://unitsofmeasure.org"
            }
          }
        ],
        "text": {
          "status": "generated",
          "div": "<div xmlns=\"http://www.w3.org/1999/xhtml\"><table class=\"hl7__eu__lab__report\"><tr><th>Test</th><th>20-Jul-2018</th><th>Reference&#xA0;Range</th><th>Unit</th></tr><tr><td>Chloride [Moles/volume] in Blood</td><td>107.8</td><td>98 - 114</td><td></td><td>mmol/L</td></tr></table></div>"
        },
        "status": "final",
        "subject": {
          "reference": "urn:uuid:2368e1c4-af5a-47cd-a56f-13b1b855cbe6",
          "display": "Maria Nohlmans"
        },
        "effectiveDateTime": "2018-07-20T16:25:55Z",
        "specimen": {
          "reference": "urn:uuid:82baa009-1613-427d-89c8-0c598b450eeb"
        }
      }
    },
    {
      "fullUrl": "urn:uuid:381b9905-ef55-4ce6-8c2b-37186fc8253c",
      "resource": {
        "resourceType": "Observation",
        "id": "381b9905-ef55-4ce6-8c2b-37186fc8253c",
        "meta": {
          "profile": [
            "http://hl7.eu/fhir/laboratory/StructureDefinition/Observation-resultslab-eu-lab"
          ]
        },
        "performer": [
          {
            "display": "The Central European Lab"
          }
        ],
        "category": [
          {
            "coding": [
              {
                "system": "http://terminology.hl7.org/CodeSystem/observation-category",
                "code": "laboratory"
              }
            ]
          }
        ],
        "code": {
          "coding": [
            {
              "code": "20565-8",
              "system": "http://loinc.org",
              "display": "Carbon dioxide, total [Moles/volume] in Blood"
            }
          ],
          "text": "Carbon dioxide, total [Moles/volume] in Blood"
        },
        "valueQuantity": {
          "system": "http://unitsofmeasure.org",
          "value": 24.4,
          "unit": "mmol/L",
          "code": "mmol/L"
        },
        "referenceRange": [
          {
            "low": {
              "value": 22,
              "code": "mmol/L",
              "system": "http://unitsofmeasure.org"
            }
          },
          {
            "high": {
              "value": 32,
              "code": "mmol/L",
              "system": "http://unitsofmeasure.org"
            }
          }
        ],
        "text": {
          "status": "generated",
          "div": "<div xmlns=\"http://www.w3.org/1999/xhtml\"><table class=\"hl7__eu__lab__report\"><tr><th>Test</th><th>20-Jul-2018</th><th>Reference&#xA0;Range</th><th>Unit</th></tr><tr><td>Carbon dioxide, total [Moles/volume] in Blood</td><td>24.4</td><td>22 - 32</td><td></td><td>mmol/L</td></tr></table></div>"
        },
        "status": "final",
        "subject": {
          "reference": "urn:uuid:2368e1c4-af5a-47cd-a56f-13b1b855cbe6",
          "display": "Maria Nohlmans"
        },
        "effectiveDateTime": "2018-07-20T16:25:55Z",
        "specimen": {
          "reference": "urn:uuid:82baa009-1613-427d-89c8-0c598b450eeb"
        }
      }
    },
    {
      "fullUrl": "urn:uuid:1c6128de-0f09-466a-9ce7-d7d98eb8ffa8",
      "resource": {
        "resourceType": "Observation",
        "id": "1c6128de-0f09-466a-9ce7-d7d98eb8ffa8",
        "meta": {
          "profile": [
            "http://hl7.eu/fhir/laboratory/StructureDefinition/Observation-resultslab-eu-lab"
          ]
        },
        "performer": [
          {
            "display": "The Central European Lab"
          }
        ],
        "category": [
          {
            "coding": [
              {
                "system": "http://terminology.hl7.org/CodeSystem/observation-category",
                "code": "laboratory"
              }
            ]
          }
        ],
        "code": {
          "coding": [
            {
              "code": "6690-2",
              "system": "http://loinc.org",
              "display": "Leukocytes [#/volume] in Blood by Automated count"
            }
          ],
          "text": "Leukocytes [#/volume] in Blood by Automated count"
        },
        "valueQuantity": {
          "system": "http://unitsofmeasure.org",
          "value": 3.8,
          "unit": "10*3/uL",
          "code": "10*3/uL"
        },
        "referenceRange": [
          {
            "low": {
              "value": 4,
              "code": "10*3/uL",
              "system": "http://unitsofmeasure.org"
            }
          },
          {
            "high": {
              "value": 11,
              "code": "10*3/uL",
              "system": "http://unitsofmeasure.org"
            }
          }
        ],
        "interpretation": [
          {
            "coding": [
              {
                "code": "L",
                "system": "http://terminology.hl7.org/CodeSystem/v3-ObservationInterpretation",
                "display": "Low"
              }
            ]
          }
        ],
        "text": {
          "status": "generated",
          "div": "<div xmlns=\"http://www.w3.org/1999/xhtml\"><table class=\"hl7__eu__lab__report\"><tr><th>Test</th><th>20-Jul-2018</th><th>Reference&#xA0;Range</th><th>Unit</th></tr><tr><td>Leukocytes [#/volume] in Blood by Automated count</td><td>3.8</td><td>4 - 11</td><td>L</td><td>10*3/uL</td></tr></table></div>"
        },
        "status": "final",
        "subject": {
          "reference": "urn:uuid:2368e1c4-af5a-47cd-a56f-13b1b855cbe6",
          "display": "Maria Nohlmans"
        },
        "effectiveDateTime": "2018-07-20T16:25:55Z",
        "specimen": {
          "reference": "urn:uuid:82baa009-1613-427d-89c8-0c598b450eeb"
        }
      }
    },
    {
      "fullUrl": "urn:uuid:f0db8471-e8b7-42d8-b596-416ca7736860",
      "resource": {
        "resourceType": "Observation",
        "id": "f0db8471-e8b7-42d8-b596-416ca7736860",
        "meta": {
          "profile": [
            "http://hl7.eu/fhir/laboratory/StructureDefinition/Observation-resultslab-eu-lab"
          ]
        },
        "performer": [
          {
            "display": "The Central European Lab"
          }
        ],
        "category": [
          {
            "coding": [
              {
                "system": "http://terminology.hl7.org/CodeSystem/observation-category",
                "code": "laboratory"
              }
            ]
          }
        ],
        "code": {
          "coding": [
            {
              "code": "789-8",
              "system": "http://loinc.org",
              "display": "Erythrocytes [#/volume] in Blood by Automated count"
            }
          ],
          "text": "Erythrocytes [#/volume] in Blood by Automated count"
        },
        "valueQuantity": {
          "system": "http://unitsofmeasure.org",
          "value": 4.4,
          "unit": "10*6/uL",
          "code": "10*6/uL"
        },
        "referenceRange": [
          {
            "low": {
              "value": 3.9,
              "code": "10*6/uL",
              "system": "http://unitsofmeasure.org"
            }
          },
          {
            "high": {
              "value": 5.2,
              "code": "10*6/uL",
              "system": "http://unitsofmeasure.org"
            }
          }
        ],
        "text": {
          "status": "generated",
          "div": "<div xmlns=\"http://www.w3.org/1999/xhtml\"><table class=\"hl7__eu__lab__report\"><tr><th>Test</th><th>20-Jul-2018</th><th>Reference&#xA0;Range</th><th>Unit</th></tr><tr><td>Erythrocytes [#/volume] in Blood by Automated count</td><td>4.4</td><td>3.9 - 5.2</td><td></td><td>10*6/uL</td></tr></table></div>"
        },
        "status": "final",
        "subject": {
          "reference": "urn:uuid:2368e1c4-af5a-47cd-a56f-13b1b855cbe6",
          "display": "Maria Nohlmans"
        },
        "effectiveDateTime": "2018-07-20T16:25:55Z",
        "specimen": {
          "reference": "urn:uuid:82baa009-1613-427d-89c8-0c598b450eeb"
        }
      }
    },
    {
      "fullUrl": "urn:uuid:e59b2b83-7d45-47a2-98c0-b6916c4168e0",
      "resource": {
        "resourceType": "Observation",
        "id": "e59b2b83-7d45-47a2-98c0-b6916c4168e0",
        "meta": {
          "profile": [
            "http://hl7.eu/fhir/laboratory/StructureDefinition/Observation-resultslab-eu-lab"
          ]
        },
        "performer": [
          {
            "display": "The Central European Lab"
          }
        ],
        "category": [
          {
            "coding": [
              {
                "system": "http://terminology.hl7.org/CodeSystem/observation-category",
                "code": "laboratory"
              }
            ]
          }
        ],
        "code": {
          "coding": [
            {
              "code": "718-7",
              "system": "http://loinc.org",
              "display": "Hemoglobin [Mass/volume] in Blood"
            }
          ],
          "text": "Hemoglobin [Mass/volume] in Blood"
        },
        "valueQuantity": {
          "system": "http://unitsofmeasure.org",
          "value": 16.7,
          "unit": "g/dL",
          "code": "g/dL"
        },
        "referenceRange": [
          {
            "low": {
              "value": 12,
              "code": "g/dL",
              "system": "http://unitsofmeasure.org"
            }
          },
          {
            "high": {
              "value": 15.5,
              "code": "g/dL",
              "system": "http://unitsofmeasure.org"
            }
          }
        ],
        "interpretation": [
          {
            "coding": [
              {
                "code": "H",
                "system": "http://terminology.hl7.org/CodeSystem/v3-ObservationInterpretation",
                "display": "High"
              }
            ]
          }
        ],
        "text": {
          "status": "generated",
          "div": "<div xmlns=\"http://www.w3.org/1999/xhtml\"><table class=\"hl7__eu__lab__report\"><tr><th>Test</th><th>20-Jul-2018</th><th>Reference&#xA0;Range</th><th>Unit</th></tr><tr><td>Hemoglobin [Mass/volume] in Blood</td><td>16.7</td><td>12 - 15.5</td><td>H</td><td>g/dL</td></tr></table></div>"
        },
        "status": "final",
        "subject": {
          "reference": "urn:uuid:2368e1c4-af5a-47cd-a56f-13b1b855cbe6",
          "display": "Maria Nohlmans"
        },
        "effectiveDateTime": "2018-07-20T16:25:55Z",
        "specimen": {
          "reference": "urn:uuid:82baa009-1613-427d-89c8-0c598b450eeb"
        }
      }
    },
    {
      "fullUrl": "urn:uuid:1413ea60-cbec-4d5e-99e0-67753489ec0a",
      "resource": {
        "resourceType": "Observation",
        "id": "1413ea60-cbec-4d5e-99e0-67753489ec0a",
        "meta": {
          "profile": [
            "http://hl7.eu/fhir/laboratory/StructureDefinition/Observation-resultslab-eu-lab"
          ]
        },
        "performer": [
          {
            "display": "The Central European Lab"
          }
        ],
        "category": [
          {
            "coding": [
              {
                "system": "http://terminology.hl7.org/CodeSystem/observation-category",
                "code": "laboratory"
              }
            ]
          }
        ],
        "code": {
          "coding": [
            {
              "code": "4544-3",
              "system": "http://loinc.org",
              "display": "Hematocrit [Volume Fraction] of Blood by Automated count"
            }
          ],
          "text": "Hematocrit [Volume Fraction] of Blood by Automated count"
        },
        "valueQuantity": {
          "system": "http://unitsofmeasure.org",
          "value": 39.6,
          "unit": "%",
          "code": "%"
        },
        "referenceRange": [
          {
            "low": {
              "value": 38,
              "code": "%",
              "system": "http://unitsofmeasure.org"
            }
          },
          {
            "high": {
              "value": 54,
              "code": "%",
              "system": "http://unitsofmeasure.org"
            }
          }
        ],
        "text": {
          "status": "generated",
          "div": "<div xmlns=\"http://www.w3.org/1999/xhtml\"><table class=\"hl7__eu__lab__report\"><tr><th>Test</th><th>20-Jul-2018</th><th>Reference&#xA0;Range</th><th>Unit</th></tr><tr><td>Hematocrit [Volume Fraction] of Blood by Automated count</td><td>39.6</td><td>38 - 54</td><td></td><td>%</td></tr></table></div>"
        },
        "status": "final",
        "subject": {
          "reference": "urn:uuid:2368e1c4-af5a-47cd-a56f-13b1b855cbe6",
          "display": "Maria Nohlmans"
        },
        "effectiveDateTime": "2018-07-20T16:25:55Z",
        "specimen": {
          "reference": "urn:uuid:82baa009-1613-427d-89c8-0c598b450eeb"
        }
      }
    },
    {
      "fullUrl": "urn:uuid:091b2456-380b-4ef8-8549-fa0b64c84062",
      "resource": {
        "resourceType": "Observation",
        "id": "091b2456-380b-4ef8-8549-fa0b64c84062",
        "meta": {
          "profile": [
            "http://hl7.eu/fhir/laboratory/StructureDefinition/Observation-resultslab-eu-lab"
          ]
        },
        "performer": [
          {
            "display": "The Central European Lab"
          }
        ],
        "category": [
          {
            "coding": [
              {
                "system": "http://terminology.hl7.org/CodeSystem/observation-category",
                "code": "laboratory"
              }
            ]
          }
        ],
        "code": {
          "coding": [
            {
              "code": "787-2",
              "system": "http://loinc.org",
              "display": "MCV [Entitic volume] by Automated count"
            }
          ],
          "text": "MCV [Entitic volume] by Automated count"
        },
        "valueQuantity": {
          "system": "http://unitsofmeasure.org",
          "value": 83.6,
          "unit": "fL",
          "code": "fL"
        },
        "referenceRange": [
          {
            "low": {
              "value": 78,
              "code": "fL",
              "system": "http://unitsofmeasure.org"
            }
          },
          {
            "high": {
              "value": 98,
              "code": "fL",
              "system": "http://unitsofmeasure.org"
            }
          }
        ],
        "text": {
          "status": "generated",
          "div": "<div xmlns=\"http://www.w3.org/1999/xhtml\"><table class=\"hl7__eu__lab__report\"><tr><th>Test</th><th>20-Jul-2018</th><th>Reference&#xA0;Range</th><th>Unit</th></tr><tr><td>MCV [Entitic volume] by Automated count</td><td>83.6</td><td>78 - 98</td><td></td><td>fL</td></tr></table></div>"
        },
        "status": "final",
        "subject": {
          "reference": "urn:uuid:2368e1c4-af5a-47cd-a56f-13b1b855cbe6",
          "display": "Maria Nohlmans"
        },
        "effectiveDateTime": "2018-07-20T16:25:55Z",
        "specimen": {
          "reference": "urn:uuid:82baa009-1613-427d-89c8-0c598b450eeb"
        }
      }
    },
    {
      "fullUrl": "urn:uuid:752eb2a4-39e6-4cde-8417-79900c1f2464",
      "resource": {
        "resourceType": "Observation",
        "id": "752eb2a4-39e6-4cde-8417-79900c1f2464",
        "meta": {
          "profile": [
            "http://hl7.eu/fhir/laboratory/StructureDefinition/Observation-resultslab-eu-lab"
          ]
        },
        "performer": [
          {
            "display": "The Central European Lab"
          }
        ],
        "category": [
          {
            "coding": [
              {
                "system": "http://terminology.hl7.org/CodeSystem/observation-category",
                "code": "laboratory"
              }
            ]
          }
        ],
        "code": {
          "coding": [
            {
              "code": "785-6",
              "system": "http://loinc.org",
              "display": "MCH [Entitic mass] by Automated count"
            }
          ],
          "text": "MCH [Entitic mass] by Automated count"
        },
        "valueQuantity": {
          "system": "http://unitsofmeasure.org",
          "value": 31.4,
          "unit": "pg",
          "code": "pg"
        },
        "referenceRange": [
          {
            "low": {
              "value": 27,
              "code": "pg",
              "system": "http://unitsofmeasure.org"
            }
          },
          {
            "high": {
              "value": 33,
              "code": "pg",
              "system": "http://unitsofmeasure.org"
            }
          }
        ],
        "text": {
          "status": "generated",
          "div": "<div xmlns=\"http://www.w3.org/1999/xhtml\"><table class=\"hl7__eu__lab__report\"><tr><th>Test</th><th>20-Jul-2018</th><th>Reference&#xA0;Range</th><th>Unit</th></tr><tr><td>MCH [Entitic mass] by Automated count</td><td>31.4</td><td>27 - 33</td><td></td><td>pg</td></tr></table></div>"
        },
        "status": "final",
        "subject": {
          "reference": "urn:uuid:2368e1c4-af5a-47cd-a56f-13b1b855cbe6",
          "display": "Maria Nohlmans"
        },
        "effectiveDateTime": "2018-07-20T16:25:55Z",
        "specimen": {
          "reference": "urn:uuid:82baa009-1613-427d-89c8-0c598b450eeb"
        }
      }
    },
    {
      "fullUrl": "urn:uuid:2b6da202-17a9-4490-a48c-39f6414a5221",
      "resource": {
        "resourceType": "Observation",
        "id": "2b6da202-17a9-4490-a48c-39f6414a5221",
        "meta": {
          "profile": [
            "http://hl7.eu/fhir/laboratory/StructureDefinition/Observation-resultslab-eu-lab"
          ]
        },
        "performer": [
          {
            "display": "The Central European Lab"
          }
        ],
        "category": [
          {
            "coding": [
              {
                "system": "http://terminology.hl7.org/CodeSystem/observation-category",
                "code": "laboratory"
              }
            ]
          }
        ],
        "code": {
          "coding": [
            {
              "code": "786-4",
              "system": "http://loinc.org",
              "display": "MCHC [Mass/volume] by Automated count"
            }
          ],
          "text": "MCHC [Mass/volume] by Automated count"
        },
        "valueQuantity": {
          "system": "http://unitsofmeasure.org",
          "value": 34.7,
          "unit": "g/dL",
          "code": "g/dL"
        },
        "referenceRange": [
          {
            "low": {
              "value": 31,
              "code": "g/dL",
              "system": "http://unitsofmeasure.org"
            }
          },
          {
            "high": {
              "value": 35,
              "code": "g/dL",
              "system": "http://unitsofmeasure.org"
            }
          }
        ],
        "text": {
          "status": "generated",
          "div": "<div xmlns=\"http://www.w3.org/1999/xhtml\"><table class=\"hl7__eu__lab__report\"><tr><th>Test</th><th>20-Jul-2018</th><th>Reference&#xA0;Range</th><th>Unit</th></tr><tr><td>MCHC [Mass/volume] by Automated count</td><td>34.7</td><td>31 - 35</td><td></td><td>g/dL</td></tr></table></div>"
        },
        "status": "final",
        "subject": {
          "reference": "urn:uuid:2368e1c4-af5a-47cd-a56f-13b1b855cbe6",
          "display": "Maria Nohlmans"
        },
        "effectiveDateTime": "2018-07-20T16:25:55Z",
        "specimen": {
          "reference": "urn:uuid:82baa009-1613-427d-89c8-0c598b450eeb"
        }
      }
    },
    {
      "fullUrl": "urn:uuid:a2bf373a-6fba-4813-a74b-fe33b8f56bda",
      "resource": {
        "resourceType": "Observation",
        "id": "a2bf373a-6fba-4813-a74b-fe33b8f56bda",
        "meta": {
          "profile": [
            "http://hl7.eu/fhir/laboratory/StructureDefinition/Observation-resultslab-eu-lab"
          ]
        },
        "performer": [
          {
            "display": "The Central European Lab"
          }
        ],
        "category": [
          {
            "coding": [
              {
                "system": "http://terminology.hl7.org/CodeSystem/observation-category",
                "code": "laboratory"
              }
            ]
          }
        ],
        "code": {
          "coding": [
            {
              "code": "21000-5",
              "system": "http://loinc.org",
              "display": "Erythrocyte distribution width [Entitic volume] by Automated count"
            }
          ],
          "text": "Erythrocyte distribution width [Entitic volume] by Automated count"
        },
        "valueQuantity": {
          "system": "http://unitsofmeasure.org",
          "value": 45.3,
          "unit": "fL",
          "code": "fL"
        },
        "referenceRange": [
          {
            "low": {
              "value": 36,
              "code": "fL",
              "system": "http://unitsofmeasure.org"
            }
          },
          {
            "high": {
              "value": 56,
              "code": "fL",
              "system": "http://unitsofmeasure.org"
            }
          }
        ],
        "text": {
          "status": "generated",
          "div": "<div xmlns=\"http://www.w3.org/1999/xhtml\"><table class=\"hl7__eu__lab__report\"><tr><th>Test</th><th>20-Jul-2018</th><th>Reference&#xA0;Range</th><th>Unit</th></tr><tr><td>Erythrocyte distribution width [Entitic volume] by Automated count</td><td>45.3</td><td>36 - 56</td><td></td><td>fL</td></tr></table></div>"
        },
        "status": "final",
        "subject": {
          "reference": "urn:uuid:2368e1c4-af5a-47cd-a56f-13b1b855cbe6",
          "display": "Maria Nohlmans"
        },
        "effectiveDateTime": "2018-07-20T16:25:55Z",
        "specimen": {
          "reference": "urn:uuid:82baa009-1613-427d-89c8-0c598b450eeb"
        }
      }
    },
    {
      "fullUrl": "urn:uuid:edd5aeb2-7dd9-4064-acb0-dd0fd253526b",
      "resource": {
        "resourceType": "Observation",
        "id": "edd5aeb2-7dd9-4064-acb0-dd0fd253526b",
        "meta": {
          "profile": [
            "http://hl7.eu/fhir/laboratory/StructureDefinition/Observation-resultslab-eu-lab"
          ]
        },
        "performer": [
          {
            "display": "The Central European Lab"
          }
        ],
        "category": [
          {
            "coding": [
              {
                "system": "http://terminology.hl7.org/CodeSystem/observation-category",
                "code": "laboratory"
              }
            ]
          }
        ],
        "code": {
          "coding": [
            {
              "code": "777-3",
              "system": "http://loinc.org",
              "display": "Platelets [#/volume] in Blood by Automated count"
            }
          ],
          "text": "Platelets [#/volume] in Blood by Automated count"
        },
        "valueQuantity": {
          "system": "http://unitsofmeasure.org",
          "value": 437.7,
          "unit": "10*3/uL",
          "code": "10*3/uL"
        },
        "referenceRange": [
          {
            "low": {
              "value": 150,
              "code": "10*3/uL",
              "system": "http://unitsofmeasure.org"
            }
          },
          {
            "high": {
              "value": 450,
              "code": "10*3/uL",
              "system": "http://unitsofmeasure.org"
            }
          }
        ],
        "text": {
          "status": "generated",
          "div": "<div xmlns=\"http://www.w3.org/1999/xhtml\"><table class=\"hl7__eu__lab__report\"><tr><th>Test</th><th>20-Jul-2018</th><th>Reference&#xA0;Range</th><th>Unit</th></tr><tr><td>Platelets [#/volume] in Blood by Automated count</td><td>437.7</td><td>150 - 450</td><td></td><td>10*3/uL</td></tr></table></div>"
        },
        "status": "final",
        "subject": {
          "reference": "urn:uuid:2368e1c4-af5a-47cd-a56f-13b1b855cbe6",
          "display": "Maria Nohlmans"
        },
        "effectiveDateTime": "2018-07-20T16:25:55Z",
        "specimen": {
          "reference": "urn:uuid:82baa009-1613-427d-89c8-0c598b450eeb"
        }
      }
    },
    {
      "fullUrl": "urn:uuid:bee3ff77-c8ed-4499-8ae1-1613a1653894",
      "resource": {
        "resourceType": "Observation",
        "id": "bee3ff77-c8ed-4499-8ae1-1613a1653894",
        "meta": {
          "profile": [
            "http://hl7.eu/fhir/laboratory/StructureDefinition/Observation-resultslab-eu-lab"
          ]
        },
        "performer": [
          {
            "display": "The Central European Lab"
          }
        ],
        "category": [
          {
            "coding": [
              {
                "system": "http://terminology.hl7.org/CodeSystem/observation-category",
                "code": "laboratory"
              }
            ]
          }
        ],
        "code": {
          "coding": [
            {
              "code": "32207-3",
              "system": "http://loinc.org",
              "display": "Platelet distribution width [Entitic volume] in Blood by Automated count"
            }
          ],
          "text": "Platelet distribution width [Entitic volume] in Blood by Automated count"
        },
        "valueQuantity": {
          "system": "http://unitsofmeasure.org",
          "value": 407.2,
          "unit": "fL",
          "code": "fL"
        },
        "referenceRange": [
          {
            "low": {
              "value": 15.5,
              "code": "fL",
              "system": "http://unitsofmeasure.org"
            }
          },
          {
            "high": {
              "value": 450,
              "code": "fL",
              "system": "http://unitsofmeasure.org"
            }
          }
        ],
        "text": {
          "status": "generated",
          "div": "<div xmlns=\"http://www.w3.org/1999/xhtml\"><table class=\"hl7__eu__lab__report\"><tr><th>Test</th><th>20-Jul-2018</th><th>Reference&#xA0;Range</th><th>Unit</th></tr><tr><td>Platelet distribution width [Entitic volume] in Blood by Automated count</td><td>407.2</td><td>15.5 - 450</td><td></td><td>fL</td></tr></table></div>"
        },
        "status": "final",
        "subject": {
          "reference": "urn:uuid:2368e1c4-af5a-47cd-a56f-13b1b855cbe6",
          "display": "Maria Nohlmans"
        },
        "effectiveDateTime": "2018-07-20T16:25:55Z",
        "specimen": {
          "reference": "urn:uuid:82baa009-1613-427d-89c8-0c598b450eeb"
        }
      }
    },
    {
      "fullUrl": "urn:uuid:d41fa57e-1072-428e-b731-8a9b4c865a42",
      "resource": {
        "resourceType": "Observation",
        "id": "d41fa57e-1072-428e-b731-8a9b4c865a42",
        "meta": {
          "profile": [
            "http://hl7.eu/fhir/laboratory/StructureDefinition/Observation-resultslab-eu-lab"
          ]
        },
        "performer": [
          {
            "display": "The Central European Lab"
          }
        ],
        "category": [
          {
            "coding": [
              {
                "system": "http://terminology.hl7.org/CodeSystem/observation-category",
                "code": "laboratory"
              }
            ]
          }
        ],
        "code": {
          "coding": [
            {
              "code": "32623-1",
              "system": "http://loinc.org",
              "display": "Platelet mean volume [Entitic volume] in Blood by Automated count"
            }
          ],
          "text": "Platelet mean volume [Entitic volume] in Blood by Automated count"
        },
        "valueQuantity": {
          "system": "http://unitsofmeasure.org",
          "value": 11.5,
          "unit": "fL",
          "code": "fL"
        },
        "referenceRange": [
          {
            "low": {
              "value": 7.2,
              "code": "fL",
              "system": "http://unitsofmeasure.org"
            }
          },
          {
            "high": {
              "value": 13.5,
              "code": "fL",
              "system": "http://unitsofmeasure.org"
            }
          }
        ],
        "text": {
          "status": "generated",
          "div": "<div xmlns=\"http://www.w3.org/1999/xhtml\"><table class=\"hl7__eu__lab__report\"><tr><th>Test</th><th>20-Jul-2018</th><th>Reference&#xA0;Range</th><th>Unit</th></tr><tr><td>Platelet mean volume [Entitic volume] in Blood by Automated count</td><td>11.5</td><td>7.2 - 13.5</td><td></td><td>fL</td></tr></table></div>"
        },
        "status": "final",
        "subject": {
          "reference": "urn:uuid:2368e1c4-af5a-47cd-a56f-13b1b855cbe6",
          "display": "Maria Nohlmans"
        },
        "effectiveDateTime": "2018-07-20T16:25:55Z",
        "specimen": {
          "reference": "urn:uuid:82baa009-1613-427d-89c8-0c598b450eeb"
        }
      }
    },
    {
      "fullUrl": "urn:uuid:ad573d32-7b5e-4176-a9e5-3035600986f6",
      "resource": {
        "resourceType": "Device",
        "id": "ad573d32-7b5e-4176-a9e5-3035600986f6",
        "deviceName": [
          {
            "name": "SYNDERAI Synthetic Generator",
            "type": "manufacturer-name"
          }
        ],
        "version": [
          {
            "value": "5.0"
          }
        ],
        "text": {
          "status": "generated",
          "div": "<div xmlns=\"http://www.w3.org/1999/xhtml\">SYNDERAI Synthetic Generator v5.0</div>"
        },
        "status": "active\"",
        "distinctIdentifier": "synderai-generator-50",
        "manufacturer": "SYNDERAI Project"
      }
    },
    {
      "fullUrl": "urn:uuid:7507ab59-6677-4420-9473-acb1e5add83e",
      "resource": {
        "resourceType": "Provenance",
        "id": "7507ab59-6677-4420-9473-acb1e5add83e",
        "target": [
          {
            "reference": "Patient/2368e1c4-af5a-47cd-a56f-13b1b855cbe6"
          },
          {
            "reference": "Bundle/776f01b5-6868-49f2-acc0-71e0a715121e"
          },
          {
            "reference": "Composition/cb2d5cad-c1ec-4976-8f0b-febdc05fa1d9"
          },
          {
            "reference": "PractitionerRole/760dce51-9a92-43b9-93a9-cfc661a0642f"
          },
          {
            "reference": "Practitioner/91156cab-d343-488b-bfb5-b9c32d437c5c"
          },
          {
            "reference": "PractitionerRole/cb57cd1a-d8c9-4a40-a8ac-ae43c9f5cd52"
          },
          {
            "reference": "Organization/68b10744-560d-4f20-9e54-faded5528bbb"
          }
        ],
        "activity": {
          "text": "Synthetic Example Data Generation"
        },
        "policy": [
          "https://synderai.net/synderai-synthetic-data-policy"
        ],
        "agent": [
          {
            "type": {
              "text": "author"
            },
            "who": {
              "reference": "Device/ad573d32-7b5e-4176-a9e5-3035600986f6"
            }
          }
        ],
        "reason": [
          {
            "text": "Interoperability Testing and Training (non-clinical use)"
          }
        ],
        "text": {
          "status": "generated",
          "div": "<div xmlns=\"http://www.w3.org/1999/xhtml\">Provenance for SYNDERAI Synthetic Example Data Resource</div>"
        },
        "recorded": "2018-07-20T18:25:55Z"
      }
    },
    {
      "fullUrl": "urn:uuid:760dce51-9a92-43b9-93a9-cfc661a0642f",
      "resource": {
        "resourceType": "PractitionerRole",
        "id": "760dce51-9a92-43b9-93a9-cfc661a0642f",
        "meta": {
          "profile": [
            "http://hl7.eu/fhir/base/StructureDefinition/practitionerRole-eu"
          ]
        },
        "text": {
          "status": "generated",
          "div": "<div xmlns=\"http://www.w3.org/1999/xhtml\">Laboratory Role Id: 760dce51-9a92-43b9-93a9-cfc661a0642f</div>"
        },
        "practitioner": {
          "reference": "urn:uuid:91156cab-d343-488b-bfb5-b9c32d437c5c"
        }
      }
    },
    {
      "fullUrl": "urn:uuid:91156cab-d343-488b-bfb5-b9c32d437c5c",
      "resource": {
        "resourceType": "Practitioner",
        "id": "91156cab-d343-488b-bfb5-b9c32d437c5c",
        "meta": {
          "profile": [
            "http://hl7.eu/fhir/base/StructureDefinition/practitioner-eu"
          ]
        },
        "identifier": [
          {
            "assigner": {
              "display": "HL7 Europe"
            },
            "system": "urn:oid:2.16.840.1.113883.2.51.999",
            "value": "6e3cca2a-a958-4ccd-b588-6d720481b409"
          }
        ],
        "name": [
          {
            "prefix": [
              "dr"
            ],
            "given": [
              "Ex"
            ],
            "family": "Ample"
          }
        ],
        "address": [
          {
            "line": [
              "Laboratoire Central Européenne",
              "Boulevard du Jardin Botanique 32"
            ],
            "postalCode": "1000",
            "city": "Brussels",
            "country": "Belgium"
          }
        ],
        "text": {
          "status": "generated",
          "div": "<div xmlns=\"http://www.w3.org/1999/xhtml\">Laboratory: Laboratoire Central Européenne, 1000 Brussels, Belgium</div>"
        }
      }
    }
  ],
  "type": "document",
  "timestamp": "2018-07-20T18:25:55Z"
}
