{
  "resourceType": "Bundle",
  "id": "19579f52-6559-41e8-9667-5760f1f958f8",
  "meta": {
    "profile": [
      "http://hl7.eu/fhir/laboratory/StructureDefinition/Bundle-eu-lab"
    ]
  },
  "identifier": {
    "assigner": {
      "display": "HL7 Europe"
    },
    "system": "urn:oid:2.16.840.1.113883.2.51.999",
    "value": "5f362f0a-76ba-482a-836b-0a558578fc1c"
  },
  "entry": [
    {
      "fullUrl": "urn:uuid:f60fdc5b-709f-437a-845a-c7d4c4b1c27f",
      "resource": {
        "resourceType": "Composition",
        "id": "f60fdc5b-709f-437a-845a-c7d4c4b1c27f",
        "meta": {
          "profile": [
            "http://hl7.eu/fhir/laboratory/StructureDefinition/Composition-eu-lab"
          ]
        },
        "identifier": {
          "assigner": {
            "display": "HL7 Europe"
          },
          "system": "urn:oid:2.16.840.1.113883.2.51.999",
          "value": "9ce13e03-79d8-423c-a7b0-986f217421d7"
        },
        "author": [
          {
            "reference": "urn:uuid:f066ef52-01ef-44eb-aa0f-9c8cdd478306"
          }
        ],
        "category": [
          {
            "coding": [
              {
                "code": "26436-6",
                "system": "http://loinc.org",
                "display": "Laboratory studies (set)"
              }
            ]
          }
        ],
        "type": {
          "coding": [
            {
              "code": "11502-2",
              "system": "http://loinc.org",
              "display": "Laboratory report"
            }
          ],
          "text": "Laboratory Report"
        },
        "section": [
          {
            "code": {
              "coding": [
                {
                  "code": "26436-6",
                  "system": "http://loinc.org",
                  "display": "Laboratory studies (set)"
                }
              ],
              "text": "Laboratory studies"
            },
            "section": [
              {
                "code": {
                  "coding": [
                    {
                      "code": "$18719-5",
                      "system": "http://loinc.org",
                      "display": "Chemistry studies (set)"
                    }
                  ],
                  "text": "Chemistry"
                },
                "entry": [
                  {
                    "reference": "urn:uuid:eab681d3-f8c6-4804-b3db-6159356147c1"
                  },
                  {
                    "reference": "urn:uuid:af7b7a24-2285-469b-907a-ba752905fb9b"
                  },
                  {
                    "reference": "urn:uuid:4bfc652d-87f3-4da3-a5c9-ca4832733728"
                  },
                  {
                    "reference": "urn:uuid:8f25a711-308c-4745-8ee3-d3c93b749d87"
                  },
                  {
                    "reference": "urn:uuid:4713ebe3-f0ba-44ac-ac28-7c4770a9cf8f"
                  },
                  {
                    "reference": "urn:uuid:af1e5c7a-75cb-42c7-a2aa-15a7897c0374"
                  },
                  {
                    "reference": "urn:uuid:94e91351-2f41-46c4-b39e-74d77822fec7"
                  },
                  {
                    "reference": "urn:uuid:9a8fd9e3-0db8-4b2f-9431-968cb556a3f0"
                  },
                  {
                    "reference": "urn:uuid:e2a751b2-16ed-4069-a837-c796d935b4da"
                  },
                  {
                    "reference": "urn:uuid:f7eaec94-b1ad-44df-a967-6ddf7eda529f"
                  },
                  {
                    "reference": "urn:uuid:c6de332c-de97-49fb-a365-85ba1f747c34"
                  },
                  {
                    "reference": "urn:uuid:5c0c42a5-0008-4c0f-80bb-4ca74ed62429"
                  },
                  {
                    "reference": "urn:uuid:8232485a-78c2-446f-9c18-d42ad63af6e7"
                  },
                  {
                    "reference": "urn:uuid:1edecffc-c815-4434-ac3f-0de81a189c21"
                  },
                  {
                    "reference": "urn:uuid:b297a06f-e965-47f7-9afb-45133c916db0"
                  },
                  {
                    "reference": "urn:uuid:5c2e6df6-1a89-42ce-a72f-62c539b41164"
                  },
                  {
                    "reference": "urn:uuid:b8bd5f9d-d969-4f99-897a-7d926dc91668"
                  },
                  {
                    "reference": "urn:uuid:3b64cea9-4696-4b5c-be39-b07250f20989"
                  }
                ],
                "text": {
                  "status": "generated",
                  "div": "<div xmlns=\"http://www.w3.org/1999/xhtml\"><h3>Chemistry</h3><table class=\"hl7__eu__lab__report\"><thead><tr><th>Test</th><th>16-JUL-2020</th><th>Reference&#xA0;Range</th><th>Unit</th></tr></thead><tbody><tr><td>Glucose [Mass/volume] in Serum or Plasma</td><td>73.2</td><td>70 - 140</td><td>mg/dL</td></tr><tr><td>Urea nitrogen [Mass/volume] in Serum or Plasma</td><td>10.9</td><td>7 - 25</td><td>mg/dL</td></tr><tr><td>Creatinine [Mass/volume] in Serum or Plasma</td><td><strong>2.1 H</strong></td><td>0.9 - 1.3</td><td>mg/dL</td></tr><tr><td>Calcium [Mass/volume] in Serum or Plasma</td><td>9.2</td><td>8.5 - 10.5</td><td>mg/dL</td></tr><tr><td>Sodium [Moles/volume] in Serum or Plasma</td><td>141.2</td><td>135 - 145</td><td>mmol/L</td></tr><tr><td>Potassium [Moles/volume] in Serum or Plasma</td><td>4.9</td><td>3.5 - 5.3</td><td>mmol/L</td></tr><tr><td>Chloride [Moles/volume] in Serum or Plasma</td><td>105.2</td><td>98 - 107</td><td>mmol/L</td></tr><tr><td>Carbon dioxide, total [Moles/volume] in Serum or Plasma</td><td>28.0</td><td>22 - 29</td><td>mmol/L</td></tr><tr><td>Ketones [Presence] in Urine by Test strip</td><td>Urine ketone test = +</td><td></td><td></td></tr><tr><td>Hemoglobin A1c/Hemoglobin.total in Blood</td><td><strong>3.2 L</strong></td><td>4.5 - 6.4</td><td>%</td></tr><tr><td>Glucose [Mass/volume] in Blood</td><td>73.2</td><td>70 - 140</td><td>mg/dL</td></tr><tr><td>Urea nitrogen [Mass/volume] in Blood</td><td>10.9</td><td>7 - 25</td><td>mg/dL</td></tr><tr><td>Creatinine [Mass/volume] in Blood</td><td><strong>2.3 H</strong></td><td>0.9 - 1.3</td><td>mg/dL</td></tr><tr><td>Calcium [Mass/volume] in Blood</td><td>9.2</td><td>8.6 - 10.2</td><td>mg/dL</td></tr><tr><td>Sodium [Moles/volume] in Blood</td><td>141.2</td><td>135 - 145</td><td>mmol/L</td></tr><tr><td>Potassium [Moles/volume] in Blood</td><td>4.9</td><td>3.5 - 5.1</td><td>mmol/L</td></tr><tr><td>Chloride [Moles/volume] in Blood</td><td>105.2</td><td>98 - 108</td><td>mmol/L</td></tr><tr><td>Carbon dioxide, total [Moles/volume] in Blood</td><td>28.0</td><td>22 - 32</td><td>mmol/L</td></tr></tbody></table></div>"
                },
                "title": "Chemistry"
              },
              {
                "code": {
                  "coding": [
                    {
                      "code": "$18729-4",
                      "system": "http://loinc.org",
                      "display": "Urinalysis studies (set)"
                    }
                  ],
                  "text": "Urinalysis"
                },
                "entry": [
                  {
                    "reference": "urn:uuid:e053f7e7-43b8-4388-882a-25451bbde0aa"
                  },
                  {
                    "reference": "urn:uuid:a51534c9-3b1f-410f-876b-71ac3fb111cb"
                  },
                  {
                    "reference": "urn:uuid:48639832-213e-4f25-aded-f0a6a85dfcbe"
                  },
                  {
                    "reference": "urn:uuid:b564e36d-a9f3-4460-9aff-5f53d3e2c105"
                  },
                  {
                    "reference": "urn:uuid:32a0dcee-2b4e-431c-b21f-9ab12de95839"
                  },
                  {
                    "reference": "urn:uuid:19ac3fbf-23d8-43f1-bea9-8e80037db619"
                  },
                  {
                    "reference": "urn:uuid:5ad268fe-1671-4fdd-9e2d-5d1f472e81cb"
                  },
                  {
                    "reference": "urn:uuid:91cb3d27-6d0c-43e5-8417-607abb466300"
                  },
                  {
                    "reference": "urn:uuid:366e759f-8bc6-4c33-9801-8d84960b8cb7"
                  },
                  {
                    "reference": "urn:uuid:197257a6-529e-4091-bd98-e4cf83f06ed3"
                  },
                  {
                    "reference": "urn:uuid:c567d5de-0bdc-4dd7-9064-4a6163a0f40e"
                  },
                  {
                    "reference": "urn:uuid:16a3c81a-a8ab-44d1-863a-f5e9f2cb64a9"
                  }
                ],
                "text": {
                  "status": "generated",
                  "div": "<div xmlns=\"http://www.w3.org/1999/xhtml\"><h3>Urinalysis</h3><table class=\"hl7__eu__lab__report\"><thead><tr><th>Test</th><th>16-JUL-2020</th><th>Reference&#xA0;Range</th><th>Unit</th></tr></thead><tbody><tr><td>Glucose [Mass/volume] in Urine by Test strip</td><td><strong>1.8 H</strong></td><td>0.8 - 0</td><td>mg/dL</td></tr><tr><td>Glucose [Presence] in Urine by Test strip</td><td>++</td><td></td><td></td></tr><tr><td>Bilirubin.total [Mass/volume] in Urine by Test strip</td><td>0.9</td><td>0.2 - 1.5</td><td>mg/dL</td></tr><tr><td>Bilirubin.total [Presence] in Urine by Test strip</td><td>Finding of bilirubin in urine</td><td></td><td></td></tr><tr><td>Ketones [Mass/volume] in Urine by Test strip</td><td><strong>10.3 H</strong></td><td>0 - 4</td><td>mg/dL</td></tr><tr><td>Specific gravity of Urine by Test strip</td><td><strong>1.0 L</strong></td><td>1.01 - 1.03</td><td>{nominal}</td></tr><tr><td>pH of Urine by Test strip</td><td>6.4</td><td>4.5 - 7.5</td><td>pH</td></tr><tr><td>Protein [Mass/volume] in Urine by Test strip</td><td><strong>261.6 H</strong></td><td>0 - 150</td><td>mg/dL</td></tr><tr><td>Protein [Presence] in Urine by Test strip</td><td>Urine protein test = ++</td><td></td><td></td></tr><tr><td>Nitrite [Presence] in Urine by Test strip</td><td>Urine nitrite negative</td><td></td><td></td></tr><tr><td>Hemoglobin [Presence] in Urine by Test strip</td><td>Urine blood test = negative</td><td></td><td></td></tr><tr><td>Leukocyte esterase [Presence] in Urine by Test strip</td><td>Urine leukocyte test negative</td><td></td><td></td></tr></tbody></table></div>"
                },
                "title": "Urinalysis"
              },
              {
                "code": {
                  "coding": [
                    {
                      "code": "$LP7846-1",
                      "system": "http://loinc.org",
                      "display": "Specimen information"
                    }
                  ],
                  "text": "Specimen information"
                },
                "entry": [
                  {
                    "reference": "urn:uuid:b8ca192a-9614-4e70-a922-b0d541b5c3b6"
                  },
                  {
                    "reference": "urn:uuid:014f3636-6381-4cbd-8aa4-2e244423d7be"
                  },
                  {
                    "reference": "urn:uuid:2e85da65-e88b-4581-89fd-14c5a35a5f76"
                  },
                  {
                    "reference": "urn:uuid:150052af-8e6b-4750-816f-cb69765be238"
                  }
                ],
                "text": {
                  "status": "generated",
                  "div": "<div xmlns=\"http://www.w3.org/1999/xhtml\"><h3>Specimen information</h3><table class=\"hl7__eu__lab__report\"><thead><tr><th>Test</th><th>16-JUL-2020</th><th>Specimen</th><th></th></tr></thead><tbody><tr><td>Appearance of Urine</td><td>Cloudy urine</td><td>Urine</td><td></td></tr><tr><td>Odor of Urine</td><td>Urine smell ammoniacal</td><td>Urine</td><td></td></tr><tr><td>Clarity of Urine</td><td>Translucent</td><td>Urine</td><td></td></tr><tr><td>Color of Urine</td><td>Brown color</td><td>Urine</td><td></td></tr></tbody></table></div>"
                },
                "title": "Specimen information"
              }
            ],
            "title": "Laboratory Report"
          },
          {
            "text": {
              "status": "generated",
              "div": "<div xmlns=\"http://www.w3.org/1999/xhtml\"><h3>Annotation</h3><table class=\"hl7__eu__lab__report\"><tr><th>Conclusion and Recommendations based on this report and previous findings known to us</th></tr><tr><td>The patient shows elevated creatinine, proteinuria, glucosuria, and ketonuria, suggesting impaired renal function and possible diabetic or metabolic disturbance, despite low HbA1c. Urine is cloudy, brown, and has low specific gravity, indicating possible renal concentrating defect or tubular dysfunction. No evidence of infection (negative nitrites/leukocytes). Recommend further evaluation for renal impairment, possible acute or chronic kidney disease, and assessment for underlying metabolic or endocrine disorders.</td></tr></table></div>"
            },
            "code": {
              "coding": [
                {
                  "system": "http://loinc.org",
                  "code": "48767-8",
                  "display": "Annotation comment"
                }
              ]
            },
            "title": "Annotation comment"
          }
        ],
        "status": "final",
        "subject": {
          "reference": "urn:uuid:d289351d-c9b7-4f5a-a422-48996510ca7d",
          "display": "Pelayo Casal"
        },
        "date": "2020-07-16T07:38:59Z",
        "title": "Laboratory Report",
        "confidentiality": "N"
      }
    },
    {
      "fullUrl": "urn:uuid:9fc44732-fe7c-4dfe-b989-7da72347b3b9",
      "resource": {
        "resourceType": "DiagnosticReport",
        "id": "9fc44732-fe7c-4dfe-b989-7da72347b3b9",
        "meta": {
          "profile": [
            "http://hl7.eu/fhir/laboratory/StructureDefinition/DiagnosticReport-eu-lab"
          ]
        },
        "identifier": [
          {
            "assigner": {
              "display": "HL7 Europe"
            },
            "system": "urn:oid:2.16.840.1.113883.2.51.999",
            "value": "2c423478-e2a3-4e4a-9ffb-ca73c5b3ac0a"
          }
        ],
        "extension": [
          {
            "url": "http://hl7.org/fhir/5.0/StructureDefinition/extension-DiagnosticReport.composition",
            "valueReference": {
              "reference": "urn:uuid:9ce13e03-79d8-423c-a7b0-986f217421d7"
            }
          }
        ],
        "category": [
          {
            "coding": [
              {
                "code": "26436-6",
                "system": "http://loinc.org",
                "display": "Laboratory studies (set)"
              }
            ]
          }
        ],
        "specimen": [
          {
            "reference": "urn:uuid:979aa5d4-4e4a-4410-ad26-c8d0bb78f536"
          },
          {
            "reference": "urn:uuid:ad3e749e-8fb1-44aa-bd9c-4e223111d1a9"
          },
          {
            "reference": "urn:uuid:ddc4e302-3d3e-4288-a3e4-cf60c39c3ea7"
          }
        ],
        "result": [
          {
            "reference": "urn:uuid:eab681d3-f8c6-4804-b3db-6159356147c1"
          },
          {
            "reference": "urn:uuid:af7b7a24-2285-469b-907a-ba752905fb9b"
          },
          {
            "reference": "urn:uuid:4bfc652d-87f3-4da3-a5c9-ca4832733728"
          },
          {
            "reference": "urn:uuid:8f25a711-308c-4745-8ee3-d3c93b749d87"
          },
          {
            "reference": "urn:uuid:4713ebe3-f0ba-44ac-ac28-7c4770a9cf8f"
          },
          {
            "reference": "urn:uuid:af1e5c7a-75cb-42c7-a2aa-15a7897c0374"
          },
          {
            "reference": "urn:uuid:94e91351-2f41-46c4-b39e-74d77822fec7"
          },
          {
            "reference": "urn:uuid:9a8fd9e3-0db8-4b2f-9431-968cb556a3f0"
          },
          {
            "reference": "urn:uuid:b8ca192a-9614-4e70-a922-b0d541b5c3b6"
          },
          {
            "reference": "urn:uuid:014f3636-6381-4cbd-8aa4-2e244423d7be"
          },
          {
            "reference": "urn:uuid:2e85da65-e88b-4581-89fd-14c5a35a5f76"
          },
          {
            "reference": "urn:uuid:150052af-8e6b-4750-816f-cb69765be238"
          },
          {
            "reference": "urn:uuid:e053f7e7-43b8-4388-882a-25451bbde0aa"
          },
          {
            "reference": "urn:uuid:a51534c9-3b1f-410f-876b-71ac3fb111cb"
          },
          {
            "reference": "urn:uuid:48639832-213e-4f25-aded-f0a6a85dfcbe"
          },
          {
            "reference": "urn:uuid:b564e36d-a9f3-4460-9aff-5f53d3e2c105"
          },
          {
            "reference": "urn:uuid:32a0dcee-2b4e-431c-b21f-9ab12de95839"
          },
          {
            "reference": "urn:uuid:e2a751b2-16ed-4069-a837-c796d935b4da"
          },
          {
            "reference": "urn:uuid:19ac3fbf-23d8-43f1-bea9-8e80037db619"
          },
          {
            "reference": "urn:uuid:5ad268fe-1671-4fdd-9e2d-5d1f472e81cb"
          },
          {
            "reference": "urn:uuid:91cb3d27-6d0c-43e5-8417-607abb466300"
          },
          {
            "reference": "urn:uuid:366e759f-8bc6-4c33-9801-8d84960b8cb7"
          },
          {
            "reference": "urn:uuid:197257a6-529e-4091-bd98-e4cf83f06ed3"
          },
          {
            "reference": "urn:uuid:c567d5de-0bdc-4dd7-9064-4a6163a0f40e"
          },
          {
            "reference": "urn:uuid:16a3c81a-a8ab-44d1-863a-f5e9f2cb64a9"
          },
          {
            "reference": "urn:uuid:f7eaec94-b1ad-44df-a967-6ddf7eda529f"
          },
          {
            "reference": "urn:uuid:c6de332c-de97-49fb-a365-85ba1f747c34"
          },
          {
            "reference": "urn:uuid:5c0c42a5-0008-4c0f-80bb-4ca74ed62429"
          },
          {
            "reference": "urn:uuid:8232485a-78c2-446f-9c18-d42ad63af6e7"
          },
          {
            "reference": "urn:uuid:1edecffc-c815-4434-ac3f-0de81a189c21"
          },
          {
            "reference": "urn:uuid:b297a06f-e965-47f7-9afb-45133c916db0"
          },
          {
            "reference": "urn:uuid:5c2e6df6-1a89-42ce-a72f-62c539b41164"
          },
          {
            "reference": "urn:uuid:b8bd5f9d-d969-4f99-897a-7d926dc91668"
          },
          {
            "reference": "urn:uuid:3b64cea9-4696-4b5c-be39-b07250f20989"
          }
        ],
        "status": "registered",
        "code": {
          "coding": [
            {
              "code": "11502-2",
              "system": "http://loinc.org",
              "display": "Laboratory report"
            }
          ]
        },
        "subject": {
          "reference": "urn:uuid:d289351d-c9b7-4f5a-a422-48996510ca7d",
          "display": "Pelayo Casal"
        }
      }
    },
    {
      "fullUrl": "urn:uuid:d289351d-c9b7-4f5a-a422-48996510ca7d",
      "resource": {
        "resourceType": "Patient",
        "id": "d289351d-c9b7-4f5a-a422-48996510ca7d",
        "meta": {
          "security": [
            {
              "system": "http://terminology.hl7.org/CodeSystem/v3-ActReason",
              "code": "HTEST"
            },
            {
              "system": "http://terminology.hl7.org/CodeSystem/v3-ActReason",
              "code": "TRAIN"
            }
          ],
          "tag": [
            {
              "system": "https://synderai.net/fhir/CodeSystem/tags",
              "code": "synthetic",
              "display": "SYNDERAI Synthetic data"
            }
          ],
          "profile": [
            "http://hl7.eu/fhir/base/StructureDefinition/patient-eu-core"
          ]
        },
        "identifier": [
          {
            "type": {
              "coding": [
                {
                  "code": "PT",
                  "system": "http://terminology.hl7.org/CodeSystem/v2-0203"
                }
              ]
            },
            "system": "http://ec.europa.eu/identifier/eci",
            "value": "7707-510028-7"
          },
          {
            "type": {
              "coding": [
                {
                  "code": "MR",
                  "system": "http://terminology.hl7.org/CodeSystem/v2-0203"
                }
              ]
            },
            "system": "http://local.setting.eu/identifier",
            "value": "d88e82c6-df33-82d2-8538-f8b57da06491"
          }
        ],
        "name": [
          {
            "family": "Casal"
          },
          {
            "given": [
              "Pelayo"
            ]
          },
          {
            "text": "Pelayo Casal"
          }
        ],
        "address": [
          {
            "line": [
              "Callejón de Ignacio Pedrosa 67 Apt. 68 "
            ],
            "use": "home",
            "type": "physical",
            "postalCode": "35001",
            "city": "Las Palmas",
            "country": "Spain"
          }
        ],
        "telecom": [
          {
            "system": "phone",
            "value": "+34 875724898"
          }
        ],
        "extension": [
          {
            "url": "http://hl7.org/fhir/StructureDefinition/patient-nationality",
            "valueCodeableConcept": {
              "coding": [
                {
                  "code": "ES",
                  "system": "http://hl7.org/fhir/ValueSet/country"
                }
              ]
            }
          }
        ],
        "text": {
          "status": "generated",
          "div": "<div xmlns=\"http://www.w3.org/1999/xhtml\"><table class=\"hl7__ips\"><tr><td>Pelayo Casal</td><td>male</td><td>19-Apr-1940</td></tr></table></div>"
        },
        "gender": "male",
        "birthDate": "1940-04-19"
      }
    },
    {
      "fullUrl": "urn:uuid:cc04a4f6-49bf-4855-9c32-956febc4f508",
      "resource": {
        "resourceType": "ServiceRequest",
        "id": "cc04a4f6-49bf-4855-9c32-956febc4f508",
        "meta": {
          "profile": [
            "http://hl7.eu/fhir/laboratory/StructureDefinition/ServiceRequest-eu-lab"
          ]
        },
        "identifier": [
          {
            "system": "http://example.org",
            "value": "79b68521-16a3-4a59-b38d-4230fb406794"
          }
        ],
        "specimen": [
          {
            "reference": "urn:uuid:979aa5d4-4e4a-4410-ad26-c8d0bb78f536"
          },
          {
            "reference": "urn:uuid:ad3e749e-8fb1-44aa-bd9c-4e223111d1a9"
          },
          {
            "reference": "urn:uuid:ddc4e302-3d3e-4288-a3e4-cf60c39c3ea7"
          }
        ],
        "reasonCode": [
          {
            "coding": [
              {
                "code": "431856006",
                "system": "http://snomed.info/sct",
                "display": "Chronic kidney disease stage 2"
              }
            ]
          },
          {
            "coding": [
              {
                "code": "90781000119102",
                "system": "http://snomed.info/sct",
                "display": "Microalbuminuria due to type 2 diabetes mellitus"
              }
            ]
          },
          {
            "coding": [
              {
                "code": "127013003",
                "system": "http://snomed.info/sct",
                "display": "Disorder of kidney due to diabetes mellitus"
              }
            ]
          },
          {
            "coding": [
              {
                "code": "431855005",
                "system": "http://snomed.info/sct",
                "display": "Chronic kidney disease stage 1"
              }
            ]
          },
          {
            "coding": [
              {
                "code": "64859006",
                "system": "http://snomed.info/sct",
                "display": "Osteoporosis"
              }
            ]
          },
          {
            "coding": [
              {
                "code": "414545008",
                "system": "http://snomed.info/sct",
                "display": "Ischemic heart disease"
              }
            ]
          },
          {
            "coding": [
              {
                "code": "237602007",
                "system": "http://snomed.info/sct",
                "display": "Metabolic syndrome X"
              }
            ]
          },
          {
            "coding": [
              {
                "code": "59621000",
                "system": "http://snomed.info/sct",
                "display": "Essential hypertension"
              }
            ]
          },
          {
            "coding": [
              {
                "code": "271737000",
                "system": "http://snomed.info/sct",
                "display": "Anemia"
              }
            ]
          },
          {
            "coding": [
              {
                "code": "15777000",
                "system": "http://snomed.info/sct",
                "display": "Prediabetes"
              }
            ]
          }
        ],
        "status": "active",
        "intent": "order",
        "code": {
          "coding": [
            {
              "code": "108252007",
              "system": "http://snomed.info/sct",
              "display": "Laboratory procedure"
            }
          ]
        },
        "subject": {
          "reference": "urn:uuid:d289351d-c9b7-4f5a-a422-48996510ca7d",
          "display": "Pelayo Casal"
        },
        "requester": {
          "reference": "urn:uuid:4f52dc59-faf3-4ee9-af7c-b5d786c096de"
        }
      }
    },
    {
      "fullUrl": "urn:uuid:4f52dc59-faf3-4ee9-af7c-b5d786c096de",
      "resource": {
        "resourceType": "PractitionerRole",
        "id": "4f52dc59-faf3-4ee9-af7c-b5d786c096de",
        "meta": {
          "profile": [
            "http://hl7.eu/fhir/base/StructureDefinition/practitionerRole-eu"
          ]
        },
        "text": {
          "status": "generated",
          "div": "<div xmlns=\"http://www.w3.org/1999/xhtml\">Provider Role Id: 4f52dc59-faf3-4ee9-af7c-b5d786c096de</div>"
        },
        "organization": {
          "reference": "urn:uuid:4b63d573-f89f-4a46-a85d-3266287bfa23"
        }
      }
    },
    {
      "fullUrl": "urn:uuid:4b63d573-f89f-4a46-a85d-3266287bfa23",
      "resource": {
        "resourceType": "Organization",
        "id": "4b63d573-f89f-4a46-a85d-3266287bfa23",
        "meta": {
          "profile": [
            "http://hl7.eu/fhir/base/StructureDefinition/organization-eu"
          ]
        },
        "identifier": [
          {
            "assigner": {
              "display": "HL7 Europe"
            },
            "system": "urn:oid:2.16.840.1.113883.2.51.999",
            "value": "4421d1f2-8793-47e6-9318-62768884d863"
          }
        ],
        "address": [
          {
            "country": "Spain"
          }
        ],
        "text": {
          "status": "generated",
          "div": "<div xmlns=\"http://www.w3.org/1999/xhtml\">Provider Organization: Centro de Salud de Guanarteme</div>"
        },
        "name": "Centro de Salud de Guanarteme"
      }
    },
    {
      "fullUrl": "urn:uuid:979aa5d4-4e4a-4410-ad26-c8d0bb78f536",
      "resource": {
        "resourceType": "Specimen",
        "id": "979aa5d4-4e4a-4410-ad26-c8d0bb78f536",
        "meta": {
          "profile": [
            "http://hl7.eu/fhir/laboratory/StructureDefinition/Specimen-eu-lab"
          ]
        },
        "collection": {
          "collectedDateTime": "2020-07-16"
        },
        "text": {
          "status": "generated",
          "div": "<div xmlns=\"http://www.w3.org/1999/xhtml\"><table class=\"hl7__eu__lab__report\"><tr><th>Specimen</th><th>Collection Date</th></tr><tr><td>Acellular blood (serum or plasma) specimen</td><td><span class=\"nb\">16-Jul-2020</span></td></tr></table></div>"
        },
        "type": {
          "coding": [
            {
              "code": "122592007",
              "system": "http://snomed.info/sct",
              "display": "Acellular blood (serum or plasma) specimen"
            }
          ]
        }
      }
    },
    {
      "fullUrl": "urn:uuid:ad3e749e-8fb1-44aa-bd9c-4e223111d1a9",
      "resource": {
        "resourceType": "Specimen",
        "id": "ad3e749e-8fb1-44aa-bd9c-4e223111d1a9",
        "meta": {
          "profile": [
            "http://hl7.eu/fhir/laboratory/StructureDefinition/Specimen-eu-lab"
          ]
        },
        "collection": {
          "collectedDateTime": "2020-07-16"
        },
        "text": {
          "status": "generated",
          "div": "<div xmlns=\"http://www.w3.org/1999/xhtml\"><table class=\"hl7__eu__lab__report\"><tr><th>Specimen</th><th>Collection Date</th></tr><tr><td>Urine specimen</td><td><span class=\"nb\">16-Jul-2020</span></td></tr></table></div>"
        },
        "type": {
          "coding": [
            {
              "code": "122575003",
              "system": "http://snomed.info/sct",
              "display": "Urine specimen"
            }
          ]
        }
      }
    },
    {
      "fullUrl": "urn:uuid:ddc4e302-3d3e-4288-a3e4-cf60c39c3ea7",
      "resource": {
        "resourceType": "Specimen",
        "id": "ddc4e302-3d3e-4288-a3e4-cf60c39c3ea7",
        "meta": {
          "profile": [
            "http://hl7.eu/fhir/laboratory/StructureDefinition/Specimen-eu-lab"
          ]
        },
        "collection": {
          "collectedDateTime": "2020-07-16"
        },
        "text": {
          "status": "generated",
          "div": "<div xmlns=\"http://www.w3.org/1999/xhtml\"><table class=\"hl7__eu__lab__report\"><tr><th>Specimen</th><th>Collection Date</th></tr><tr><td>Whole blood specimen (specimen)</td><td><span class=\"nb\">16-Jul-2020</span></td></tr></table></div>"
        },
        "type": {
          "coding": [
            {
              "code": "258580003",
              "system": "http://snomed.info/sct",
              "display": "Whole blood specimen (specimen)"
            }
          ]
        }
      }
    },
    {
      "fullUrl": "urn:uuid:eab681d3-f8c6-4804-b3db-6159356147c1",
      "resource": {
        "resourceType": "Observation",
        "id": "eab681d3-f8c6-4804-b3db-6159356147c1",
        "meta": {
          "profile": [
            "http://hl7.eu/fhir/laboratory/StructureDefinition/Observation-resultslab-eu-lab"
          ]
        },
        "performer": [
          {
            "display": "The Central European Lab"
          }
        ],
        "category": [
          {
            "coding": [
              {
                "system": "http://terminology.hl7.org/CodeSystem/observation-category",
                "code": "laboratory"
              }
            ]
          }
        ],
        "code": {
          "coding": [
            {
              "code": "2345-7",
              "system": "http://loinc.org",
              "display": "Glucose [Mass/volume] in Serum or Plasma"
            }
          ],
          "text": "Glucose [Mass/volume] in Serum or Plasma"
        },
        "valueQuantity": {
          "system": "http://unitsofmeasure.org",
          "value": 73.2,
          "unit": "mg/dL",
          "code": "mg/dL"
        },
        "referenceRange": [
          {
            "low": {
              "value": 70,
              "code": "mg/dL",
              "system": "http://unitsofmeasure.org"
            }
          },
          {
            "high": {
              "value": 140,
              "code": "mg/dL",
              "system": "http://unitsofmeasure.org"
            }
          }
        ],
        "text": {
          "status": "generated",
          "div": "<div xmlns=\"http://www.w3.org/1999/xhtml\"><table class=\"hl7__eu__lab__report\"><tr><th>Test</th><th>16-Jul-2020</th><th>Reference&#xA0;Range</th><th>Unit</th></tr><tr><td>Glucose [Mass/volume] in Serum or Plasma</td><td>73.2</td><td>70 - 140</td><td></td><td>mg/dL</td></tr></table></div>"
        },
        "status": "final",
        "subject": {
          "reference": "urn:uuid:d289351d-c9b7-4f5a-a422-48996510ca7d",
          "display": "Pelayo Casal"
        },
        "effectiveDateTime": "2020-07-16T05:38:59Z",
        "specimen": {
          "reference": "urn:uuid:979aa5d4-4e4a-4410-ad26-c8d0bb78f536"
        }
      }
    },
    {
      "fullUrl": "urn:uuid:af7b7a24-2285-469b-907a-ba752905fb9b",
      "resource": {
        "resourceType": "Observation",
        "id": "af7b7a24-2285-469b-907a-ba752905fb9b",
        "meta": {
          "profile": [
            "http://hl7.eu/fhir/laboratory/StructureDefinition/Observation-resultslab-eu-lab"
          ]
        },
        "performer": [
          {
            "display": "The Central European Lab"
          }
        ],
        "category": [
          {
            "coding": [
              {
                "system": "http://terminology.hl7.org/CodeSystem/observation-category",
                "code": "laboratory"
              }
            ]
          }
        ],
        "code": {
          "coding": [
            {
              "code": "3094-0",
              "system": "http://loinc.org",
              "display": "Urea nitrogen [Mass/volume] in Serum or Plasma"
            }
          ],
          "text": "Urea nitrogen [Mass/volume] in Serum or Plasma"
        },
        "valueQuantity": {
          "system": "http://unitsofmeasure.org",
          "value": 10.9,
          "unit": "mg/dL",
          "code": "mg/dL"
        },
        "referenceRange": [
          {
            "low": {
              "value": 7,
              "code": "mg/dL",
              "system": "http://unitsofmeasure.org"
            }
          },
          {
            "high": {
              "value": 25,
              "code": "mg/dL",
              "system": "http://unitsofmeasure.org"
            }
          }
        ],
        "text": {
          "status": "generated",
          "div": "<div xmlns=\"http://www.w3.org/1999/xhtml\"><table class=\"hl7__eu__lab__report\"><tr><th>Test</th><th>16-Jul-2020</th><th>Reference&#xA0;Range</th><th>Unit</th></tr><tr><td>Urea nitrogen [Mass/volume] in Serum or Plasma</td><td>10.9</td><td>7 - 25</td><td></td><td>mg/dL</td></tr></table></div>"
        },
        "status": "final",
        "subject": {
          "reference": "urn:uuid:d289351d-c9b7-4f5a-a422-48996510ca7d",
          "display": "Pelayo Casal"
        },
        "effectiveDateTime": "2020-07-16T05:38:59Z",
        "specimen": {
          "reference": "urn:uuid:979aa5d4-4e4a-4410-ad26-c8d0bb78f536"
        }
      }
    },
    {
      "fullUrl": "urn:uuid:4bfc652d-87f3-4da3-a5c9-ca4832733728",
      "resource": {
        "resourceType": "Observation",
        "id": "4bfc652d-87f3-4da3-a5c9-ca4832733728",
        "meta": {
          "profile": [
            "http://hl7.eu/fhir/laboratory/StructureDefinition/Observation-resultslab-eu-lab"
          ]
        },
        "performer": [
          {
            "display": "The Central European Lab"
          }
        ],
        "category": [
          {
            "coding": [
              {
                "system": "http://terminology.hl7.org/CodeSystem/observation-category",
                "code": "laboratory"
              }
            ]
          }
        ],
        "code": {
          "coding": [
            {
              "code": "2160-0",
              "system": "http://loinc.org",
              "display": "Creatinine [Mass/volume] in Serum or Plasma"
            }
          ],
          "text": "Creatinine [Mass/volume] in Serum or Plasma"
        },
        "valueQuantity": {
          "system": "http://unitsofmeasure.org",
          "value": 2.1,
          "unit": "mg/dL",
          "code": "mg/dL"
        },
        "referenceRange": [
          {
            "low": {
              "value": 0.9,
              "code": "mg/dL",
              "system": "http://unitsofmeasure.org"
            }
          },
          {
            "high": {
              "value": 1.3,
              "code": "mg/dL",
              "system": "http://unitsofmeasure.org"
            }
          }
        ],
        "interpretation": [
          {
            "coding": [
              {
                "code": "H",
                "system": "http://terminology.hl7.org/CodeSystem/v3-ObservationInterpretation",
                "display": "High"
              }
            ]
          }
        ],
        "text": {
          "status": "generated",
          "div": "<div xmlns=\"http://www.w3.org/1999/xhtml\"><table class=\"hl7__eu__lab__report\"><tr><th>Test</th><th>16-Jul-2020</th><th>Reference&#xA0;Range</th><th>Unit</th></tr><tr><td>Creatinine [Mass/volume] in Serum or Plasma</td><td>2.1</td><td>0.9 - 1.3</td><td>H</td><td>mg/dL</td></tr></table></div>"
        },
        "status": "final",
        "subject": {
          "reference": "urn:uuid:d289351d-c9b7-4f5a-a422-48996510ca7d",
          "display": "Pelayo Casal"
        },
        "effectiveDateTime": "2020-07-16T05:38:59Z",
        "specimen": {
          "reference": "urn:uuid:979aa5d4-4e4a-4410-ad26-c8d0bb78f536"
        }
      }
    },
    {
      "fullUrl": "urn:uuid:8f25a711-308c-4745-8ee3-d3c93b749d87",
      "resource": {
        "resourceType": "Observation",
        "id": "8f25a711-308c-4745-8ee3-d3c93b749d87",
        "meta": {
          "profile": [
            "http://hl7.eu/fhir/laboratory/StructureDefinition/Observation-resultslab-eu-lab"
          ]
        },
        "performer": [
          {
            "display": "The Central European Lab"
          }
        ],
        "category": [
          {
            "coding": [
              {
                "system": "http://terminology.hl7.org/CodeSystem/observation-category",
                "code": "laboratory"
              }
            ]
          }
        ],
        "code": {
          "coding": [
            {
              "code": "17861-6",
              "system": "http://loinc.org",
              "display": "Calcium [Mass/volume] in Serum or Plasma"
            }
          ],
          "text": "Calcium [Mass/volume] in Serum or Plasma"
        },
        "valueQuantity": {
          "system": "http://unitsofmeasure.org",
          "value": 9.2,
          "unit": "mg/dL",
          "code": "mg/dL"
        },
        "referenceRange": [
          {
            "low": {
              "value": 8.5,
              "code": "mg/dL",
              "system": "http://unitsofmeasure.org"
            }
          },
          {
            "high": {
              "value": 10.5,
              "code": "mg/dL",
              "system": "http://unitsofmeasure.org"
            }
          }
        ],
        "text": {
          "status": "generated",
          "div": "<div xmlns=\"http://www.w3.org/1999/xhtml\"><table class=\"hl7__eu__lab__report\"><tr><th>Test</th><th>16-Jul-2020</th><th>Reference&#xA0;Range</th><th>Unit</th></tr><tr><td>Calcium [Mass/volume] in Serum or Plasma</td><td>9.2</td><td>8.5 - 10.5</td><td></td><td>mg/dL</td></tr></table></div>"
        },
        "status": "final",
        "subject": {
          "reference": "urn:uuid:d289351d-c9b7-4f5a-a422-48996510ca7d",
          "display": "Pelayo Casal"
        },
        "effectiveDateTime": "2020-07-16T05:38:59Z",
        "specimen": {
          "reference": "urn:uuid:979aa5d4-4e4a-4410-ad26-c8d0bb78f536"
        }
      }
    },
    {
      "fullUrl": "urn:uuid:4713ebe3-f0ba-44ac-ac28-7c4770a9cf8f",
      "resource": {
        "resourceType": "Observation",
        "id": "4713ebe3-f0ba-44ac-ac28-7c4770a9cf8f",
        "meta": {
          "profile": [
            "http://hl7.eu/fhir/laboratory/StructureDefinition/Observation-resultslab-eu-lab"
          ]
        },
        "performer": [
          {
            "display": "The Central European Lab"
          }
        ],
        "category": [
          {
            "coding": [
              {
                "system": "http://terminology.hl7.org/CodeSystem/observation-category",
                "code": "laboratory"
              }
            ]
          }
        ],
        "code": {
          "coding": [
            {
              "code": "2951-2",
              "system": "http://loinc.org",
              "display": "Sodium [Moles/volume] in Serum or Plasma"
            }
          ],
          "text": "Sodium [Moles/volume] in Serum or Plasma"
        },
        "valueQuantity": {
          "system": "http://unitsofmeasure.org",
          "value": 141.2,
          "unit": "mmol/L",
          "code": "mmol/L"
        },
        "referenceRange": [
          {
            "low": {
              "value": 135,
              "code": "mmol/L",
              "system": "http://unitsofmeasure.org"
            }
          },
          {
            "high": {
              "value": 145,
              "code": "mmol/L",
              "system": "http://unitsofmeasure.org"
            }
          }
        ],
        "text": {
          "status": "generated",
          "div": "<div xmlns=\"http://www.w3.org/1999/xhtml\"><table class=\"hl7__eu__lab__report\"><tr><th>Test</th><th>16-Jul-2020</th><th>Reference&#xA0;Range</th><th>Unit</th></tr><tr><td>Sodium [Moles/volume] in Serum or Plasma</td><td>141.2</td><td>135 - 145</td><td></td><td>mmol/L</td></tr></table></div>"
        },
        "status": "final",
        "subject": {
          "reference": "urn:uuid:d289351d-c9b7-4f5a-a422-48996510ca7d",
          "display": "Pelayo Casal"
        },
        "effectiveDateTime": "2020-07-16T05:38:59Z",
        "specimen": {
          "reference": "urn:uuid:979aa5d4-4e4a-4410-ad26-c8d0bb78f536"
        }
      }
    },
    {
      "fullUrl": "urn:uuid:af1e5c7a-75cb-42c7-a2aa-15a7897c0374",
      "resource": {
        "resourceType": "Observation",
        "id": "af1e5c7a-75cb-42c7-a2aa-15a7897c0374",
        "meta": {
          "profile": [
            "http://hl7.eu/fhir/laboratory/StructureDefinition/Observation-resultslab-eu-lab"
          ]
        },
        "performer": [
          {
            "display": "The Central European Lab"
          }
        ],
        "category": [
          {
            "coding": [
              {
                "system": "http://terminology.hl7.org/CodeSystem/observation-category",
                "code": "laboratory"
              }
            ]
          }
        ],
        "code": {
          "coding": [
            {
              "code": "2823-3",
              "system": "http://loinc.org",
              "display": "Potassium [Moles/volume] in Serum or Plasma"
            }
          ],
          "text": "Potassium [Moles/volume] in Serum or Plasma"
        },
        "valueQuantity": {
          "system": "http://unitsofmeasure.org",
          "value": 4.9,
          "unit": "mmol/L",
          "code": "mmol/L"
        },
        "referenceRange": [
          {
            "low": {
              "value": 3.5,
              "code": "mmol/L",
              "system": "http://unitsofmeasure.org"
            }
          },
          {
            "high": {
              "value": 5.3,
              "code": "mmol/L",
              "system": "http://unitsofmeasure.org"
            }
          }
        ],
        "text": {
          "status": "generated",
          "div": "<div xmlns=\"http://www.w3.org/1999/xhtml\"><table class=\"hl7__eu__lab__report\"><tr><th>Test</th><th>16-Jul-2020</th><th>Reference&#xA0;Range</th><th>Unit</th></tr><tr><td>Potassium [Moles/volume] in Serum or Plasma</td><td>4.9</td><td>3.5 - 5.3</td><td></td><td>mmol/L</td></tr></table></div>"
        },
        "status": "final",
        "subject": {
          "reference": "urn:uuid:d289351d-c9b7-4f5a-a422-48996510ca7d",
          "display": "Pelayo Casal"
        },
        "effectiveDateTime": "2020-07-16T05:38:59Z",
        "specimen": {
          "reference": "urn:uuid:979aa5d4-4e4a-4410-ad26-c8d0bb78f536"
        }
      }
    },
    {
      "fullUrl": "urn:uuid:94e91351-2f41-46c4-b39e-74d77822fec7",
      "resource": {
        "resourceType": "Observation",
        "id": "94e91351-2f41-46c4-b39e-74d77822fec7",
        "meta": {
          "profile": [
            "http://hl7.eu/fhir/laboratory/StructureDefinition/Observation-resultslab-eu-lab"
          ]
        },
        "performer": [
          {
            "display": "The Central European Lab"
          }
        ],
        "category": [
          {
            "coding": [
              {
                "system": "http://terminology.hl7.org/CodeSystem/observation-category",
                "code": "laboratory"
              }
            ]
          }
        ],
        "code": {
          "coding": [
            {
              "code": "2075-0",
              "system": "http://loinc.org",
              "display": "Chloride [Moles/volume] in Serum or Plasma"
            }
          ],
          "text": "Chloride [Moles/volume] in Serum or Plasma"
        },
        "valueQuantity": {
          "system": "http://unitsofmeasure.org",
          "value": 105.2,
          "unit": "mmol/L",
          "code": "mmol/L"
        },
        "referenceRange": [
          {
            "low": {
              "value": 98,
              "code": "mmol/L",
              "system": "http://unitsofmeasure.org"
            }
          },
          {
            "high": {
              "value": 107,
              "code": "mmol/L",
              "system": "http://unitsofmeasure.org"
            }
          }
        ],
        "text": {
          "status": "generated",
          "div": "<div xmlns=\"http://www.w3.org/1999/xhtml\"><table class=\"hl7__eu__lab__report\"><tr><th>Test</th><th>16-Jul-2020</th><th>Reference&#xA0;Range</th><th>Unit</th></tr><tr><td>Chloride [Moles/volume] in Serum or Plasma</td><td>105.2</td><td>98 - 107</td><td></td><td>mmol/L</td></tr></table></div>"
        },
        "status": "final",
        "subject": {
          "reference": "urn:uuid:d289351d-c9b7-4f5a-a422-48996510ca7d",
          "display": "Pelayo Casal"
        },
        "effectiveDateTime": "2020-07-16T05:38:59Z",
        "specimen": {
          "reference": "urn:uuid:979aa5d4-4e4a-4410-ad26-c8d0bb78f536"
        }
      }
    },
    {
      "fullUrl": "urn:uuid:9a8fd9e3-0db8-4b2f-9431-968cb556a3f0",
      "resource": {
        "resourceType": "Observation",
        "id": "9a8fd9e3-0db8-4b2f-9431-968cb556a3f0",
        "meta": {
          "profile": [
            "http://hl7.eu/fhir/laboratory/StructureDefinition/Observation-resultslab-eu-lab"
          ]
        },
        "performer": [
          {
            "display": "The Central European Lab"
          }
        ],
        "category": [
          {
            "coding": [
              {
                "system": "http://terminology.hl7.org/CodeSystem/observation-category",
                "code": "laboratory"
              }
            ]
          }
        ],
        "code": {
          "coding": [
            {
              "code": "2028-9",
              "system": "http://loinc.org",
              "display": "Carbon dioxide, total [Moles/volume] in Serum or Plasma"
            }
          ],
          "text": "Carbon dioxide, total [Moles/volume] in Serum or Plasma"
        },
        "valueQuantity": {
          "system": "http://unitsofmeasure.org",
          "value": 28,
          "unit": "mmol/L",
          "code": "mmol/L"
        },
        "referenceRange": [
          {
            "low": {
              "value": 22,
              "code": "mmol/L",
              "system": "http://unitsofmeasure.org"
            }
          },
          {
            "high": {
              "value": 29,
              "code": "mmol/L",
              "system": "http://unitsofmeasure.org"
            }
          }
        ],
        "text": {
          "status": "generated",
          "div": "<div xmlns=\"http://www.w3.org/1999/xhtml\"><table class=\"hl7__eu__lab__report\"><tr><th>Test</th><th>16-Jul-2020</th><th>Reference&#xA0;Range</th><th>Unit</th></tr><tr><td>Carbon dioxide, total [Moles/volume] in Serum or Plasma</td><td>28.0</td><td>22 - 29</td><td></td><td>mmol/L</td></tr></table></div>"
        },
        "status": "final",
        "subject": {
          "reference": "urn:uuid:d289351d-c9b7-4f5a-a422-48996510ca7d",
          "display": "Pelayo Casal"
        },
        "effectiveDateTime": "2020-07-16T05:38:59Z",
        "specimen": {
          "reference": "urn:uuid:979aa5d4-4e4a-4410-ad26-c8d0bb78f536"
        }
      }
    },
    {
      "fullUrl": "urn:uuid:b8ca192a-9614-4e70-a922-b0d541b5c3b6",
      "resource": {
        "resourceType": "Observation",
        "id": "b8ca192a-9614-4e70-a922-b0d541b5c3b6",
        "meta": {
          "profile": [
            "http://hl7.eu/fhir/laboratory/StructureDefinition/Observation-resultslab-eu-lab"
          ]
        },
        "performer": [
          {
            "display": "The Central European Lab"
          }
        ],
        "category": [
          {
            "coding": [
              {
                "system": "http://terminology.hl7.org/CodeSystem/observation-category",
                "code": "laboratory"
              }
            ]
          }
        ],
        "code": {
          "coding": [
            {
              "code": "5767-9",
              "system": "http://loinc.org",
              "display": "Appearance of Urine"
            }
          ],
          "text": "Appearance of Urine"
        },
        "text": {
          "status": "generated",
          "div": "<div xmlns=\"http://www.w3.org/1999/xhtml\"><table class=\"hl7__eu__lab__report\"><tr><th>Test</th><th>16-Jul-2020</th><th>Reference&#xA0;Range</th><th>Unit</th></tr><tr><td>Appearance of Urine</td></tr></table></div>"
        },
        "status": "final",
        "subject": {
          "reference": "urn:uuid:d289351d-c9b7-4f5a-a422-48996510ca7d",
          "display": "Pelayo Casal"
        },
        "effectiveDateTime": "2020-07-16T05:38:59Z",
        "specimen": {
          "reference": "urn:uuid:ad3e749e-8fb1-44aa-bd9c-4e223111d1a9"
        }
      }
    },
    {
      "fullUrl": "urn:uuid:014f3636-6381-4cbd-8aa4-2e244423d7be",
      "resource": {
        "resourceType": "Observation",
        "id": "014f3636-6381-4cbd-8aa4-2e244423d7be",
        "meta": {
          "profile": [
            "http://hl7.eu/fhir/laboratory/StructureDefinition/Observation-resultslab-eu-lab"
          ]
        },
        "performer": [
          {
            "display": "The Central European Lab"
          }
        ],
        "category": [
          {
            "coding": [
              {
                "system": "http://terminology.hl7.org/CodeSystem/observation-category",
                "code": "laboratory"
              }
            ]
          }
        ],
        "code": {
          "coding": [
            {
              "code": "34533-0",
              "system": "http://loinc.org",
              "display": "Odor of Urine"
            }
          ],
          "text": "Odor of Urine"
        },
        "text": {
          "status": "generated",
          "div": "<div xmlns=\"http://www.w3.org/1999/xhtml\"><table class=\"hl7__eu__lab__report\"><tr><th>Test</th><th>16-Jul-2020</th><th>Reference&#xA0;Range</th><th>Unit</th></tr><tr><td>Odor of Urine</td></tr></table></div>"
        },
        "status": "final",
        "subject": {
          "reference": "urn:uuid:d289351d-c9b7-4f5a-a422-48996510ca7d",
          "display": "Pelayo Casal"
        },
        "effectiveDateTime": "2020-07-16T05:38:59Z",
        "specimen": {
          "reference": "urn:uuid:ad3e749e-8fb1-44aa-bd9c-4e223111d1a9"
        }
      }
    },
    {
      "fullUrl": "urn:uuid:2e85da65-e88b-4581-89fd-14c5a35a5f76",
      "resource": {
        "resourceType": "Observation",
        "id": "2e85da65-e88b-4581-89fd-14c5a35a5f76",
        "meta": {
          "profile": [
            "http://hl7.eu/fhir/laboratory/StructureDefinition/Observation-resultslab-eu-lab"
          ]
        },
        "performer": [
          {
            "display": "The Central European Lab"
          }
        ],
        "category": [
          {
            "coding": [
              {
                "system": "http://terminology.hl7.org/CodeSystem/observation-category",
                "code": "laboratory"
              }
            ]
          }
        ],
        "code": {
          "coding": [
            {
              "code": "32167-9",
              "system": "http://loinc.org",
              "display": "Clarity of Urine"
            }
          ],
          "text": "Clarity of Urine"
        },
        "text": {
          "status": "generated",
          "div": "<div xmlns=\"http://www.w3.org/1999/xhtml\"><table class=\"hl7__eu__lab__report\"><tr><th>Test</th><th>16-Jul-2020</th><th>Reference&#xA0;Range</th><th>Unit</th></tr><tr><td>Clarity of Urine</td></tr></table></div>"
        },
        "status": "final",
        "subject": {
          "reference": "urn:uuid:d289351d-c9b7-4f5a-a422-48996510ca7d",
          "display": "Pelayo Casal"
        },
        "effectiveDateTime": "2020-07-16T05:38:59Z",
        "specimen": {
          "reference": "urn:uuid:ad3e749e-8fb1-44aa-bd9c-4e223111d1a9"
        }
      }
    },
    {
      "fullUrl": "urn:uuid:150052af-8e6b-4750-816f-cb69765be238",
      "resource": {
        "resourceType": "Observation",
        "id": "150052af-8e6b-4750-816f-cb69765be238",
        "meta": {
          "profile": [
            "http://hl7.eu/fhir/laboratory/StructureDefinition/Observation-resultslab-eu-lab"
          ]
        },
        "performer": [
          {
            "display": "The Central European Lab"
          }
        ],
        "category": [
          {
            "coding": [
              {
                "system": "http://terminology.hl7.org/CodeSystem/observation-category",
                "code": "laboratory"
              }
            ]
          }
        ],
        "code": {
          "coding": [
            {
              "code": "5778-6",
              "system": "http://loinc.org",
              "display": "Color of Urine"
            }
          ],
          "text": "Color of Urine"
        },
        "text": {
          "status": "generated",
          "div": "<div xmlns=\"http://www.w3.org/1999/xhtml\"><table class=\"hl7__eu__lab__report\"><tr><th>Test</th><th>16-Jul-2020</th><th>Reference&#xA0;Range</th><th>Unit</th></tr><tr><td>Color of Urine</td></tr></table></div>"
        },
        "status": "final",
        "subject": {
          "reference": "urn:uuid:d289351d-c9b7-4f5a-a422-48996510ca7d",
          "display": "Pelayo Casal"
        },
        "effectiveDateTime": "2020-07-16T05:38:59Z",
        "specimen": {
          "reference": "urn:uuid:ad3e749e-8fb1-44aa-bd9c-4e223111d1a9"
        }
      }
    },
    {
      "fullUrl": "urn:uuid:e053f7e7-43b8-4388-882a-25451bbde0aa",
      "resource": {
        "resourceType": "Observation",
        "id": "e053f7e7-43b8-4388-882a-25451bbde0aa",
        "meta": {
          "profile": [
            "http://hl7.eu/fhir/laboratory/StructureDefinition/Observation-resultslab-eu-lab"
          ]
        },
        "performer": [
          {
            "display": "The Central European Lab"
          }
        ],
        "category": [
          {
            "coding": [
              {
                "system": "http://terminology.hl7.org/CodeSystem/observation-category",
                "code": "laboratory"
              }
            ]
          }
        ],
        "code": {
          "coding": [
            {
              "code": "5792-7",
              "system": "http://loinc.org",
              "display": "Glucose [Mass/volume] in Urine by Test strip"
            }
          ],
          "text": "Glucose [Mass/volume] in Urine by Test strip"
        },
        "valueQuantity": {
          "system": "http://unitsofmeasure.org",
          "value": 1.8,
          "unit": "mg/dL",
          "code": "mg/dL"
        },
        "referenceRange": [
          {
            "low": {
              "value": 0.8,
              "code": "mg/dL",
              "system": "http://unitsofmeasure.org"
            }
          },
          {
            "high": {
              "value": 0,
              "code": "mg/dL",
              "system": "http://unitsofmeasure.org"
            }
          }
        ],
        "interpretation": [
          {
            "coding": [
              {
                "code": "H",
                "system": "http://terminology.hl7.org/CodeSystem/v3-ObservationInterpretation",
                "display": "High"
              }
            ]
          }
        ],
        "text": {
          "status": "generated",
          "div": "<div xmlns=\"http://www.w3.org/1999/xhtml\"><table class=\"hl7__eu__lab__report\"><tr><th>Test</th><th>16-Jul-2020</th><th>Reference&#xA0;Range</th><th>Unit</th></tr><tr><td>Glucose [Mass/volume] in Urine by Test strip</td><td>1.8</td><td>0.8 - 0</td><td>H</td><td>mg/dL</td></tr></table></div>"
        },
        "status": "final",
        "subject": {
          "reference": "urn:uuid:d289351d-c9b7-4f5a-a422-48996510ca7d",
          "display": "Pelayo Casal"
        },
        "effectiveDateTime": "2020-07-16T05:38:59Z",
        "specimen": {
          "reference": "urn:uuid:ad3e749e-8fb1-44aa-bd9c-4e223111d1a9"
        }
      }
    },
    {
      "fullUrl": "urn:uuid:a51534c9-3b1f-410f-876b-71ac3fb111cb",
      "resource": {
        "resourceType": "Observation",
        "id": "a51534c9-3b1f-410f-876b-71ac3fb111cb",
        "meta": {
          "profile": [
            "http://hl7.eu/fhir/laboratory/StructureDefinition/Observation-resultslab-eu-lab"
          ]
        },
        "performer": [
          {
            "display": "The Central European Lab"
          }
        ],
        "category": [
          {
            "coding": [
              {
                "system": "http://terminology.hl7.org/CodeSystem/observation-category",
                "code": "laboratory"
              }
            ]
          }
        ],
        "code": {
          "coding": [
            {
              "code": "25428-4",
              "system": "http://loinc.org",
              "display": "Glucose [Presence] in Urine by Test strip"
            }
          ],
          "text": "Glucose [Presence] in Urine by Test strip"
        },
        "text": {
          "status": "generated",
          "div": "<div xmlns=\"http://www.w3.org/1999/xhtml\"><table class=\"hl7__eu__lab__report\"><tr><th>Test</th><th>16-Jul-2020</th><th>Reference&#xA0;Range</th><th>Unit</th></tr><tr><td>Glucose [Presence] in Urine by Test strip</td></tr></table></div>"
        },
        "status": "final",
        "subject": {
          "reference": "urn:uuid:d289351d-c9b7-4f5a-a422-48996510ca7d",
          "display": "Pelayo Casal"
        },
        "effectiveDateTime": "2020-07-16T05:38:59Z",
        "specimen": {
          "reference": "urn:uuid:ad3e749e-8fb1-44aa-bd9c-4e223111d1a9"
        }
      }
    },
    {
      "fullUrl": "urn:uuid:48639832-213e-4f25-aded-f0a6a85dfcbe",
      "resource": {
        "resourceType": "Observation",
        "id": "48639832-213e-4f25-aded-f0a6a85dfcbe",
        "meta": {
          "profile": [
            "http://hl7.eu/fhir/laboratory/StructureDefinition/Observation-resultslab-eu-lab"
          ]
        },
        "performer": [
          {
            "display": "The Central European Lab"
          }
        ],
        "category": [
          {
            "coding": [
              {
                "system": "http://terminology.hl7.org/CodeSystem/observation-category",
                "code": "laboratory"
              }
            ]
          }
        ],
        "code": {
          "coding": [
            {
              "code": "20505-4",
              "system": "http://loinc.org",
              "display": "Bilirubin.total [Mass/volume] in Urine by Test strip"
            }
          ],
          "text": "Bilirubin.total [Mass/volume] in Urine by Test strip"
        },
        "valueQuantity": {
          "system": "http://unitsofmeasure.org",
          "value": 0.9,
          "unit": "mg/dL",
          "code": "mg/dL"
        },
        "referenceRange": [
          {
            "low": {
              "value": 0.2,
              "code": "mg/dL",
              "system": "http://unitsofmeasure.org"
            }
          },
          {
            "high": {
              "value": 1.5,
              "code": "mg/dL",
              "system": "http://unitsofmeasure.org"
            }
          }
        ],
        "text": {
          "status": "generated",
          "div": "<div xmlns=\"http://www.w3.org/1999/xhtml\"><table class=\"hl7__eu__lab__report\"><tr><th>Test</th><th>16-Jul-2020</th><th>Reference&#xA0;Range</th><th>Unit</th></tr><tr><td>Bilirubin.total [Mass/volume] in Urine by Test strip</td><td>0.9</td><td>0.2 - 1.5</td><td></td><td>mg/dL</td></tr></table></div>"
        },
        "status": "final",
        "subject": {
          "reference": "urn:uuid:d289351d-c9b7-4f5a-a422-48996510ca7d",
          "display": "Pelayo Casal"
        },
        "effectiveDateTime": "2020-07-16T05:38:59Z",
        "specimen": {
          "reference": "urn:uuid:ad3e749e-8fb1-44aa-bd9c-4e223111d1a9"
        }
      }
    },
    {
      "fullUrl": "urn:uuid:b564e36d-a9f3-4460-9aff-5f53d3e2c105",
      "resource": {
        "resourceType": "Observation",
        "id": "b564e36d-a9f3-4460-9aff-5f53d3e2c105",
        "meta": {
          "profile": [
            "http://hl7.eu/fhir/laboratory/StructureDefinition/Observation-resultslab-eu-lab"
          ]
        },
        "performer": [
          {
            "display": "The Central European Lab"
          }
        ],
        "category": [
          {
            "coding": [
              {
                "system": "http://terminology.hl7.org/CodeSystem/observation-category",
                "code": "laboratory"
              }
            ]
          }
        ],
        "code": {
          "coding": [
            {
              "code": "5770-3",
              "system": "http://loinc.org",
              "display": "Bilirubin.total [Presence] in Urine by Test strip"
            }
          ],
          "text": "Bilirubin.total [Presence] in Urine by Test strip"
        },
        "text": {
          "status": "generated",
          "div": "<div xmlns=\"http://www.w3.org/1999/xhtml\"><table class=\"hl7__eu__lab__report\"><tr><th>Test</th><th>16-Jul-2020</th><th>Reference&#xA0;Range</th><th>Unit</th></tr><tr><td>Bilirubin.total [Presence] in Urine by Test strip</td></tr></table></div>"
        },
        "status": "final",
        "subject": {
          "reference": "urn:uuid:d289351d-c9b7-4f5a-a422-48996510ca7d",
          "display": "Pelayo Casal"
        },
        "effectiveDateTime": "2020-07-16T05:38:59Z",
        "specimen": {
          "reference": "urn:uuid:ad3e749e-8fb1-44aa-bd9c-4e223111d1a9"
        }
      }
    },
    {
      "fullUrl": "urn:uuid:32a0dcee-2b4e-431c-b21f-9ab12de95839",
      "resource": {
        "resourceType": "Observation",
        "id": "32a0dcee-2b4e-431c-b21f-9ab12de95839",
        "meta": {
          "profile": [
            "http://hl7.eu/fhir/laboratory/StructureDefinition/Observation-resultslab-eu-lab"
          ]
        },
        "performer": [
          {
            "display": "The Central European Lab"
          }
        ],
        "category": [
          {
            "coding": [
              {
                "system": "http://terminology.hl7.org/CodeSystem/observation-category",
                "code": "laboratory"
              }
            ]
          }
        ],
        "code": {
          "coding": [
            {
              "code": "5797-6",
              "system": "http://loinc.org",
              "display": "Ketones [Mass/volume] in Urine by Test strip"
            }
          ],
          "text": "Ketones [Mass/volume] in Urine by Test strip"
        },
        "valueQuantity": {
          "system": "http://unitsofmeasure.org",
          "value": 10.3,
          "unit": "mg/dL",
          "code": "mg/dL"
        },
        "referenceRange": [
          {
            "low": {
              "value": 0,
              "code": "mg/dL",
              "system": "http://unitsofmeasure.org"
            }
          },
          {
            "high": {
              "value": 4,
              "code": "mg/dL",
              "system": "http://unitsofmeasure.org"
            }
          }
        ],
        "interpretation": [
          {
            "coding": [
              {
                "code": "H",
                "system": "http://terminology.hl7.org/CodeSystem/v3-ObservationInterpretation",
                "display": "High"
              }
            ]
          }
        ],
        "text": {
          "status": "generated",
          "div": "<div xmlns=\"http://www.w3.org/1999/xhtml\"><table class=\"hl7__eu__lab__report\"><tr><th>Test</th><th>16-Jul-2020</th><th>Reference&#xA0;Range</th><th>Unit</th></tr><tr><td>Ketones [Mass/volume] in Urine by Test strip</td><td>10.3</td><td>0 - 4</td><td>H</td><td>mg/dL</td></tr></table></div>"
        },
        "status": "final",
        "subject": {
          "reference": "urn:uuid:d289351d-c9b7-4f5a-a422-48996510ca7d",
          "display": "Pelayo Casal"
        },
        "effectiveDateTime": "2020-07-16T05:38:59Z",
        "specimen": {
          "reference": "urn:uuid:ad3e749e-8fb1-44aa-bd9c-4e223111d1a9"
        }
      }
    },
    {
      "fullUrl": "urn:uuid:e2a751b2-16ed-4069-a837-c796d935b4da",
      "resource": {
        "resourceType": "Observation",
        "id": "e2a751b2-16ed-4069-a837-c796d935b4da",
        "meta": {
          "profile": [
            "http://hl7.eu/fhir/laboratory/StructureDefinition/Observation-resultslab-eu-lab"
          ]
        },
        "performer": [
          {
            "display": "The Central European Lab"
          }
        ],
        "category": [
          {
            "coding": [
              {
                "system": "http://terminology.hl7.org/CodeSystem/observation-category",
                "code": "laboratory"
              }
            ]
          }
        ],
        "code": {
          "coding": [
            {
              "code": "2514-8",
              "system": "http://loinc.org",
              "display": "Ketones [Presence] in Urine by Test strip"
            }
          ],
          "text": "Ketones [Presence] in Urine by Test strip"
        },
        "text": {
          "status": "generated",
          "div": "<div xmlns=\"http://www.w3.org/1999/xhtml\"><table class=\"hl7__eu__lab__report\"><tr><th>Test</th><th>16-Jul-2020</th><th>Reference&#xA0;Range</th><th>Unit</th></tr><tr><td>Ketones [Presence] in Urine by Test strip</td></tr></table></div>"
        },
        "status": "final",
        "subject": {
          "reference": "urn:uuid:d289351d-c9b7-4f5a-a422-48996510ca7d",
          "display": "Pelayo Casal"
        },
        "effectiveDateTime": "2020-07-16T05:38:59Z",
        "specimen": {
          "reference": "urn:uuid:ad3e749e-8fb1-44aa-bd9c-4e223111d1a9"
        }
      }
    },
    {
      "fullUrl": "urn:uuid:19ac3fbf-23d8-43f1-bea9-8e80037db619",
      "resource": {
        "resourceType": "Observation",
        "id": "19ac3fbf-23d8-43f1-bea9-8e80037db619",
        "meta": {
          "profile": [
            "http://hl7.eu/fhir/laboratory/StructureDefinition/Observation-resultslab-eu-lab"
          ]
        },
        "performer": [
          {
            "display": "The Central European Lab"
          }
        ],
        "category": [
          {
            "coding": [
              {
                "system": "http://terminology.hl7.org/CodeSystem/observation-category",
                "code": "laboratory"
              }
            ]
          }
        ],
        "code": {
          "coding": [
            {
              "code": "5811-5",
              "system": "http://loinc.org",
              "display": "Specific gravity of Urine by Test strip"
            }
          ],
          "text": "Specific gravity of Urine by Test strip"
        },
        "valueQuantity": {
          "system": "http://unitsofmeasure.org",
          "value": 1,
          "unit": "{nominal}",
          "code": "{nominal}"
        },
        "referenceRange": [
          {
            "low": {
              "value": 1.01,
              "code": "g/mL",
              "system": "http://unitsofmeasure.org"
            }
          },
          {
            "high": {
              "value": 1.03,
              "code": "g/mL",
              "system": "http://unitsofmeasure.org"
            }
          }
        ],
        "interpretation": [
          {
            "coding": [
              {
                "code": "L",
                "system": "http://terminology.hl7.org/CodeSystem/v3-ObservationInterpretation",
                "display": "Low"
              }
            ]
          }
        ],
        "text": {
          "status": "generated",
          "div": "<div xmlns=\"http://www.w3.org/1999/xhtml\"><table class=\"hl7__eu__lab__report\"><tr><th>Test</th><th>16-Jul-2020</th><th>Reference&#xA0;Range</th><th>Unit</th></tr><tr><td>Specific gravity of Urine by Test strip</td><td>1.0</td><td>1.01 - 1.03</td><td>L</td><td>{nominal}</td></tr></table></div>"
        },
        "status": "final",
        "subject": {
          "reference": "urn:uuid:d289351d-c9b7-4f5a-a422-48996510ca7d",
          "display": "Pelayo Casal"
        },
        "effectiveDateTime": "2020-07-16T05:38:59Z",
        "specimen": {
          "reference": "urn:uuid:ad3e749e-8fb1-44aa-bd9c-4e223111d1a9"
        }
      }
    },
    {
      "fullUrl": "urn:uuid:5ad268fe-1671-4fdd-9e2d-5d1f472e81cb",
      "resource": {
        "resourceType": "Observation",
        "id": "5ad268fe-1671-4fdd-9e2d-5d1f472e81cb",
        "meta": {
          "profile": [
            "http://hl7.eu/fhir/laboratory/StructureDefinition/Observation-resultslab-eu-lab"
          ]
        },
        "performer": [
          {
            "display": "The Central European Lab"
          }
        ],
        "category": [
          {
            "coding": [
              {
                "system": "http://terminology.hl7.org/CodeSystem/observation-category",
                "code": "laboratory"
              }
            ]
          }
        ],
        "code": {
          "coding": [
            {
              "code": "5803-2",
              "system": "http://loinc.org",
              "display": "pH of Urine by Test strip"
            }
          ],
          "text": "pH of Urine by Test strip"
        },
        "valueQuantity": {
          "system": "http://unitsofmeasure.org",
          "value": 6.4,
          "unit": "pH",
          "code": "pH"
        },
        "referenceRange": [
          {
            "low": {
              "value": 4.5,
              "code": "pH",
              "system": "http://unitsofmeasure.org"
            }
          },
          {
            "high": {
              "value": 7.5,
              "code": "pH",
              "system": "http://unitsofmeasure.org"
            }
          }
        ],
        "text": {
          "status": "generated",
          "div": "<div xmlns=\"http://www.w3.org/1999/xhtml\"><table class=\"hl7__eu__lab__report\"><tr><th>Test</th><th>16-Jul-2020</th><th>Reference&#xA0;Range</th><th>Unit</th></tr><tr><td>pH of Urine by Test strip</td><td>6.4</td><td>4.5 - 7.5</td><td></td><td>pH</td></tr></table></div>"
        },
        "status": "final",
        "subject": {
          "reference": "urn:uuid:d289351d-c9b7-4f5a-a422-48996510ca7d",
          "display": "Pelayo Casal"
        },
        "effectiveDateTime": "2020-07-16T05:38:59Z",
        "specimen": {
          "reference": "urn:uuid:ad3e749e-8fb1-44aa-bd9c-4e223111d1a9"
        }
      }
    },
    {
      "fullUrl": "urn:uuid:91cb3d27-6d0c-43e5-8417-607abb466300",
      "resource": {
        "resourceType": "Observation",
        "id": "91cb3d27-6d0c-43e5-8417-607abb466300",
        "meta": {
          "profile": [
            "http://hl7.eu/fhir/laboratory/StructureDefinition/Observation-resultslab-eu-lab"
          ]
        },
        "performer": [
          {
            "display": "The Central European Lab"
          }
        ],
        "category": [
          {
            "coding": [
              {
                "system": "http://terminology.hl7.org/CodeSystem/observation-category",
                "code": "laboratory"
              }
            ]
          }
        ],
        "code": {
          "coding": [
            {
              "code": "5804-0",
              "system": "http://loinc.org",
              "display": "Protein [Mass/volume] in Urine by Test strip"
            }
          ],
          "text": "Protein [Mass/volume] in Urine by Test strip"
        },
        "valueQuantity": {
          "system": "http://unitsofmeasure.org",
          "value": 261.6,
          "unit": "mg/dL",
          "code": "mg/dL"
        },
        "referenceRange": [
          {
            "low": {
              "value": 0,
              "code": "mg/dL",
              "system": "http://unitsofmeasure.org"
            }
          },
          {
            "high": {
              "value": 150,
              "code": "mg/dL",
              "system": "http://unitsofmeasure.org"
            }
          }
        ],
        "interpretation": [
          {
            "coding": [
              {
                "code": "H",
                "system": "http://terminology.hl7.org/CodeSystem/v3-ObservationInterpretation",
                "display": "High"
              }
            ]
          }
        ],
        "text": {
          "status": "generated",
          "div": "<div xmlns=\"http://www.w3.org/1999/xhtml\"><table class=\"hl7__eu__lab__report\"><tr><th>Test</th><th>16-Jul-2020</th><th>Reference&#xA0;Range</th><th>Unit</th></tr><tr><td>Protein [Mass/volume] in Urine by Test strip</td><td>261.6</td><td>0 - 150</td><td>H</td><td>mg/dL</td></tr></table></div>"
        },
        "status": "final",
        "subject": {
          "reference": "urn:uuid:d289351d-c9b7-4f5a-a422-48996510ca7d",
          "display": "Pelayo Casal"
        },
        "effectiveDateTime": "2020-07-16T05:38:59Z",
        "specimen": {
          "reference": "urn:uuid:ad3e749e-8fb1-44aa-bd9c-4e223111d1a9"
        }
      }
    },
    {
      "fullUrl": "urn:uuid:366e759f-8bc6-4c33-9801-8d84960b8cb7",
      "resource": {
        "resourceType": "Observation",
        "id": "366e759f-8bc6-4c33-9801-8d84960b8cb7",
        "meta": {
          "profile": [
            "http://hl7.eu/fhir/laboratory/StructureDefinition/Observation-resultslab-eu-lab"
          ]
        },
        "performer": [
          {
            "display": "The Central European Lab"
          }
        ],
        "category": [
          {
            "coding": [
              {
                "system": "http://terminology.hl7.org/CodeSystem/observation-category",
                "code": "laboratory"
              }
            ]
          }
        ],
        "code": {
          "coding": [
            {
              "code": "20454-5",
              "system": "http://loinc.org",
              "display": "Protein [Presence] in Urine by Test strip"
            }
          ],
          "text": "Protein [Presence] in Urine by Test strip"
        },
        "text": {
          "status": "generated",
          "div": "<div xmlns=\"http://www.w3.org/1999/xhtml\"><table class=\"hl7__eu__lab__report\"><tr><th>Test</th><th>16-Jul-2020</th><th>Reference&#xA0;Range</th><th>Unit</th></tr><tr><td>Protein [Presence] in Urine by Test strip</td></tr></table></div>"
        },
        "status": "final",
        "subject": {
          "reference": "urn:uuid:d289351d-c9b7-4f5a-a422-48996510ca7d",
          "display": "Pelayo Casal"
        },
        "effectiveDateTime": "2020-07-16T05:38:59Z",
        "specimen": {
          "reference": "urn:uuid:ad3e749e-8fb1-44aa-bd9c-4e223111d1a9"
        }
      }
    },
    {
      "fullUrl": "urn:uuid:197257a6-529e-4091-bd98-e4cf83f06ed3",
      "resource": {
        "resourceType": "Observation",
        "id": "197257a6-529e-4091-bd98-e4cf83f06ed3",
        "meta": {
          "profile": [
            "http://hl7.eu/fhir/laboratory/StructureDefinition/Observation-resultslab-eu-lab"
          ]
        },
        "performer": [
          {
            "display": "The Central European Lab"
          }
        ],
        "category": [
          {
            "coding": [
              {
                "system": "http://terminology.hl7.org/CodeSystem/observation-category",
                "code": "laboratory"
              }
            ]
          }
        ],
        "code": {
          "coding": [
            {
              "code": "5802-4",
              "system": "http://loinc.org",
              "display": "Nitrite [Presence] in Urine by Test strip"
            }
          ],
          "text": "Nitrite [Presence] in Urine by Test strip"
        },
        "text": {
          "status": "generated",
          "div": "<div xmlns=\"http://www.w3.org/1999/xhtml\"><table class=\"hl7__eu__lab__report\"><tr><th>Test</th><th>16-Jul-2020</th><th>Reference&#xA0;Range</th><th>Unit</th></tr><tr><td>Nitrite [Presence] in Urine by Test strip</td></tr></table></div>"
        },
        "status": "final",
        "subject": {
          "reference": "urn:uuid:d289351d-c9b7-4f5a-a422-48996510ca7d",
          "display": "Pelayo Casal"
        },
        "effectiveDateTime": "2020-07-16T05:38:59Z",
        "specimen": {
          "reference": "urn:uuid:ad3e749e-8fb1-44aa-bd9c-4e223111d1a9"
        }
      }
    },
    {
      "fullUrl": "urn:uuid:c567d5de-0bdc-4dd7-9064-4a6163a0f40e",
      "resource": {
        "resourceType": "Observation",
        "id": "c567d5de-0bdc-4dd7-9064-4a6163a0f40e",
        "meta": {
          "profile": [
            "http://hl7.eu/fhir/laboratory/StructureDefinition/Observation-resultslab-eu-lab"
          ]
        },
        "performer": [
          {
            "display": "The Central European Lab"
          }
        ],
        "category": [
          {
            "coding": [
              {
                "system": "http://terminology.hl7.org/CodeSystem/observation-category",
                "code": "laboratory"
              }
            ]
          }
        ],
        "code": {
          "coding": [
            {
              "code": "5794-3",
              "system": "http://loinc.org",
              "display": "Hemoglobin [Presence] in Urine by Test strip"
            }
          ],
          "text": "Hemoglobin [Presence] in Urine by Test strip"
        },
        "text": {
          "status": "generated",
          "div": "<div xmlns=\"http://www.w3.org/1999/xhtml\"><table class=\"hl7__eu__lab__report\"><tr><th>Test</th><th>16-Jul-2020</th><th>Reference&#xA0;Range</th><th>Unit</th></tr><tr><td>Hemoglobin [Presence] in Urine by Test strip</td></tr></table></div>"
        },
        "status": "final",
        "subject": {
          "reference": "urn:uuid:d289351d-c9b7-4f5a-a422-48996510ca7d",
          "display": "Pelayo Casal"
        },
        "effectiveDateTime": "2020-07-16T05:38:59Z",
        "specimen": {
          "reference": "urn:uuid:ad3e749e-8fb1-44aa-bd9c-4e223111d1a9"
        }
      }
    },
    {
      "fullUrl": "urn:uuid:16a3c81a-a8ab-44d1-863a-f5e9f2cb64a9",
      "resource": {
        "resourceType": "Observation",
        "id": "16a3c81a-a8ab-44d1-863a-f5e9f2cb64a9",
        "meta": {
          "profile": [
            "http://hl7.eu/fhir/laboratory/StructureDefinition/Observation-resultslab-eu-lab"
          ]
        },
        "performer": [
          {
            "display": "The Central European Lab"
          }
        ],
        "category": [
          {
            "coding": [
              {
                "system": "http://terminology.hl7.org/CodeSystem/observation-category",
                "code": "laboratory"
              }
            ]
          }
        ],
        "code": {
          "coding": [
            {
              "code": "5799-2",
              "system": "http://loinc.org",
              "display": "Leukocyte esterase [Presence] in Urine by Test strip"
            }
          ],
          "text": "Leukocyte esterase [Presence] in Urine by Test strip"
        },
        "text": {
          "status": "generated",
          "div": "<div xmlns=\"http://www.w3.org/1999/xhtml\"><table class=\"hl7__eu__lab__report\"><tr><th>Test</th><th>16-Jul-2020</th><th>Reference&#xA0;Range</th><th>Unit</th></tr><tr><td>Leukocyte esterase [Presence] in Urine by Test strip</td></tr></table></div>"
        },
        "status": "final",
        "subject": {
          "reference": "urn:uuid:d289351d-c9b7-4f5a-a422-48996510ca7d",
          "display": "Pelayo Casal"
        },
        "effectiveDateTime": "2020-07-16T05:38:59Z",
        "specimen": {
          "reference": "urn:uuid:ad3e749e-8fb1-44aa-bd9c-4e223111d1a9"
        }
      }
    },
    {
      "fullUrl": "urn:uuid:f7eaec94-b1ad-44df-a967-6ddf7eda529f",
      "resource": {
        "resourceType": "Observation",
        "id": "f7eaec94-b1ad-44df-a967-6ddf7eda529f",
        "meta": {
          "profile": [
            "http://hl7.eu/fhir/laboratory/StructureDefinition/Observation-resultslab-eu-lab"
          ]
        },
        "performer": [
          {
            "display": "The Central European Lab"
          }
        ],
        "category": [
          {
            "coding": [
              {
                "system": "http://terminology.hl7.org/CodeSystem/observation-category",
                "code": "laboratory"
              }
            ]
          }
        ],
        "code": {
          "coding": [
            {
              "code": "4548-4",
              "system": "http://loinc.org",
              "display": "Hemoglobin A1c/Hemoglobin.total in Blood"
            }
          ],
          "text": "Hemoglobin A1c/Hemoglobin.total in Blood"
        },
        "valueQuantity": {
          "system": "http://unitsofmeasure.org",
          "value": 3.2,
          "unit": "%",
          "code": "%"
        },
        "referenceRange": [
          {
            "low": {
              "value": 4.5,
              "code": "%",
              "system": "http://unitsofmeasure.org"
            }
          },
          {
            "high": {
              "value": 6.4,
              "code": "%",
              "system": "http://unitsofmeasure.org"
            }
          }
        ],
        "interpretation": [
          {
            "coding": [
              {
                "code": "L",
                "system": "http://terminology.hl7.org/CodeSystem/v3-ObservationInterpretation",
                "display": "Low"
              }
            ]
          }
        ],
        "text": {
          "status": "generated",
          "div": "<div xmlns=\"http://www.w3.org/1999/xhtml\"><table class=\"hl7__eu__lab__report\"><tr><th>Test</th><th>16-Jul-2020</th><th>Reference&#xA0;Range</th><th>Unit</th></tr><tr><td>Hemoglobin A1c/Hemoglobin.total in Blood</td><td>3.2</td><td>4.5 - 6.4</td><td>L</td><td>%</td></tr></table></div>"
        },
        "status": "final",
        "subject": {
          "reference": "urn:uuid:d289351d-c9b7-4f5a-a422-48996510ca7d",
          "display": "Pelayo Casal"
        },
        "effectiveDateTime": "2020-07-16T05:38:59Z",
        "specimen": {
          "reference": "urn:uuid:ddc4e302-3d3e-4288-a3e4-cf60c39c3ea7"
        }
      }
    },
    {
      "fullUrl": "urn:uuid:c6de332c-de97-49fb-a365-85ba1f747c34",
      "resource": {
        "resourceType": "Observation",
        "id": "c6de332c-de97-49fb-a365-85ba1f747c34",
        "meta": {
          "profile": [
            "http://hl7.eu/fhir/laboratory/StructureDefinition/Observation-resultslab-eu-lab"
          ]
        },
        "performer": [
          {
            "display": "The Central European Lab"
          }
        ],
        "category": [
          {
            "coding": [
              {
                "system": "http://terminology.hl7.org/CodeSystem/observation-category",
                "code": "laboratory"
              }
            ]
          }
        ],
        "code": {
          "coding": [
            {
              "code": "2339-0",
              "system": "http://loinc.org",
              "display": "Glucose [Mass/volume] in Blood"
            }
          ],
          "text": "Glucose [Mass/volume] in Blood"
        },
        "valueQuantity": {
          "system": "http://unitsofmeasure.org",
          "value": 73.2,
          "unit": "mg/dL",
          "code": "mg/dL"
        },
        "referenceRange": [
          {
            "low": {
              "value": 70,
              "code": "mg/dL",
              "system": "http://unitsofmeasure.org"
            }
          },
          {
            "high": {
              "value": 140,
              "code": "mg/dL",
              "system": "http://unitsofmeasure.org"
            }
          }
        ],
        "text": {
          "status": "generated",
          "div": "<div xmlns=\"http://www.w3.org/1999/xhtml\"><table class=\"hl7__eu__lab__report\"><tr><th>Test</th><th>16-Jul-2020</th><th>Reference&#xA0;Range</th><th>Unit</th></tr><tr><td>Glucose [Mass/volume] in Blood</td><td>73.2</td><td>70 - 140</td><td></td><td>mg/dL</td></tr></table></div>"
        },
        "status": "final",
        "subject": {
          "reference": "urn:uuid:d289351d-c9b7-4f5a-a422-48996510ca7d",
          "display": "Pelayo Casal"
        },
        "effectiveDateTime": "2020-07-16T05:38:59Z",
        "specimen": {
          "reference": "urn:uuid:ddc4e302-3d3e-4288-a3e4-cf60c39c3ea7"
        }
      }
    },
    {
      "fullUrl": "urn:uuid:5c0c42a5-0008-4c0f-80bb-4ca74ed62429",
      "resource": {
        "resourceType": "Observation",
        "id": "5c0c42a5-0008-4c0f-80bb-4ca74ed62429",
        "meta": {
          "profile": [
            "http://hl7.eu/fhir/laboratory/StructureDefinition/Observation-resultslab-eu-lab"
          ]
        },
        "performer": [
          {
            "display": "The Central European Lab"
          }
        ],
        "category": [
          {
            "coding": [
              {
                "system": "http://terminology.hl7.org/CodeSystem/observation-category",
                "code": "laboratory"
              }
            ]
          }
        ],
        "code": {
          "coding": [
            {
              "code": "6299-2",
              "system": "http://loinc.org",
              "display": "Urea nitrogen [Mass/volume] in Blood"
            }
          ],
          "text": "Urea nitrogen [Mass/volume] in Blood"
        },
        "valueQuantity": {
          "system": "http://unitsofmeasure.org",
          "value": 10.9,
          "unit": "mg/dL",
          "code": "mg/dL"
        },
        "referenceRange": [
          {
            "low": {
              "value": 7,
              "code": "mg/dL",
              "system": "http://unitsofmeasure.org"
            }
          },
          {
            "high": {
              "value": 25,
              "code": "mg/dL",
              "system": "http://unitsofmeasure.org"
            }
          }
        ],
        "text": {
          "status": "generated",
          "div": "<div xmlns=\"http://www.w3.org/1999/xhtml\"><table class=\"hl7__eu__lab__report\"><tr><th>Test</th><th>16-Jul-2020</th><th>Reference&#xA0;Range</th><th>Unit</th></tr><tr><td>Urea nitrogen [Mass/volume] in Blood</td><td>10.9</td><td>7 - 25</td><td></td><td>mg/dL</td></tr></table></div>"
        },
        "status": "final",
        "subject": {
          "reference": "urn:uuid:d289351d-c9b7-4f5a-a422-48996510ca7d",
          "display": "Pelayo Casal"
        },
        "effectiveDateTime": "2020-07-16T05:38:59Z",
        "specimen": {
          "reference": "urn:uuid:ddc4e302-3d3e-4288-a3e4-cf60c39c3ea7"
        }
      }
    },
    {
      "fullUrl": "urn:uuid:8232485a-78c2-446f-9c18-d42ad63af6e7",
      "resource": {
        "resourceType": "Observation",
        "id": "8232485a-78c2-446f-9c18-d42ad63af6e7",
        "meta": {
          "profile": [
            "http://hl7.eu/fhir/laboratory/StructureDefinition/Observation-resultslab-eu-lab"
          ]
        },
        "performer": [
          {
            "display": "The Central European Lab"
          }
        ],
        "category": [
          {
            "coding": [
              {
                "system": "http://terminology.hl7.org/CodeSystem/observation-category",
                "code": "laboratory"
              }
            ]
          }
        ],
        "code": {
          "coding": [
            {
              "code": "38483-4",
              "system": "http://loinc.org",
              "display": "Creatinine [Mass/volume] in Blood"
            }
          ],
          "text": "Creatinine [Mass/volume] in Blood"
        },
        "valueQuantity": {
          "system": "http://unitsofmeasure.org",
          "value": 2.3,
          "unit": "mg/dL",
          "code": "mg/dL"
        },
        "referenceRange": [
          {
            "low": {
              "value": 0.9,
              "code": "mg/dL",
              "system": "http://unitsofmeasure.org"
            }
          },
          {
            "high": {
              "value": 1.3,
              "code": "mg/dL",
              "system": "http://unitsofmeasure.org"
            }
          }
        ],
        "interpretation": [
          {
            "coding": [
              {
                "code": "H",
                "system": "http://terminology.hl7.org/CodeSystem/v3-ObservationInterpretation",
                "display": "High"
              }
            ]
          }
        ],
        "text": {
          "status": "generated",
          "div": "<div xmlns=\"http://www.w3.org/1999/xhtml\"><table class=\"hl7__eu__lab__report\"><tr><th>Test</th><th>16-Jul-2020</th><th>Reference&#xA0;Range</th><th>Unit</th></tr><tr><td>Creatinine [Mass/volume] in Blood</td><td>2.3</td><td>0.9 - 1.3</td><td>H</td><td>mg/dL</td></tr></table></div>"
        },
        "status": "final",
        "subject": {
          "reference": "urn:uuid:d289351d-c9b7-4f5a-a422-48996510ca7d",
          "display": "Pelayo Casal"
        },
        "effectiveDateTime": "2020-07-16T05:38:59Z",
        "specimen": {
          "reference": "urn:uuid:ddc4e302-3d3e-4288-a3e4-cf60c39c3ea7"
        }
      }
    },
    {
      "fullUrl": "urn:uuid:1edecffc-c815-4434-ac3f-0de81a189c21",
      "resource": {
        "resourceType": "Observation",
        "id": "1edecffc-c815-4434-ac3f-0de81a189c21",
        "meta": {
          "profile": [
            "http://hl7.eu/fhir/laboratory/StructureDefinition/Observation-resultslab-eu-lab"
          ]
        },
        "performer": [
          {
            "display": "The Central European Lab"
          }
        ],
        "category": [
          {
            "coding": [
              {
                "system": "http://terminology.hl7.org/CodeSystem/observation-category",
                "code": "laboratory"
              }
            ]
          }
        ],
        "code": {
          "coding": [
            {
              "code": "49765-1",
              "system": "http://loinc.org",
              "display": "Calcium [Mass/volume] in Blood"
            }
          ],
          "text": "Calcium [Mass/volume] in Blood"
        },
        "valueQuantity": {
          "system": "http://unitsofmeasure.org",
          "value": 9.2,
          "unit": "mg/dL",
          "code": "mg/dL"
        },
        "referenceRange": [
          {
            "low": {
              "value": 8.6,
              "code": "mg/dL",
              "system": "http://unitsofmeasure.org"
            }
          },
          {
            "high": {
              "value": 10.2,
              "code": "mg/dL",
              "system": "http://unitsofmeasure.org"
            }
          }
        ],
        "text": {
          "status": "generated",
          "div": "<div xmlns=\"http://www.w3.org/1999/xhtml\"><table class=\"hl7__eu__lab__report\"><tr><th>Test</th><th>16-Jul-2020</th><th>Reference&#xA0;Range</th><th>Unit</th></tr><tr><td>Calcium [Mass/volume] in Blood</td><td>9.2</td><td>8.6 - 10.2</td><td></td><td>mg/dL</td></tr></table></div>"
        },
        "status": "final",
        "subject": {
          "reference": "urn:uuid:d289351d-c9b7-4f5a-a422-48996510ca7d",
          "display": "Pelayo Casal"
        },
        "effectiveDateTime": "2020-07-16T05:38:59Z",
        "specimen": {
          "reference": "urn:uuid:ddc4e302-3d3e-4288-a3e4-cf60c39c3ea7"
        }
      }
    },
    {
      "fullUrl": "urn:uuid:b297a06f-e965-47f7-9afb-45133c916db0",
      "resource": {
        "resourceType": "Observation",
        "id": "b297a06f-e965-47f7-9afb-45133c916db0",
        "meta": {
          "profile": [
            "http://hl7.eu/fhir/laboratory/StructureDefinition/Observation-resultslab-eu-lab"
          ]
        },
        "performer": [
          {
            "display": "The Central European Lab"
          }
        ],
        "category": [
          {
            "coding": [
              {
                "system": "http://terminology.hl7.org/CodeSystem/observation-category",
                "code": "laboratory"
              }
            ]
          }
        ],
        "code": {
          "coding": [
            {
              "code": "2947-0",
              "system": "http://loinc.org",
              "display": "Sodium [Moles/volume] in Blood"
            }
          ],
          "text": "Sodium [Moles/volume] in Blood"
        },
        "valueQuantity": {
          "system": "http://unitsofmeasure.org",
          "value": 141.2,
          "unit": "mmol/L",
          "code": "mmol/L"
        },
        "referenceRange": [
          {
            "low": {
              "value": 135,
              "code": "mmol/L",
              "system": "http://unitsofmeasure.org"
            }
          },
          {
            "high": {
              "value": 145,
              "code": "mmol/L",
              "system": "http://unitsofmeasure.org"
            }
          }
        ],
        "text": {
          "status": "generated",
          "div": "<div xmlns=\"http://www.w3.org/1999/xhtml\"><table class=\"hl7__eu__lab__report\"><tr><th>Test</th><th>16-Jul-2020</th><th>Reference&#xA0;Range</th><th>Unit</th></tr><tr><td>Sodium [Moles/volume] in Blood</td><td>141.2</td><td>135 - 145</td><td></td><td>mmol/L</td></tr></table></div>"
        },
        "status": "final",
        "subject": {
          "reference": "urn:uuid:d289351d-c9b7-4f5a-a422-48996510ca7d",
          "display": "Pelayo Casal"
        },
        "effectiveDateTime": "2020-07-16T05:38:59Z",
        "specimen": {
          "reference": "urn:uuid:ddc4e302-3d3e-4288-a3e4-cf60c39c3ea7"
        }
      }
    },
    {
      "fullUrl": "urn:uuid:5c2e6df6-1a89-42ce-a72f-62c539b41164",
      "resource": {
        "resourceType": "Observation",
        "id": "5c2e6df6-1a89-42ce-a72f-62c539b41164",
        "meta": {
          "profile": [
            "http://hl7.eu/fhir/laboratory/StructureDefinition/Observation-resultslab-eu-lab"
          ]
        },
        "performer": [
          {
            "display": "The Central European Lab"
          }
        ],
        "category": [
          {
            "coding": [
              {
                "system": "http://terminology.hl7.org/CodeSystem/observation-category",
                "code": "laboratory"
              }
            ]
          }
        ],
        "code": {
          "coding": [
            {
              "code": "6298-4",
              "system": "http://loinc.org",
              "display": "Potassium [Moles/volume] in Blood"
            }
          ],
          "text": "Potassium [Moles/volume] in Blood"
        },
        "valueQuantity": {
          "system": "http://unitsofmeasure.org",
          "value": 4.9,
          "unit": "mmol/L",
          "code": "mmol/L"
        },
        "referenceRange": [
          {
            "low": {
              "value": 3.5,
              "code": "mmol/L",
              "system": "http://unitsofmeasure.org"
            }
          },
          {
            "high": {
              "value": 5.1,
              "code": "mmol/L",
              "system": "http://unitsofmeasure.org"
            }
          }
        ],
        "text": {
          "status": "generated",
          "div": "<div xmlns=\"http://www.w3.org/1999/xhtml\"><table class=\"hl7__eu__lab__report\"><tr><th>Test</th><th>16-Jul-2020</th><th>Reference&#xA0;Range</th><th>Unit</th></tr><tr><td>Potassium [Moles/volume] in Blood</td><td>4.9</td><td>3.5 - 5.1</td><td></td><td>mmol/L</td></tr></table></div>"
        },
        "status": "final",
        "subject": {
          "reference": "urn:uuid:d289351d-c9b7-4f5a-a422-48996510ca7d",
          "display": "Pelayo Casal"
        },
        "effectiveDateTime": "2020-07-16T05:38:59Z",
        "specimen": {
          "reference": "urn:uuid:ddc4e302-3d3e-4288-a3e4-cf60c39c3ea7"
        }
      }
    },
    {
      "fullUrl": "urn:uuid:b8bd5f9d-d969-4f99-897a-7d926dc91668",
      "resource": {
        "resourceType": "Observation",
        "id": "b8bd5f9d-d969-4f99-897a-7d926dc91668",
        "meta": {
          "profile": [
            "http://hl7.eu/fhir/laboratory/StructureDefinition/Observation-resultslab-eu-lab"
          ]
        },
        "performer": [
          {
            "display": "The Central European Lab"
          }
        ],
        "category": [
          {
            "coding": [
              {
                "system": "http://terminology.hl7.org/CodeSystem/observation-category",
                "code": "laboratory"
              }
            ]
          }
        ],
        "code": {
          "coding": [
            {
              "code": "2069-3",
              "system": "http://loinc.org",
              "display": "Chloride [Moles/volume] in Blood"
            }
          ],
          "text": "Chloride [Moles/volume] in Blood"
        },
        "valueQuantity": {
          "system": "http://unitsofmeasure.org",
          "value": 105.2,
          "unit": "mmol/L",
          "code": "mmol/L"
        },
        "referenceRange": [
          {
            "low": {
              "value": 98,
              "code": "mmol/L",
              "system": "http://unitsofmeasure.org"
            }
          },
          {
            "high": {
              "value": 108,
              "code": "mmol/L",
              "system": "http://unitsofmeasure.org"
            }
          }
        ],
        "text": {
          "status": "generated",
          "div": "<div xmlns=\"http://www.w3.org/1999/xhtml\"><table class=\"hl7__eu__lab__report\"><tr><th>Test</th><th>16-Jul-2020</th><th>Reference&#xA0;Range</th><th>Unit</th></tr><tr><td>Chloride [Moles/volume] in Blood</td><td>105.2</td><td>98 - 108</td><td></td><td>mmol/L</td></tr></table></div>"
        },
        "status": "final",
        "subject": {
          "reference": "urn:uuid:d289351d-c9b7-4f5a-a422-48996510ca7d",
          "display": "Pelayo Casal"
        },
        "effectiveDateTime": "2020-07-16T05:38:59Z",
        "specimen": {
          "reference": "urn:uuid:ddc4e302-3d3e-4288-a3e4-cf60c39c3ea7"
        }
      }
    },
    {
      "fullUrl": "urn:uuid:3b64cea9-4696-4b5c-be39-b07250f20989",
      "resource": {
        "resourceType": "Observation",
        "id": "3b64cea9-4696-4b5c-be39-b07250f20989",
        "meta": {
          "profile": [
            "http://hl7.eu/fhir/laboratory/StructureDefinition/Observation-resultslab-eu-lab"
          ]
        },
        "performer": [
          {
            "display": "The Central European Lab"
          }
        ],
        "category": [
          {
            "coding": [
              {
                "system": "http://terminology.hl7.org/CodeSystem/observation-category",
                "code": "laboratory"
              }
            ]
          }
        ],
        "code": {
          "coding": [
            {
              "code": "20565-8",
              "system": "http://loinc.org",
              "display": "Carbon dioxide, total [Moles/volume] in Blood"
            }
          ],
          "text": "Carbon dioxide, total [Moles/volume] in Blood"
        },
        "valueQuantity": {
          "system": "http://unitsofmeasure.org",
          "value": 28,
          "unit": "mmol/L",
          "code": "mmol/L"
        },
        "referenceRange": [
          {
            "low": {
              "value": 22,
              "code": "mmol/L",
              "system": "http://unitsofmeasure.org"
            }
          },
          {
            "high": {
              "value": 32,
              "code": "mmol/L",
              "system": "http://unitsofmeasure.org"
            }
          }
        ],
        "text": {
          "status": "generated",
          "div": "<div xmlns=\"http://www.w3.org/1999/xhtml\"><table class=\"hl7__eu__lab__report\"><tr><th>Test</th><th>16-Jul-2020</th><th>Reference&#xA0;Range</th><th>Unit</th></tr><tr><td>Carbon dioxide, total [Moles/volume] in Blood</td><td>28.0</td><td>22 - 32</td><td></td><td>mmol/L</td></tr></table></div>"
        },
        "status": "final",
        "subject": {
          "reference": "urn:uuid:d289351d-c9b7-4f5a-a422-48996510ca7d",
          "display": "Pelayo Casal"
        },
        "effectiveDateTime": "2020-07-16T05:38:59Z",
        "specimen": {
          "reference": "urn:uuid:ddc4e302-3d3e-4288-a3e4-cf60c39c3ea7"
        }
      }
    },
    {
      "fullUrl": "urn:uuid:f133f962-4296-45e6-9b94-db9fbbc9c5ed",
      "resource": {
        "resourceType": "Device",
        "id": "f133f962-4296-45e6-9b94-db9fbbc9c5ed",
        "deviceName": [
          {
            "name": "SYNDERAI Synthetic Generator",
            "type": "manufacturer-name"
          }
        ],
        "version": [
          {
            "value": "5.0"
          }
        ],
        "text": {
          "status": "generated",
          "div": "<div xmlns=\"http://www.w3.org/1999/xhtml\">SYNDERAI Synthetic Generator v5.0</div>"
        },
        "status": "active\"",
        "distinctIdentifier": "synderai-generator-50",
        "manufacturer": "SYNDERAI Project"
      }
    },
    {
      "fullUrl": "urn:uuid:69fcd5a4-baf5-4383-bbdb-9b014be0360d",
      "resource": {
        "resourceType": "Provenance",
        "id": "69fcd5a4-baf5-4383-bbdb-9b014be0360d",
        "target": [
          {
            "reference": "Patient/d289351d-c9b7-4f5a-a422-48996510ca7d"
          },
          {
            "reference": "Bundle/19579f52-6559-41e8-9667-5760f1f958f8"
          },
          {
            "reference": "Composition/f60fdc5b-709f-437a-845a-c7d4c4b1c27f"
          },
          {
            "reference": "PractitionerRole/f066ef52-01ef-44eb-aa0f-9c8cdd478306"
          },
          {
            "reference": "Practitioner/bc48c71d-1a5a-49d4-a3ab-ba91b4bf59fc"
          },
          {
            "reference": "PractitionerRole/4f52dc59-faf3-4ee9-af7c-b5d786c096de"
          },
          {
            "reference": "Organization/4b63d573-f89f-4a46-a85d-3266287bfa23"
          }
        ],
        "activity": {
          "text": "Synthetic Example Data Generation"
        },
        "policy": [
          "https://synderai.net/synderai-synthetic-data-policy"
        ],
        "agent": [
          {
            "type": {
              "text": "author"
            },
            "who": {
              "reference": "Device/f133f962-4296-45e6-9b94-db9fbbc9c5ed"
            }
          }
        ],
        "reason": [
          {
            "text": "Interoperability Testing and Training (non-clinical use)"
          }
        ],
        "text": {
          "status": "generated",
          "div": "<div xmlns=\"http://www.w3.org/1999/xhtml\">Provenance for SYNDERAI Synthetic Example Data Resource</div>"
        },
        "recorded": "2020-07-16T07:38:59Z"
      }
    },
    {
      "fullUrl": "urn:uuid:f066ef52-01ef-44eb-aa0f-9c8cdd478306",
      "resource": {
        "resourceType": "PractitionerRole",
        "id": "f066ef52-01ef-44eb-aa0f-9c8cdd478306",
        "meta": {
          "profile": [
            "http://hl7.eu/fhir/base/StructureDefinition/practitionerRole-eu"
          ]
        },
        "text": {
          "status": "generated",
          "div": "<div xmlns=\"http://www.w3.org/1999/xhtml\">Laboratory Role Id: f066ef52-01ef-44eb-aa0f-9c8cdd478306</div>"
        },
        "practitioner": {
          "reference": "urn:uuid:bc48c71d-1a5a-49d4-a3ab-ba91b4bf59fc"
        }
      }
    },
    {
      "fullUrl": "urn:uuid:bc48c71d-1a5a-49d4-a3ab-ba91b4bf59fc",
      "resource": {
        "resourceType": "Practitioner",
        "id": "bc48c71d-1a5a-49d4-a3ab-ba91b4bf59fc",
        "meta": {
          "profile": [
            "http://hl7.eu/fhir/base/StructureDefinition/practitioner-eu"
          ]
        },
        "identifier": [
          {
            "assigner": {
              "display": "HL7 Europe"
            },
            "system": "urn:oid:2.16.840.1.113883.2.51.999",
            "value": "360cf64a-2681-400b-9c24-54404a062ea9"
          }
        ],
        "name": [
          {
            "prefix": [
              "dr"
            ],
            "given": [
              "Ex"
            ],
            "family": "Ample"
          }
        ],
        "address": [
          {
            "line": [
              "Laboratoire Central Européenne",
              "Boulevard du Jardin Botanique 32"
            ],
            "postalCode": "1000",
            "city": "Brussels",
            "country": "Belgium"
          }
        ],
        "text": {
          "status": "generated",
          "div": "<div xmlns=\"http://www.w3.org/1999/xhtml\">Laboratory: Laboratoire Central Européenne, 1000 Brussels, Belgium</div>"
        }
      }
    }
  ],
  "type": "document",
  "timestamp": "2020-07-16T07:38:59Z"
}
