{
  "resourceType": "Bundle",
  "id": "d252de72-22e1-499d-a45b-d96803e5a313",
  "meta": {
    "profile": [
      "http://hl7.eu/fhir/laboratory/StructureDefinition/Bundle-eu-lab"
    ]
  },
  "identifier": {
    "assigner": {
      "display": "HL7 Europe"
    },
    "system": "urn:oid:2.16.840.1.113883.2.51.999",
    "value": "3d977184-990a-4f0b-ac14-d05d5479cbfc"
  },
  "entry": [
    {
      "fullUrl": "urn:uuid:5662748e-5d5a-4bd4-b30c-47784a02f988",
      "resource": {
        "resourceType": "Composition",
        "id": "5662748e-5d5a-4bd4-b30c-47784a02f988",
        "meta": {
          "profile": [
            "http://hl7.eu/fhir/laboratory/StructureDefinition/Composition-eu-lab"
          ]
        },
        "identifier": {
          "assigner": {
            "display": "HL7 Europe"
          },
          "system": "urn:oid:2.16.840.1.113883.2.51.999",
          "value": "2ceb192d-c038-4933-a7f3-72a86e66d31f"
        },
        "author": [
          {
            "reference": "urn:uuid:28ac20e4-81f4-475d-9d67-55d1037744c7"
          }
        ],
        "category": [
          {
            "coding": [
              {
                "code": "26436-6",
                "system": "http://loinc.org",
                "display": "Laboratory studies (set)"
              }
            ]
          }
        ],
        "type": {
          "coding": [
            {
              "code": "11502-2",
              "system": "http://loinc.org",
              "display": "Laboratory report"
            }
          ],
          "text": "Laboratory Report"
        },
        "section": [
          {
            "code": {
              "coding": [
                {
                  "code": "26436-6",
                  "system": "http://loinc.org",
                  "display": "Laboratory studies (set)"
                }
              ],
              "text": "Laboratory studies"
            },
            "section": [
              {
                "code": {
                  "coding": [
                    {
                      "code": "$18719-5",
                      "system": "http://loinc.org",
                      "display": "Chemistry studies (set)"
                    }
                  ],
                  "text": "Chemistry"
                },
                "entry": [
                  {
                    "reference": "urn:uuid:461a1bb1-726b-49d3-846c-a93db05aa56b"
                  },
                  {
                    "reference": "urn:uuid:a01d4758-567c-481e-9650-73c2219fd169"
                  },
                  {
                    "reference": "urn:uuid:01860750-dbd3-488d-8411-f85db765bf6b"
                  },
                  {
                    "reference": "urn:uuid:81ae6a19-9286-4628-8cdf-4fc4b817c306"
                  },
                  {
                    "reference": "urn:uuid:b16961ad-f982-47cf-9bf0-e42f9dfb4163"
                  },
                  {
                    "reference": "urn:uuid:43b91f53-6fa4-4711-9663-f41c00921b6b"
                  },
                  {
                    "reference": "urn:uuid:609f893a-181a-4902-aa39-2ba8b817123e"
                  },
                  {
                    "reference": "urn:uuid:869d59ea-50e1-4175-8912-b4ed315afa41"
                  },
                  {
                    "reference": "urn:uuid:a0f7e8a9-8922-4096-ac0d-ebe84ac72e6c"
                  },
                  {
                    "reference": "urn:uuid:2ab5d28c-e07b-4fac-bc91-53279b8b9d5c"
                  }
                ],
                "text": {
                  "status": "generated",
                  "div": "<div xmlns=\"http://www.w3.org/1999/xhtml\"><h3>Chemistry</h3><table class=\"hl7__eu__lab__report\"><thead><tr><th>Test</th><th>15-MAR-2017</th><th>Reference&#xA0;Range</th><th>Unit</th></tr></thead><tbody><tr><td>Glucose [Mass/volume] in Serum or Plasma</td><td>94.9</td><td>70 - 140</td><td>mg/dL</td></tr><tr><td>Urea nitrogen [Mass/volume] in Serum or Plasma</td><td>13.7</td><td>7 - 20</td><td>mg/dL</td></tr><tr><td>Creatinine [Mass/volume] in Serum or Plasma</td><td><strong>2.5 H</strong></td><td>0.6 - 1.3</td><td>mg/dL</td></tr><tr><td>Calcium [Mass/volume] in Serum or Plasma</td><td>8.6</td><td>8.6 - 10.4</td><td>mg/dL</td></tr><tr><td>Sodium [Moles/volume] in Serum or Plasma</td><td>136.8</td><td>135 - 145</td><td>mmol/L</td></tr><tr><td>Potassium [Moles/volume] in Serum or Plasma</td><td>4.9</td><td>3.5 - 5.1</td><td>mmol/L</td></tr><tr><td>Chloride [Moles/volume] in Serum or Plasma</td><td>103.4</td><td>98 - 108</td><td>mmol/L</td></tr><tr><td>Carbon dioxide, total [Moles/volume] in Serum or Plasma</td><td>26.9</td><td>22 - 32</td><td>mmol/L</td></tr><tr><td>Ketones [Presence] in Urine by Test strip</td><td>Urine ketone test = +++</td><td></td><td></td></tr><tr><td>Hemoglobin A1c/Hemoglobin.total in Blood</td><td><strong>3.3 L</strong></td><td>4.5 - 6.4</td><td>%</td></tr></tbody></table></div>"
                },
                "title": "Chemistry"
              },
              {
                "code": {
                  "coding": [
                    {
                      "code": "$18729-4",
                      "system": "http://loinc.org",
                      "display": "Urinalysis studies (set)"
                    }
                  ],
                  "text": "Urinalysis"
                },
                "entry": [
                  {
                    "reference": "urn:uuid:5c35e6a1-a1b2-4103-9eab-f11604d89f28"
                  },
                  {
                    "reference": "urn:uuid:965a9e76-5b69-472d-8f78-fb6f51e0f70a"
                  },
                  {
                    "reference": "urn:uuid:cda0ddb3-9d5b-4395-bce1-299504e00ec4"
                  },
                  {
                    "reference": "urn:uuid:5b39a96a-8ab2-444f-a2a9-6bcf2572350c"
                  },
                  {
                    "reference": "urn:uuid:2e2a1186-2297-4f01-9e7c-d56e08fea15f"
                  },
                  {
                    "reference": "urn:uuid:5019c7c2-5a5d-43da-aa72-15b5ed838d2b"
                  },
                  {
                    "reference": "urn:uuid:52e3da33-aae1-4db8-a674-b17a49952303"
                  },
                  {
                    "reference": "urn:uuid:bc6ffca1-ccca-40a5-b847-c25b375dc044"
                  },
                  {
                    "reference": "urn:uuid:78fa83d0-3915-4d06-ae85-529d146984f4"
                  },
                  {
                    "reference": "urn:uuid:d96dab2b-9bd6-4dce-bd6e-b12ac9c36b0c"
                  },
                  {
                    "reference": "urn:uuid:773066ba-42c9-4379-9531-0a10508e1154"
                  },
                  {
                    "reference": "urn:uuid:4d724df1-a6d2-43aa-865d-f506ca87f3b8"
                  }
                ],
                "text": {
                  "status": "generated",
                  "div": "<div xmlns=\"http://www.w3.org/1999/xhtml\"><h3>Urinalysis</h3><table class=\"hl7__eu__lab__report\"><thead><tr><th>Test</th><th>15-MAR-2017</th><th>Reference&#xA0;Range</th><th>Unit</th></tr></thead><tbody><tr><td>Glucose [Mass/volume] in Urine by Test strip</td><td><strong>1.5 H</strong></td><td>0.8 - 0</td><td>mg/dL</td></tr><tr><td>Glucose [Presence] in Urine by Test strip</td><td>++</td><td></td><td></td></tr><tr><td>Bilirubin.total [Mass/volume] in Urine by Test strip</td><td>0.5</td><td>0 - 1.5</td><td>mg/dL</td></tr><tr><td>Bilirubin.total [Presence] in Urine by Test strip</td><td>Finding of bilirubin in urine</td><td></td><td></td></tr><tr><td>Ketones [Mass/volume] in Urine by Test strip</td><td><strong>17.5 H</strong></td><td>0 - 8</td><td>mg/dL</td></tr><tr><td>Specific gravity of Urine by Test strip</td><td><strong>1.0 L</strong></td><td>1.01 - 1.03</td><td>{nominal}</td></tr><tr><td>pH of Urine by Test strip</td><td>5.0</td><td>4.6 - 7.5</td><td>pH</td></tr><tr><td>Protein [Mass/volume] in Urine by Test strip</td><td><strong>381.9 H</strong></td><td>0 - 14</td><td>mg/dL</td></tr><tr><td>Protein [Presence] in Urine by Test strip</td><td>Urine protein test = +++</td><td></td><td></td></tr><tr><td>Nitrite [Presence] in Urine by Test strip</td><td>Urine nitrite negative</td><td></td><td></td></tr><tr><td>Hemoglobin [Presence] in Urine by Test strip</td><td>Urine blood test = negative</td><td></td><td></td></tr><tr><td>Leukocyte esterase [Presence] in Urine by Test strip</td><td>Urine leukocyte test negative</td><td></td><td></td></tr></tbody></table></div>"
                },
                "title": "Urinalysis"
              },
              {
                "code": {
                  "coding": [
                    {
                      "code": "$LP7846-1",
                      "system": "http://loinc.org",
                      "display": "Specimen information"
                    }
                  ],
                  "text": "Specimen information"
                },
                "entry": [
                  {
                    "reference": "urn:uuid:1757b64b-e284-43c4-8c84-955555cfff88"
                  },
                  {
                    "reference": "urn:uuid:7021d191-78b7-471d-ba2c-89fa9c513bee"
                  },
                  {
                    "reference": "urn:uuid:f981f64c-59c6-47e6-832d-4202f205856e"
                  },
                  {
                    "reference": "urn:uuid:a83480d6-6a5b-41ba-a05d-38084744fe2b"
                  }
                ],
                "text": {
                  "status": "generated",
                  "div": "<div xmlns=\"http://www.w3.org/1999/xhtml\"><h3>Specimen information</h3><table class=\"hl7__eu__lab__report\"><thead><tr><th>Test</th><th>15-MAR-2017</th><th>Specimen</th><th></th></tr></thead><tbody><tr><td>Appearance of Urine</td><td>Cloudy urine</td><td>Urine</td><td></td></tr><tr><td>Odor of Urine</td><td>Urine smell ammoniacal</td><td>Urine</td><td></td></tr><tr><td>Clarity of Urine</td><td>Translucent</td><td>Urine</td><td></td></tr><tr><td>Color of Urine</td><td>Brown color</td><td>Urine</td><td></td></tr></tbody></table></div>"
                },
                "title": "Specimen information"
              }
            ],
            "title": "Laboratory Report"
          },
          {
            "text": {
              "status": "generated",
              "div": "<div xmlns=\"http://www.w3.org/1999/xhtml\"><h3>Annotation</h3><table class=\"hl7__eu__lab__report\"><tr><th>Conclusion and Recommendations based on this report and previous findings known to us</th></tr><tr><td>The patient shows elevated serum creatinine, indicating impaired renal function. Urinalysis reveals significant proteinuria, glucosuria, and ketonuria, with low specific gravity and abnormal urine appearance, suggesting possible nephrotic syndrome or diabetic nephropathy, though HbA1c is low. No evidence of urinary tract infection. Further clinical correlation and nephrology evaluation are recommended.</td></tr></table></div>"
            },
            "code": {
              "coding": [
                {
                  "system": "http://loinc.org",
                  "code": "48767-8",
                  "display": "Annotation comment"
                }
              ]
            },
            "title": "Annotation comment"
          }
        ],
        "status": "final",
        "subject": {
          "reference": "urn:uuid:b0a6af0c-a998-4c56-a2af-c055a65b0c49",
          "display": "Maria Nohlmans"
        },
        "date": "2017-03-15T12:02:39Z",
        "title": "Laboratory Report",
        "confidentiality": "N"
      }
    },
    {
      "fullUrl": "urn:uuid:1a69ecc3-6c61-47ea-884a-2da65714da1d",
      "resource": {
        "resourceType": "DiagnosticReport",
        "id": "1a69ecc3-6c61-47ea-884a-2da65714da1d",
        "meta": {
          "profile": [
            "http://hl7.eu/fhir/laboratory/StructureDefinition/DiagnosticReport-eu-lab"
          ]
        },
        "identifier": [
          {
            "assigner": {
              "display": "HL7 Europe"
            },
            "system": "urn:oid:2.16.840.1.113883.2.51.999",
            "value": "97edd449-0a68-4591-917f-8740da8e4a57"
          }
        ],
        "extension": [
          {
            "url": "http://hl7.org/fhir/5.0/StructureDefinition/extension-DiagnosticReport.composition",
            "valueReference": {
              "reference": "urn:uuid:2ceb192d-c038-4933-a7f3-72a86e66d31f"
            }
          }
        ],
        "category": [
          {
            "coding": [
              {
                "code": "26436-6",
                "system": "http://loinc.org",
                "display": "Laboratory studies (set)"
              }
            ]
          }
        ],
        "specimen": [
          {
            "reference": "urn:uuid:ea8c66e4-114e-4877-862a-8dc23eb662c5"
          },
          {
            "reference": "urn:uuid:662e8111-9649-4794-850c-54a19580009c"
          },
          {
            "reference": "urn:uuid:dd0fb649-fba0-4027-9a6d-c6db2e5b3904"
          }
        ],
        "result": [
          {
            "reference": "urn:uuid:461a1bb1-726b-49d3-846c-a93db05aa56b"
          },
          {
            "reference": "urn:uuid:a01d4758-567c-481e-9650-73c2219fd169"
          },
          {
            "reference": "urn:uuid:01860750-dbd3-488d-8411-f85db765bf6b"
          },
          {
            "reference": "urn:uuid:81ae6a19-9286-4628-8cdf-4fc4b817c306"
          },
          {
            "reference": "urn:uuid:b16961ad-f982-47cf-9bf0-e42f9dfb4163"
          },
          {
            "reference": "urn:uuid:43b91f53-6fa4-4711-9663-f41c00921b6b"
          },
          {
            "reference": "urn:uuid:609f893a-181a-4902-aa39-2ba8b817123e"
          },
          {
            "reference": "urn:uuid:869d59ea-50e1-4175-8912-b4ed315afa41"
          },
          {
            "reference": "urn:uuid:1757b64b-e284-43c4-8c84-955555cfff88"
          },
          {
            "reference": "urn:uuid:7021d191-78b7-471d-ba2c-89fa9c513bee"
          },
          {
            "reference": "urn:uuid:f981f64c-59c6-47e6-832d-4202f205856e"
          },
          {
            "reference": "urn:uuid:a83480d6-6a5b-41ba-a05d-38084744fe2b"
          },
          {
            "reference": "urn:uuid:5c35e6a1-a1b2-4103-9eab-f11604d89f28"
          },
          {
            "reference": "urn:uuid:965a9e76-5b69-472d-8f78-fb6f51e0f70a"
          },
          {
            "reference": "urn:uuid:cda0ddb3-9d5b-4395-bce1-299504e00ec4"
          },
          {
            "reference": "urn:uuid:5b39a96a-8ab2-444f-a2a9-6bcf2572350c"
          },
          {
            "reference": "urn:uuid:2e2a1186-2297-4f01-9e7c-d56e08fea15f"
          },
          {
            "reference": "urn:uuid:a0f7e8a9-8922-4096-ac0d-ebe84ac72e6c"
          },
          {
            "reference": "urn:uuid:5019c7c2-5a5d-43da-aa72-15b5ed838d2b"
          },
          {
            "reference": "urn:uuid:52e3da33-aae1-4db8-a674-b17a49952303"
          },
          {
            "reference": "urn:uuid:bc6ffca1-ccca-40a5-b847-c25b375dc044"
          },
          {
            "reference": "urn:uuid:78fa83d0-3915-4d06-ae85-529d146984f4"
          },
          {
            "reference": "urn:uuid:d96dab2b-9bd6-4dce-bd6e-b12ac9c36b0c"
          },
          {
            "reference": "urn:uuid:773066ba-42c9-4379-9531-0a10508e1154"
          },
          {
            "reference": "urn:uuid:4d724df1-a6d2-43aa-865d-f506ca87f3b8"
          },
          {
            "reference": "urn:uuid:2ab5d28c-e07b-4fac-bc91-53279b8b9d5c"
          }
        ],
        "status": "registered",
        "code": {
          "coding": [
            {
              "code": "11502-2",
              "system": "http://loinc.org",
              "display": "Laboratory report"
            }
          ]
        },
        "subject": {
          "reference": "urn:uuid:b0a6af0c-a998-4c56-a2af-c055a65b0c49",
          "display": "Maria Nohlmans"
        }
      }
    },
    {
      "fullUrl": "urn:uuid:b0a6af0c-a998-4c56-a2af-c055a65b0c49",
      "resource": {
        "resourceType": "Patient",
        "id": "b0a6af0c-a998-4c56-a2af-c055a65b0c49",
        "meta": {
          "security": [
            {
              "system": "http://terminology.hl7.org/CodeSystem/v3-ActReason",
              "code": "HTEST"
            },
            {
              "system": "http://terminology.hl7.org/CodeSystem/v3-ActReason",
              "code": "TRAIN"
            }
          ],
          "tag": [
            {
              "system": "https://synderai.net/fhir/CodeSystem/tags",
              "code": "synthetic",
              "display": "SYNDERAI Synthetic data"
            }
          ],
          "profile": [
            "http://hl7.eu/fhir/base/StructureDefinition/patient-eu-core"
          ]
        },
        "identifier": [
          {
            "type": {
              "coding": [
                {
                  "code": "PT",
                  "system": "http://terminology.hl7.org/CodeSystem/v2-0203"
                }
              ]
            },
            "system": "http://ec.europa.eu/identifier/eci",
            "value": "6886-506417-1"
          },
          {
            "type": {
              "coding": [
                {
                  "code": "MR",
                  "system": "http://terminology.hl7.org/CodeSystem/v2-0203"
                }
              ]
            },
            "system": "http://local.setting.eu/identifier",
            "value": "2cb21ed6-b617-b1f3-2290-589a710de5ee"
          }
        ],
        "name": [
          {
            "family": "Nohlmans"
          },
          {
            "given": [
              "Maria"
            ]
          },
          {
            "text": "Maria Nohlmans"
          }
        ],
        "address": [
          {
            "line": [
              "Alfons-Wulff-Weg 1"
            ],
            "use": "home",
            "type": "physical",
            "postalCode": "25813",
            "city": "Husum",
            "country": "Germany"
          }
        ],
        "telecom": [
          {
            "system": "phone",
            "value": "+49(0)1911 105501"
          }
        ],
        "extension": [
          {
            "url": "http://hl7.org/fhir/StructureDefinition/patient-nationality",
            "valueCodeableConcept": {
              "coding": [
                {
                  "code": "DE",
                  "system": "http://hl7.org/fhir/ValueSet/country"
                }
              ]
            }
          }
        ],
        "text": {
          "status": "generated",
          "div": "<div xmlns=\"http://www.w3.org/1999/xhtml\"><table class=\"hl7__ips\"><tr><td>Maria Nohlmans</td><td>female</td><td>11-Jun-1947</td></tr></table></div>"
        },
        "gender": "female",
        "birthDate": "1947-06-11"
      }
    },
    {
      "fullUrl": "urn:uuid:3e77c3fb-b64e-4de0-a480-4c543adcfd89",
      "resource": {
        "resourceType": "ServiceRequest",
        "id": "3e77c3fb-b64e-4de0-a480-4c543adcfd89",
        "meta": {
          "profile": [
            "http://hl7.eu/fhir/laboratory/StructureDefinition/ServiceRequest-eu-lab"
          ]
        },
        "identifier": [
          {
            "system": "http://example.org",
            "value": "2629ab34-e251-45f7-bc18-483451e9873b"
          }
        ],
        "specimen": [
          {
            "reference": "urn:uuid:ea8c66e4-114e-4877-862a-8dc23eb662c5"
          },
          {
            "reference": "urn:uuid:662e8111-9649-4794-850c-54a19580009c"
          },
          {
            "reference": "urn:uuid:dd0fb649-fba0-4027-9a6d-c6db2e5b3904"
          }
        ],
        "reasonCode": [
          {
            "coding": [
              {
                "code": "401314000",
                "system": "http://snomed.info/sct",
                "display": "Acute non-ST segment elevation myocardial infarction"
              }
            ]
          },
          {
            "coding": [
              {
                "code": "157141000119108",
                "system": "http://snomed.info/sct",
                "display": "Proteinuria due to type 2 diabetes mellitus"
              }
            ]
          },
          {
            "coding": [
              {
                "code": "237602007",
                "system": "http://snomed.info/sct",
                "display": "Metabolic syndrome X"
              }
            ]
          },
          {
            "coding": [
              {
                "code": "90781000119102",
                "system": "http://snomed.info/sct",
                "display": "Microalbuminuria due to type 2 diabetes mellitus"
              }
            ]
          },
          {
            "coding": [
              {
                "code": "127013003",
                "system": "http://snomed.info/sct",
                "display": "Disorder of kidney due to diabetes mellitus"
              }
            ]
          },
          {
            "coding": [
              {
                "code": "59621000",
                "system": "http://snomed.info/sct",
                "display": "Essential hypertension"
              }
            ]
          },
          {
            "coding": [
              {
                "code": "271737000",
                "system": "http://snomed.info/sct",
                "display": "Anemia"
              }
            ]
          },
          {
            "coding": [
              {
                "code": "15777000",
                "system": "http://snomed.info/sct",
                "display": "Prediabetes"
              }
            ]
          }
        ],
        "status": "active",
        "intent": "order",
        "code": {
          "coding": [
            {
              "code": "108252007",
              "system": "http://snomed.info/sct",
              "display": "Laboratory procedure"
            }
          ]
        },
        "subject": {
          "reference": "urn:uuid:b0a6af0c-a998-4c56-a2af-c055a65b0c49",
          "display": "Maria Nohlmans"
        },
        "requester": {
          "reference": "urn:uuid:3200abe3-b55b-4144-ad73-2fd110461faa"
        }
      }
    },
    {
      "fullUrl": "urn:uuid:3200abe3-b55b-4144-ad73-2fd110461faa",
      "resource": {
        "resourceType": "PractitionerRole",
        "id": "3200abe3-b55b-4144-ad73-2fd110461faa",
        "meta": {
          "profile": [
            "http://hl7.eu/fhir/base/StructureDefinition/practitionerRole-eu"
          ]
        },
        "text": {
          "status": "generated",
          "div": "<div xmlns=\"http://www.w3.org/1999/xhtml\">Provider Role Id: 3200abe3-b55b-4144-ad73-2fd110461faa</div>"
        },
        "organization": {
          "reference": "urn:uuid:2fa7e54a-b22b-487f-ba90-951fd03abd19"
        }
      }
    },
    {
      "fullUrl": "urn:uuid:2fa7e54a-b22b-487f-ba90-951fd03abd19",
      "resource": {
        "resourceType": "Organization",
        "id": "2fa7e54a-b22b-487f-ba90-951fd03abd19",
        "meta": {
          "profile": [
            "http://hl7.eu/fhir/base/StructureDefinition/organization-eu"
          ]
        },
        "identifier": [
          {
            "assigner": {
              "display": "HL7 Europe"
            },
            "system": "urn:oid:2.16.840.1.113883.2.51.999",
            "value": "32e3fcd0-b0d1-4f86-9a73-28e42aeac828"
          }
        ],
        "address": [
          {
            "line": [
              "Brinckmannstraße 35"
            ],
            "city": "Husum",
            "postalCode": "25813",
            "country": "Germany"
          }
        ],
        "text": {
          "status": "generated",
          "div": "<div xmlns=\"http://www.w3.org/1999/xhtml\">Provider Organization: Dr. Wolfram Hussels Kieferorthopäde</div>"
        },
        "name": "Dr. Wolfram Hussels Kieferorthopäde"
      }
    },
    {
      "fullUrl": "urn:uuid:ea8c66e4-114e-4877-862a-8dc23eb662c5",
      "resource": {
        "resourceType": "Specimen",
        "id": "ea8c66e4-114e-4877-862a-8dc23eb662c5",
        "meta": {
          "profile": [
            "http://hl7.eu/fhir/laboratory/StructureDefinition/Specimen-eu-lab"
          ]
        },
        "collection": {
          "collectedDateTime": "2017-03-15"
        },
        "text": {
          "status": "generated",
          "div": "<div xmlns=\"http://www.w3.org/1999/xhtml\"><table class=\"hl7__eu__lab__report\"><tr><th>Specimen</th><th>Collection Date</th></tr><tr><td>Acellular blood (serum or plasma) specimen</td><td><span class=\"nb\">15-Mar-2017</span></td></tr></table></div>"
        },
        "type": {
          "coding": [
            {
              "code": "122592007",
              "system": "http://snomed.info/sct",
              "display": "Acellular blood (serum or plasma) specimen"
            }
          ]
        }
      }
    },
    {
      "fullUrl": "urn:uuid:662e8111-9649-4794-850c-54a19580009c",
      "resource": {
        "resourceType": "Specimen",
        "id": "662e8111-9649-4794-850c-54a19580009c",
        "meta": {
          "profile": [
            "http://hl7.eu/fhir/laboratory/StructureDefinition/Specimen-eu-lab"
          ]
        },
        "collection": {
          "collectedDateTime": "2017-03-15"
        },
        "text": {
          "status": "generated",
          "div": "<div xmlns=\"http://www.w3.org/1999/xhtml\"><table class=\"hl7__eu__lab__report\"><tr><th>Specimen</th><th>Collection Date</th></tr><tr><td>Urine specimen</td><td><span class=\"nb\">15-Mar-2017</span></td></tr></table></div>"
        },
        "type": {
          "coding": [
            {
              "code": "122575003",
              "system": "http://snomed.info/sct",
              "display": "Urine specimen"
            }
          ]
        }
      }
    },
    {
      "fullUrl": "urn:uuid:dd0fb649-fba0-4027-9a6d-c6db2e5b3904",
      "resource": {
        "resourceType": "Specimen",
        "id": "dd0fb649-fba0-4027-9a6d-c6db2e5b3904",
        "meta": {
          "profile": [
            "http://hl7.eu/fhir/laboratory/StructureDefinition/Specimen-eu-lab"
          ]
        },
        "collection": {
          "collectedDateTime": "2017-03-15"
        },
        "text": {
          "status": "generated",
          "div": "<div xmlns=\"http://www.w3.org/1999/xhtml\"><table class=\"hl7__eu__lab__report\"><tr><th>Specimen</th><th>Collection Date</th></tr><tr><td>Whole blood specimen (specimen)</td><td><span class=\"nb\">15-Mar-2017</span></td></tr></table></div>"
        },
        "type": {
          "coding": [
            {
              "code": "258580003",
              "system": "http://snomed.info/sct",
              "display": "Whole blood specimen (specimen)"
            }
          ]
        }
      }
    },
    {
      "fullUrl": "urn:uuid:461a1bb1-726b-49d3-846c-a93db05aa56b",
      "resource": {
        "resourceType": "Observation",
        "id": "461a1bb1-726b-49d3-846c-a93db05aa56b",
        "meta": {
          "profile": [
            "http://hl7.eu/fhir/laboratory/StructureDefinition/Observation-resultslab-eu-lab"
          ]
        },
        "performer": [
          {
            "display": "The Central European Lab"
          }
        ],
        "category": [
          {
            "coding": [
              {
                "system": "http://terminology.hl7.org/CodeSystem/observation-category",
                "code": "laboratory"
              }
            ]
          }
        ],
        "code": {
          "coding": [
            {
              "code": "2345-7",
              "system": "http://loinc.org",
              "display": "Glucose [Mass/volume] in Serum or Plasma"
            }
          ],
          "text": "Glucose [Mass/volume] in Serum or Plasma"
        },
        "valueQuantity": {
          "system": "http://unitsofmeasure.org",
          "value": 94.9,
          "unit": "mg/dL",
          "code": "mg/dL"
        },
        "referenceRange": [
          {
            "low": {
              "value": 70,
              "code": "mg/dL",
              "system": "http://unitsofmeasure.org"
            }
          },
          {
            "high": {
              "value": 140,
              "code": "mg/dL",
              "system": "http://unitsofmeasure.org"
            }
          }
        ],
        "text": {
          "status": "generated",
          "div": "<div xmlns=\"http://www.w3.org/1999/xhtml\"><table class=\"hl7__eu__lab__report\"><tr><th>Test</th><th>15-Mar-2017</th><th>Reference&#xA0;Range</th><th>Unit</th></tr><tr><td>Glucose [Mass/volume] in Serum or Plasma</td><td>94.9</td><td>70 - 140</td><td></td><td>mg/dL</td></tr></table></div>"
        },
        "status": "final",
        "subject": {
          "reference": "urn:uuid:b0a6af0c-a998-4c56-a2af-c055a65b0c49",
          "display": "Maria Nohlmans"
        },
        "effectiveDateTime": "2017-03-15T11:02:39Z",
        "specimen": {
          "reference": "urn:uuid:ea8c66e4-114e-4877-862a-8dc23eb662c5"
        }
      }
    },
    {
      "fullUrl": "urn:uuid:a01d4758-567c-481e-9650-73c2219fd169",
      "resource": {
        "resourceType": "Observation",
        "id": "a01d4758-567c-481e-9650-73c2219fd169",
        "meta": {
          "profile": [
            "http://hl7.eu/fhir/laboratory/StructureDefinition/Observation-resultslab-eu-lab"
          ]
        },
        "performer": [
          {
            "display": "The Central European Lab"
          }
        ],
        "category": [
          {
            "coding": [
              {
                "system": "http://terminology.hl7.org/CodeSystem/observation-category",
                "code": "laboratory"
              }
            ]
          }
        ],
        "code": {
          "coding": [
            {
              "code": "3094-0",
              "system": "http://loinc.org",
              "display": "Urea nitrogen [Mass/volume] in Serum or Plasma"
            }
          ],
          "text": "Urea nitrogen [Mass/volume] in Serum or Plasma"
        },
        "valueQuantity": {
          "system": "http://unitsofmeasure.org",
          "value": 13.7,
          "unit": "mg/dL",
          "code": "mg/dL"
        },
        "referenceRange": [
          {
            "low": {
              "value": 7,
              "code": "mg/dL",
              "system": "http://unitsofmeasure.org"
            }
          },
          {
            "high": {
              "value": 20,
              "code": "mg/dL",
              "system": "http://unitsofmeasure.org"
            }
          }
        ],
        "text": {
          "status": "generated",
          "div": "<div xmlns=\"http://www.w3.org/1999/xhtml\"><table class=\"hl7__eu__lab__report\"><tr><th>Test</th><th>15-Mar-2017</th><th>Reference&#xA0;Range</th><th>Unit</th></tr><tr><td>Urea nitrogen [Mass/volume] in Serum or Plasma</td><td>13.7</td><td>7 - 20</td><td></td><td>mg/dL</td></tr></table></div>"
        },
        "status": "final",
        "subject": {
          "reference": "urn:uuid:b0a6af0c-a998-4c56-a2af-c055a65b0c49",
          "display": "Maria Nohlmans"
        },
        "effectiveDateTime": "2017-03-15T11:02:39Z",
        "specimen": {
          "reference": "urn:uuid:ea8c66e4-114e-4877-862a-8dc23eb662c5"
        }
      }
    },
    {
      "fullUrl": "urn:uuid:01860750-dbd3-488d-8411-f85db765bf6b",
      "resource": {
        "resourceType": "Observation",
        "id": "01860750-dbd3-488d-8411-f85db765bf6b",
        "meta": {
          "profile": [
            "http://hl7.eu/fhir/laboratory/StructureDefinition/Observation-resultslab-eu-lab"
          ]
        },
        "performer": [
          {
            "display": "The Central European Lab"
          }
        ],
        "category": [
          {
            "coding": [
              {
                "system": "http://terminology.hl7.org/CodeSystem/observation-category",
                "code": "laboratory"
              }
            ]
          }
        ],
        "code": {
          "coding": [
            {
              "code": "2160-0",
              "system": "http://loinc.org",
              "display": "Creatinine [Mass/volume] in Serum or Plasma"
            }
          ],
          "text": "Creatinine [Mass/volume] in Serum or Plasma"
        },
        "valueQuantity": {
          "system": "http://unitsofmeasure.org",
          "value": 2.5,
          "unit": "mg/dL",
          "code": "mg/dL"
        },
        "referenceRange": [
          {
            "low": {
              "value": 0.6,
              "code": "mg/dL",
              "system": "http://unitsofmeasure.org"
            }
          },
          {
            "high": {
              "value": 1.3,
              "code": "mg/dL",
              "system": "http://unitsofmeasure.org"
            }
          }
        ],
        "interpretation": [
          {
            "coding": [
              {
                "code": "H",
                "system": "http://terminology.hl7.org/CodeSystem/v3-ObservationInterpretation",
                "display": "High"
              }
            ]
          }
        ],
        "text": {
          "status": "generated",
          "div": "<div xmlns=\"http://www.w3.org/1999/xhtml\"><table class=\"hl7__eu__lab__report\"><tr><th>Test</th><th>15-Mar-2017</th><th>Reference&#xA0;Range</th><th>Unit</th></tr><tr><td>Creatinine [Mass/volume] in Serum or Plasma</td><td>2.5</td><td>0.6 - 1.3</td><td>H</td><td>mg/dL</td></tr></table></div>"
        },
        "status": "final",
        "subject": {
          "reference": "urn:uuid:b0a6af0c-a998-4c56-a2af-c055a65b0c49",
          "display": "Maria Nohlmans"
        },
        "effectiveDateTime": "2017-03-15T11:02:39Z",
        "specimen": {
          "reference": "urn:uuid:ea8c66e4-114e-4877-862a-8dc23eb662c5"
        }
      }
    },
    {
      "fullUrl": "urn:uuid:81ae6a19-9286-4628-8cdf-4fc4b817c306",
      "resource": {
        "resourceType": "Observation",
        "id": "81ae6a19-9286-4628-8cdf-4fc4b817c306",
        "meta": {
          "profile": [
            "http://hl7.eu/fhir/laboratory/StructureDefinition/Observation-resultslab-eu-lab"
          ]
        },
        "performer": [
          {
            "display": "The Central European Lab"
          }
        ],
        "category": [
          {
            "coding": [
              {
                "system": "http://terminology.hl7.org/CodeSystem/observation-category",
                "code": "laboratory"
              }
            ]
          }
        ],
        "code": {
          "coding": [
            {
              "code": "17861-6",
              "system": "http://loinc.org",
              "display": "Calcium [Mass/volume] in Serum or Plasma"
            }
          ],
          "text": "Calcium [Mass/volume] in Serum or Plasma"
        },
        "valueQuantity": {
          "system": "http://unitsofmeasure.org",
          "value": 8.6,
          "unit": "mg/dL",
          "code": "mg/dL"
        },
        "referenceRange": [
          {
            "low": {
              "value": 8.6,
              "code": "mg/dL",
              "system": "http://unitsofmeasure.org"
            }
          },
          {
            "high": {
              "value": 10.4,
              "code": "mg/dL",
              "system": "http://unitsofmeasure.org"
            }
          }
        ],
        "text": {
          "status": "generated",
          "div": "<div xmlns=\"http://www.w3.org/1999/xhtml\"><table class=\"hl7__eu__lab__report\"><tr><th>Test</th><th>15-Mar-2017</th><th>Reference&#xA0;Range</th><th>Unit</th></tr><tr><td>Calcium [Mass/volume] in Serum or Plasma</td><td>8.6</td><td>8.6 - 10.4</td><td></td><td>mg/dL</td></tr></table></div>"
        },
        "status": "final",
        "subject": {
          "reference": "urn:uuid:b0a6af0c-a998-4c56-a2af-c055a65b0c49",
          "display": "Maria Nohlmans"
        },
        "effectiveDateTime": "2017-03-15T11:02:39Z",
        "specimen": {
          "reference": "urn:uuid:ea8c66e4-114e-4877-862a-8dc23eb662c5"
        }
      }
    },
    {
      "fullUrl": "urn:uuid:b16961ad-f982-47cf-9bf0-e42f9dfb4163",
      "resource": {
        "resourceType": "Observation",
        "id": "b16961ad-f982-47cf-9bf0-e42f9dfb4163",
        "meta": {
          "profile": [
            "http://hl7.eu/fhir/laboratory/StructureDefinition/Observation-resultslab-eu-lab"
          ]
        },
        "performer": [
          {
            "display": "The Central European Lab"
          }
        ],
        "category": [
          {
            "coding": [
              {
                "system": "http://terminology.hl7.org/CodeSystem/observation-category",
                "code": "laboratory"
              }
            ]
          }
        ],
        "code": {
          "coding": [
            {
              "code": "2951-2",
              "system": "http://loinc.org",
              "display": "Sodium [Moles/volume] in Serum or Plasma"
            }
          ],
          "text": "Sodium [Moles/volume] in Serum or Plasma"
        },
        "valueQuantity": {
          "system": "http://unitsofmeasure.org",
          "value": 136.8,
          "unit": "mmol/L",
          "code": "mmol/L"
        },
        "referenceRange": [
          {
            "low": {
              "value": 135,
              "code": "mmol/L",
              "system": "http://unitsofmeasure.org"
            }
          },
          {
            "high": {
              "value": 145,
              "code": "mmol/L",
              "system": "http://unitsofmeasure.org"
            }
          }
        ],
        "text": {
          "status": "generated",
          "div": "<div xmlns=\"http://www.w3.org/1999/xhtml\"><table class=\"hl7__eu__lab__report\"><tr><th>Test</th><th>15-Mar-2017</th><th>Reference&#xA0;Range</th><th>Unit</th></tr><tr><td>Sodium [Moles/volume] in Serum or Plasma</td><td>136.8</td><td>135 - 145</td><td></td><td>mmol/L</td></tr></table></div>"
        },
        "status": "final",
        "subject": {
          "reference": "urn:uuid:b0a6af0c-a998-4c56-a2af-c055a65b0c49",
          "display": "Maria Nohlmans"
        },
        "effectiveDateTime": "2017-03-15T11:02:39Z",
        "specimen": {
          "reference": "urn:uuid:ea8c66e4-114e-4877-862a-8dc23eb662c5"
        }
      }
    },
    {
      "fullUrl": "urn:uuid:43b91f53-6fa4-4711-9663-f41c00921b6b",
      "resource": {
        "resourceType": "Observation",
        "id": "43b91f53-6fa4-4711-9663-f41c00921b6b",
        "meta": {
          "profile": [
            "http://hl7.eu/fhir/laboratory/StructureDefinition/Observation-resultslab-eu-lab"
          ]
        },
        "performer": [
          {
            "display": "The Central European Lab"
          }
        ],
        "category": [
          {
            "coding": [
              {
                "system": "http://terminology.hl7.org/CodeSystem/observation-category",
                "code": "laboratory"
              }
            ]
          }
        ],
        "code": {
          "coding": [
            {
              "code": "2823-3",
              "system": "http://loinc.org",
              "display": "Potassium [Moles/volume] in Serum or Plasma"
            }
          ],
          "text": "Potassium [Moles/volume] in Serum or Plasma"
        },
        "valueQuantity": {
          "system": "http://unitsofmeasure.org",
          "value": 4.9,
          "unit": "mmol/L",
          "code": "mmol/L"
        },
        "referenceRange": [
          {
            "low": {
              "value": 3.5,
              "code": "mmol/L",
              "system": "http://unitsofmeasure.org"
            }
          },
          {
            "high": {
              "value": 5.1,
              "code": "mmol/L",
              "system": "http://unitsofmeasure.org"
            }
          }
        ],
        "text": {
          "status": "generated",
          "div": "<div xmlns=\"http://www.w3.org/1999/xhtml\"><table class=\"hl7__eu__lab__report\"><tr><th>Test</th><th>15-Mar-2017</th><th>Reference&#xA0;Range</th><th>Unit</th></tr><tr><td>Potassium [Moles/volume] in Serum or Plasma</td><td>4.9</td><td>3.5 - 5.1</td><td></td><td>mmol/L</td></tr></table></div>"
        },
        "status": "final",
        "subject": {
          "reference": "urn:uuid:b0a6af0c-a998-4c56-a2af-c055a65b0c49",
          "display": "Maria Nohlmans"
        },
        "effectiveDateTime": "2017-03-15T11:02:39Z",
        "specimen": {
          "reference": "urn:uuid:ea8c66e4-114e-4877-862a-8dc23eb662c5"
        }
      }
    },
    {
      "fullUrl": "urn:uuid:609f893a-181a-4902-aa39-2ba8b817123e",
      "resource": {
        "resourceType": "Observation",
        "id": "609f893a-181a-4902-aa39-2ba8b817123e",
        "meta": {
          "profile": [
            "http://hl7.eu/fhir/laboratory/StructureDefinition/Observation-resultslab-eu-lab"
          ]
        },
        "performer": [
          {
            "display": "The Central European Lab"
          }
        ],
        "category": [
          {
            "coding": [
              {
                "system": "http://terminology.hl7.org/CodeSystem/observation-category",
                "code": "laboratory"
              }
            ]
          }
        ],
        "code": {
          "coding": [
            {
              "code": "2075-0",
              "system": "http://loinc.org",
              "display": "Chloride [Moles/volume] in Serum or Plasma"
            }
          ],
          "text": "Chloride [Moles/volume] in Serum or Plasma"
        },
        "valueQuantity": {
          "system": "http://unitsofmeasure.org",
          "value": 103.4,
          "unit": "mmol/L",
          "code": "mmol/L"
        },
        "referenceRange": [
          {
            "low": {
              "value": 98,
              "code": "mmol/L",
              "system": "http://unitsofmeasure.org"
            }
          },
          {
            "high": {
              "value": 108,
              "code": "mmol/L",
              "system": "http://unitsofmeasure.org"
            }
          }
        ],
        "text": {
          "status": "generated",
          "div": "<div xmlns=\"http://www.w3.org/1999/xhtml\"><table class=\"hl7__eu__lab__report\"><tr><th>Test</th><th>15-Mar-2017</th><th>Reference&#xA0;Range</th><th>Unit</th></tr><tr><td>Chloride [Moles/volume] in Serum or Plasma</td><td>103.4</td><td>98 - 108</td><td></td><td>mmol/L</td></tr></table></div>"
        },
        "status": "final",
        "subject": {
          "reference": "urn:uuid:b0a6af0c-a998-4c56-a2af-c055a65b0c49",
          "display": "Maria Nohlmans"
        },
        "effectiveDateTime": "2017-03-15T11:02:39Z",
        "specimen": {
          "reference": "urn:uuid:ea8c66e4-114e-4877-862a-8dc23eb662c5"
        }
      }
    },
    {
      "fullUrl": "urn:uuid:869d59ea-50e1-4175-8912-b4ed315afa41",
      "resource": {
        "resourceType": "Observation",
        "id": "869d59ea-50e1-4175-8912-b4ed315afa41",
        "meta": {
          "profile": [
            "http://hl7.eu/fhir/laboratory/StructureDefinition/Observation-resultslab-eu-lab"
          ]
        },
        "performer": [
          {
            "display": "The Central European Lab"
          }
        ],
        "category": [
          {
            "coding": [
              {
                "system": "http://terminology.hl7.org/CodeSystem/observation-category",
                "code": "laboratory"
              }
            ]
          }
        ],
        "code": {
          "coding": [
            {
              "code": "2028-9",
              "system": "http://loinc.org",
              "display": "Carbon dioxide, total [Moles/volume] in Serum or Plasma"
            }
          ],
          "text": "Carbon dioxide, total [Moles/volume] in Serum or Plasma"
        },
        "valueQuantity": {
          "system": "http://unitsofmeasure.org",
          "value": 26.9,
          "unit": "mmol/L",
          "code": "mmol/L"
        },
        "referenceRange": [
          {
            "low": {
              "value": 22,
              "code": "mmol/L",
              "system": "http://unitsofmeasure.org"
            }
          },
          {
            "high": {
              "value": 32,
              "code": "mmol/L",
              "system": "http://unitsofmeasure.org"
            }
          }
        ],
        "text": {
          "status": "generated",
          "div": "<div xmlns=\"http://www.w3.org/1999/xhtml\"><table class=\"hl7__eu__lab__report\"><tr><th>Test</th><th>15-Mar-2017</th><th>Reference&#xA0;Range</th><th>Unit</th></tr><tr><td>Carbon dioxide, total [Moles/volume] in Serum or Plasma</td><td>26.9</td><td>22 - 32</td><td></td><td>mmol/L</td></tr></table></div>"
        },
        "status": "final",
        "subject": {
          "reference": "urn:uuid:b0a6af0c-a998-4c56-a2af-c055a65b0c49",
          "display": "Maria Nohlmans"
        },
        "effectiveDateTime": "2017-03-15T11:02:39Z",
        "specimen": {
          "reference": "urn:uuid:ea8c66e4-114e-4877-862a-8dc23eb662c5"
        }
      }
    },
    {
      "fullUrl": "urn:uuid:1757b64b-e284-43c4-8c84-955555cfff88",
      "resource": {
        "resourceType": "Observation",
        "id": "1757b64b-e284-43c4-8c84-955555cfff88",
        "meta": {
          "profile": [
            "http://hl7.eu/fhir/laboratory/StructureDefinition/Observation-resultslab-eu-lab"
          ]
        },
        "performer": [
          {
            "display": "The Central European Lab"
          }
        ],
        "category": [
          {
            "coding": [
              {
                "system": "http://terminology.hl7.org/CodeSystem/observation-category",
                "code": "laboratory"
              }
            ]
          }
        ],
        "code": {
          "coding": [
            {
              "code": "5767-9",
              "system": "http://loinc.org",
              "display": "Appearance of Urine"
            }
          ],
          "text": "Appearance of Urine"
        },
        "text": {
          "status": "generated",
          "div": "<div xmlns=\"http://www.w3.org/1999/xhtml\"><table class=\"hl7__eu__lab__report\"><tr><th>Test</th><th>15-Mar-2017</th><th>Reference&#xA0;Range</th><th>Unit</th></tr><tr><td>Appearance of Urine</td></tr></table></div>"
        },
        "status": "final",
        "subject": {
          "reference": "urn:uuid:b0a6af0c-a998-4c56-a2af-c055a65b0c49",
          "display": "Maria Nohlmans"
        },
        "effectiveDateTime": "2017-03-15T11:02:39Z",
        "specimen": {
          "reference": "urn:uuid:662e8111-9649-4794-850c-54a19580009c"
        }
      }
    },
    {
      "fullUrl": "urn:uuid:7021d191-78b7-471d-ba2c-89fa9c513bee",
      "resource": {
        "resourceType": "Observation",
        "id": "7021d191-78b7-471d-ba2c-89fa9c513bee",
        "meta": {
          "profile": [
            "http://hl7.eu/fhir/laboratory/StructureDefinition/Observation-resultslab-eu-lab"
          ]
        },
        "performer": [
          {
            "display": "The Central European Lab"
          }
        ],
        "category": [
          {
            "coding": [
              {
                "system": "http://terminology.hl7.org/CodeSystem/observation-category",
                "code": "laboratory"
              }
            ]
          }
        ],
        "code": {
          "coding": [
            {
              "code": "34533-0",
              "system": "http://loinc.org",
              "display": "Odor of Urine"
            }
          ],
          "text": "Odor of Urine"
        },
        "text": {
          "status": "generated",
          "div": "<div xmlns=\"http://www.w3.org/1999/xhtml\"><table class=\"hl7__eu__lab__report\"><tr><th>Test</th><th>15-Mar-2017</th><th>Reference&#xA0;Range</th><th>Unit</th></tr><tr><td>Odor of Urine</td></tr></table></div>"
        },
        "status": "final",
        "subject": {
          "reference": "urn:uuid:b0a6af0c-a998-4c56-a2af-c055a65b0c49",
          "display": "Maria Nohlmans"
        },
        "effectiveDateTime": "2017-03-15T11:02:39Z",
        "specimen": {
          "reference": "urn:uuid:662e8111-9649-4794-850c-54a19580009c"
        }
      }
    },
    {
      "fullUrl": "urn:uuid:f981f64c-59c6-47e6-832d-4202f205856e",
      "resource": {
        "resourceType": "Observation",
        "id": "f981f64c-59c6-47e6-832d-4202f205856e",
        "meta": {
          "profile": [
            "http://hl7.eu/fhir/laboratory/StructureDefinition/Observation-resultslab-eu-lab"
          ]
        },
        "performer": [
          {
            "display": "The Central European Lab"
          }
        ],
        "category": [
          {
            "coding": [
              {
                "system": "http://terminology.hl7.org/CodeSystem/observation-category",
                "code": "laboratory"
              }
            ]
          }
        ],
        "code": {
          "coding": [
            {
              "code": "32167-9",
              "system": "http://loinc.org",
              "display": "Clarity of Urine"
            }
          ],
          "text": "Clarity of Urine"
        },
        "text": {
          "status": "generated",
          "div": "<div xmlns=\"http://www.w3.org/1999/xhtml\"><table class=\"hl7__eu__lab__report\"><tr><th>Test</th><th>15-Mar-2017</th><th>Reference&#xA0;Range</th><th>Unit</th></tr><tr><td>Clarity of Urine</td></tr></table></div>"
        },
        "status": "final",
        "subject": {
          "reference": "urn:uuid:b0a6af0c-a998-4c56-a2af-c055a65b0c49",
          "display": "Maria Nohlmans"
        },
        "effectiveDateTime": "2017-03-15T11:02:39Z",
        "specimen": {
          "reference": "urn:uuid:662e8111-9649-4794-850c-54a19580009c"
        }
      }
    },
    {
      "fullUrl": "urn:uuid:a83480d6-6a5b-41ba-a05d-38084744fe2b",
      "resource": {
        "resourceType": "Observation",
        "id": "a83480d6-6a5b-41ba-a05d-38084744fe2b",
        "meta": {
          "profile": [
            "http://hl7.eu/fhir/laboratory/StructureDefinition/Observation-resultslab-eu-lab"
          ]
        },
        "performer": [
          {
            "display": "The Central European Lab"
          }
        ],
        "category": [
          {
            "coding": [
              {
                "system": "http://terminology.hl7.org/CodeSystem/observation-category",
                "code": "laboratory"
              }
            ]
          }
        ],
        "code": {
          "coding": [
            {
              "code": "5778-6",
              "system": "http://loinc.org",
              "display": "Color of Urine"
            }
          ],
          "text": "Color of Urine"
        },
        "text": {
          "status": "generated",
          "div": "<div xmlns=\"http://www.w3.org/1999/xhtml\"><table class=\"hl7__eu__lab__report\"><tr><th>Test</th><th>15-Mar-2017</th><th>Reference&#xA0;Range</th><th>Unit</th></tr><tr><td>Color of Urine</td></tr></table></div>"
        },
        "status": "final",
        "subject": {
          "reference": "urn:uuid:b0a6af0c-a998-4c56-a2af-c055a65b0c49",
          "display": "Maria Nohlmans"
        },
        "effectiveDateTime": "2017-03-15T11:02:39Z",
        "specimen": {
          "reference": "urn:uuid:662e8111-9649-4794-850c-54a19580009c"
        }
      }
    },
    {
      "fullUrl": "urn:uuid:5c35e6a1-a1b2-4103-9eab-f11604d89f28",
      "resource": {
        "resourceType": "Observation",
        "id": "5c35e6a1-a1b2-4103-9eab-f11604d89f28",
        "meta": {
          "profile": [
            "http://hl7.eu/fhir/laboratory/StructureDefinition/Observation-resultslab-eu-lab"
          ]
        },
        "performer": [
          {
            "display": "The Central European Lab"
          }
        ],
        "category": [
          {
            "coding": [
              {
                "system": "http://terminology.hl7.org/CodeSystem/observation-category",
                "code": "laboratory"
              }
            ]
          }
        ],
        "code": {
          "coding": [
            {
              "code": "5792-7",
              "system": "http://loinc.org",
              "display": "Glucose [Mass/volume] in Urine by Test strip"
            }
          ],
          "text": "Glucose [Mass/volume] in Urine by Test strip"
        },
        "valueQuantity": {
          "system": "http://unitsofmeasure.org",
          "value": 1.5,
          "unit": "mg/dL",
          "code": "mg/dL"
        },
        "referenceRange": [
          {
            "low": {
              "value": 0.8,
              "code": "mg/dL",
              "system": "http://unitsofmeasure.org"
            }
          },
          {
            "high": {
              "value": 0,
              "code": "mg/dL",
              "system": "http://unitsofmeasure.org"
            }
          }
        ],
        "interpretation": [
          {
            "coding": [
              {
                "code": "H",
                "system": "http://terminology.hl7.org/CodeSystem/v3-ObservationInterpretation",
                "display": "High"
              }
            ]
          }
        ],
        "text": {
          "status": "generated",
          "div": "<div xmlns=\"http://www.w3.org/1999/xhtml\"><table class=\"hl7__eu__lab__report\"><tr><th>Test</th><th>15-Mar-2017</th><th>Reference&#xA0;Range</th><th>Unit</th></tr><tr><td>Glucose [Mass/volume] in Urine by Test strip</td><td>1.5</td><td>0.8 - 0</td><td>H</td><td>mg/dL</td></tr></table></div>"
        },
        "status": "final",
        "subject": {
          "reference": "urn:uuid:b0a6af0c-a998-4c56-a2af-c055a65b0c49",
          "display": "Maria Nohlmans"
        },
        "effectiveDateTime": "2017-03-15T11:02:39Z",
        "specimen": {
          "reference": "urn:uuid:662e8111-9649-4794-850c-54a19580009c"
        }
      }
    },
    {
      "fullUrl": "urn:uuid:965a9e76-5b69-472d-8f78-fb6f51e0f70a",
      "resource": {
        "resourceType": "Observation",
        "id": "965a9e76-5b69-472d-8f78-fb6f51e0f70a",
        "meta": {
          "profile": [
            "http://hl7.eu/fhir/laboratory/StructureDefinition/Observation-resultslab-eu-lab"
          ]
        },
        "performer": [
          {
            "display": "The Central European Lab"
          }
        ],
        "category": [
          {
            "coding": [
              {
                "system": "http://terminology.hl7.org/CodeSystem/observation-category",
                "code": "laboratory"
              }
            ]
          }
        ],
        "code": {
          "coding": [
            {
              "code": "25428-4",
              "system": "http://loinc.org",
              "display": "Glucose [Presence] in Urine by Test strip"
            }
          ],
          "text": "Glucose [Presence] in Urine by Test strip"
        },
        "text": {
          "status": "generated",
          "div": "<div xmlns=\"http://www.w3.org/1999/xhtml\"><table class=\"hl7__eu__lab__report\"><tr><th>Test</th><th>15-Mar-2017</th><th>Reference&#xA0;Range</th><th>Unit</th></tr><tr><td>Glucose [Presence] in Urine by Test strip</td></tr></table></div>"
        },
        "status": "final",
        "subject": {
          "reference": "urn:uuid:b0a6af0c-a998-4c56-a2af-c055a65b0c49",
          "display": "Maria Nohlmans"
        },
        "effectiveDateTime": "2017-03-15T11:02:39Z",
        "specimen": {
          "reference": "urn:uuid:662e8111-9649-4794-850c-54a19580009c"
        }
      }
    },
    {
      "fullUrl": "urn:uuid:cda0ddb3-9d5b-4395-bce1-299504e00ec4",
      "resource": {
        "resourceType": "Observation",
        "id": "cda0ddb3-9d5b-4395-bce1-299504e00ec4",
        "meta": {
          "profile": [
            "http://hl7.eu/fhir/laboratory/StructureDefinition/Observation-resultslab-eu-lab"
          ]
        },
        "performer": [
          {
            "display": "The Central European Lab"
          }
        ],
        "category": [
          {
            "coding": [
              {
                "system": "http://terminology.hl7.org/CodeSystem/observation-category",
                "code": "laboratory"
              }
            ]
          }
        ],
        "code": {
          "coding": [
            {
              "code": "20505-4",
              "system": "http://loinc.org",
              "display": "Bilirubin.total [Mass/volume] in Urine by Test strip"
            }
          ],
          "text": "Bilirubin.total [Mass/volume] in Urine by Test strip"
        },
        "valueQuantity": {
          "system": "http://unitsofmeasure.org",
          "value": 0.5,
          "unit": "mg/dL",
          "code": "mg/dL"
        },
        "referenceRange": [
          {
            "low": {
              "value": 0,
              "code": "mg/dL",
              "system": "http://unitsofmeasure.org"
            }
          },
          {
            "high": {
              "value": 1.5,
              "code": "mg/dL",
              "system": "http://unitsofmeasure.org"
            }
          }
        ],
        "text": {
          "status": "generated",
          "div": "<div xmlns=\"http://www.w3.org/1999/xhtml\"><table class=\"hl7__eu__lab__report\"><tr><th>Test</th><th>15-Mar-2017</th><th>Reference&#xA0;Range</th><th>Unit</th></tr><tr><td>Bilirubin.total [Mass/volume] in Urine by Test strip</td><td>0.5</td><td>0 - 1.5</td><td></td><td>mg/dL</td></tr></table></div>"
        },
        "status": "final",
        "subject": {
          "reference": "urn:uuid:b0a6af0c-a998-4c56-a2af-c055a65b0c49",
          "display": "Maria Nohlmans"
        },
        "effectiveDateTime": "2017-03-15T11:02:39Z",
        "specimen": {
          "reference": "urn:uuid:662e8111-9649-4794-850c-54a19580009c"
        }
      }
    },
    {
      "fullUrl": "urn:uuid:5b39a96a-8ab2-444f-a2a9-6bcf2572350c",
      "resource": {
        "resourceType": "Observation",
        "id": "5b39a96a-8ab2-444f-a2a9-6bcf2572350c",
        "meta": {
          "profile": [
            "http://hl7.eu/fhir/laboratory/StructureDefinition/Observation-resultslab-eu-lab"
          ]
        },
        "performer": [
          {
            "display": "The Central European Lab"
          }
        ],
        "category": [
          {
            "coding": [
              {
                "system": "http://terminology.hl7.org/CodeSystem/observation-category",
                "code": "laboratory"
              }
            ]
          }
        ],
        "code": {
          "coding": [
            {
              "code": "5770-3",
              "system": "http://loinc.org",
              "display": "Bilirubin.total [Presence] in Urine by Test strip"
            }
          ],
          "text": "Bilirubin.total [Presence] in Urine by Test strip"
        },
        "text": {
          "status": "generated",
          "div": "<div xmlns=\"http://www.w3.org/1999/xhtml\"><table class=\"hl7__eu__lab__report\"><tr><th>Test</th><th>15-Mar-2017</th><th>Reference&#xA0;Range</th><th>Unit</th></tr><tr><td>Bilirubin.total [Presence] in Urine by Test strip</td></tr></table></div>"
        },
        "status": "final",
        "subject": {
          "reference": "urn:uuid:b0a6af0c-a998-4c56-a2af-c055a65b0c49",
          "display": "Maria Nohlmans"
        },
        "effectiveDateTime": "2017-03-15T11:02:39Z",
        "specimen": {
          "reference": "urn:uuid:662e8111-9649-4794-850c-54a19580009c"
        }
      }
    },
    {
      "fullUrl": "urn:uuid:2e2a1186-2297-4f01-9e7c-d56e08fea15f",
      "resource": {
        "resourceType": "Observation",
        "id": "2e2a1186-2297-4f01-9e7c-d56e08fea15f",
        "meta": {
          "profile": [
            "http://hl7.eu/fhir/laboratory/StructureDefinition/Observation-resultslab-eu-lab"
          ]
        },
        "performer": [
          {
            "display": "The Central European Lab"
          }
        ],
        "category": [
          {
            "coding": [
              {
                "system": "http://terminology.hl7.org/CodeSystem/observation-category",
                "code": "laboratory"
              }
            ]
          }
        ],
        "code": {
          "coding": [
            {
              "code": "5797-6",
              "system": "http://loinc.org",
              "display": "Ketones [Mass/volume] in Urine by Test strip"
            }
          ],
          "text": "Ketones [Mass/volume] in Urine by Test strip"
        },
        "valueQuantity": {
          "system": "http://unitsofmeasure.org",
          "value": 17.5,
          "unit": "mg/dL",
          "code": "mg/dL"
        },
        "referenceRange": [
          {
            "low": {
              "value": 0,
              "code": "mg/dL",
              "system": "http://unitsofmeasure.org"
            }
          },
          {
            "high": {
              "value": 8,
              "code": "mg/dL",
              "system": "http://unitsofmeasure.org"
            }
          }
        ],
        "interpretation": [
          {
            "coding": [
              {
                "code": "H",
                "system": "http://terminology.hl7.org/CodeSystem/v3-ObservationInterpretation",
                "display": "High"
              }
            ]
          }
        ],
        "text": {
          "status": "generated",
          "div": "<div xmlns=\"http://www.w3.org/1999/xhtml\"><table class=\"hl7__eu__lab__report\"><tr><th>Test</th><th>15-Mar-2017</th><th>Reference&#xA0;Range</th><th>Unit</th></tr><tr><td>Ketones [Mass/volume] in Urine by Test strip</td><td>17.5</td><td>0 - 8</td><td>H</td><td>mg/dL</td></tr></table></div>"
        },
        "status": "final",
        "subject": {
          "reference": "urn:uuid:b0a6af0c-a998-4c56-a2af-c055a65b0c49",
          "display": "Maria Nohlmans"
        },
        "effectiveDateTime": "2017-03-15T11:02:39Z",
        "specimen": {
          "reference": "urn:uuid:662e8111-9649-4794-850c-54a19580009c"
        }
      }
    },
    {
      "fullUrl": "urn:uuid:a0f7e8a9-8922-4096-ac0d-ebe84ac72e6c",
      "resource": {
        "resourceType": "Observation",
        "id": "a0f7e8a9-8922-4096-ac0d-ebe84ac72e6c",
        "meta": {
          "profile": [
            "http://hl7.eu/fhir/laboratory/StructureDefinition/Observation-resultslab-eu-lab"
          ]
        },
        "performer": [
          {
            "display": "The Central European Lab"
          }
        ],
        "category": [
          {
            "coding": [
              {
                "system": "http://terminology.hl7.org/CodeSystem/observation-category",
                "code": "laboratory"
              }
            ]
          }
        ],
        "code": {
          "coding": [
            {
              "code": "2514-8",
              "system": "http://loinc.org",
              "display": "Ketones [Presence] in Urine by Test strip"
            }
          ],
          "text": "Ketones [Presence] in Urine by Test strip"
        },
        "text": {
          "status": "generated",
          "div": "<div xmlns=\"http://www.w3.org/1999/xhtml\"><table class=\"hl7__eu__lab__report\"><tr><th>Test</th><th>15-Mar-2017</th><th>Reference&#xA0;Range</th><th>Unit</th></tr><tr><td>Ketones [Presence] in Urine by Test strip</td></tr></table></div>"
        },
        "status": "final",
        "subject": {
          "reference": "urn:uuid:b0a6af0c-a998-4c56-a2af-c055a65b0c49",
          "display": "Maria Nohlmans"
        },
        "effectiveDateTime": "2017-03-15T11:02:39Z",
        "specimen": {
          "reference": "urn:uuid:662e8111-9649-4794-850c-54a19580009c"
        }
      }
    },
    {
      "fullUrl": "urn:uuid:5019c7c2-5a5d-43da-aa72-15b5ed838d2b",
      "resource": {
        "resourceType": "Observation",
        "id": "5019c7c2-5a5d-43da-aa72-15b5ed838d2b",
        "meta": {
          "profile": [
            "http://hl7.eu/fhir/laboratory/StructureDefinition/Observation-resultslab-eu-lab"
          ]
        },
        "performer": [
          {
            "display": "The Central European Lab"
          }
        ],
        "category": [
          {
            "coding": [
              {
                "system": "http://terminology.hl7.org/CodeSystem/observation-category",
                "code": "laboratory"
              }
            ]
          }
        ],
        "code": {
          "coding": [
            {
              "code": "5811-5",
              "system": "http://loinc.org",
              "display": "Specific gravity of Urine by Test strip"
            }
          ],
          "text": "Specific gravity of Urine by Test strip"
        },
        "valueQuantity": {
          "system": "http://unitsofmeasure.org",
          "value": 1,
          "unit": "{nominal}",
          "code": "{nominal}"
        },
        "referenceRange": [
          {
            "low": {
              "value": 1.01,
              "code": "g/mL",
              "system": "http://unitsofmeasure.org"
            }
          },
          {
            "high": {
              "value": 1.03,
              "code": "g/mL",
              "system": "http://unitsofmeasure.org"
            }
          }
        ],
        "interpretation": [
          {
            "coding": [
              {
                "code": "L",
                "system": "http://terminology.hl7.org/CodeSystem/v3-ObservationInterpretation",
                "display": "Low"
              }
            ]
          }
        ],
        "text": {
          "status": "generated",
          "div": "<div xmlns=\"http://www.w3.org/1999/xhtml\"><table class=\"hl7__eu__lab__report\"><tr><th>Test</th><th>15-Mar-2017</th><th>Reference&#xA0;Range</th><th>Unit</th></tr><tr><td>Specific gravity of Urine by Test strip</td><td>1.0</td><td>1.01 - 1.03</td><td>L</td><td>{nominal}</td></tr></table></div>"
        },
        "status": "final",
        "subject": {
          "reference": "urn:uuid:b0a6af0c-a998-4c56-a2af-c055a65b0c49",
          "display": "Maria Nohlmans"
        },
        "effectiveDateTime": "2017-03-15T11:02:39Z",
        "specimen": {
          "reference": "urn:uuid:662e8111-9649-4794-850c-54a19580009c"
        }
      }
    },
    {
      "fullUrl": "urn:uuid:52e3da33-aae1-4db8-a674-b17a49952303",
      "resource": {
        "resourceType": "Observation",
        "id": "52e3da33-aae1-4db8-a674-b17a49952303",
        "meta": {
          "profile": [
            "http://hl7.eu/fhir/laboratory/StructureDefinition/Observation-resultslab-eu-lab"
          ]
        },
        "performer": [
          {
            "display": "The Central European Lab"
          }
        ],
        "category": [
          {
            "coding": [
              {
                "system": "http://terminology.hl7.org/CodeSystem/observation-category",
                "code": "laboratory"
              }
            ]
          }
        ],
        "code": {
          "coding": [
            {
              "code": "5803-2",
              "system": "http://loinc.org",
              "display": "pH of Urine by Test strip"
            }
          ],
          "text": "pH of Urine by Test strip"
        },
        "valueQuantity": {
          "system": "http://unitsofmeasure.org",
          "value": 5,
          "unit": "pH",
          "code": "pH"
        },
        "referenceRange": [
          {
            "low": {
              "value": 4.6,
              "code": "pH",
              "system": "http://unitsofmeasure.org"
            }
          },
          {
            "high": {
              "value": 7.5,
              "code": "pH",
              "system": "http://unitsofmeasure.org"
            }
          }
        ],
        "text": {
          "status": "generated",
          "div": "<div xmlns=\"http://www.w3.org/1999/xhtml\"><table class=\"hl7__eu__lab__report\"><tr><th>Test</th><th>15-Mar-2017</th><th>Reference&#xA0;Range</th><th>Unit</th></tr><tr><td>pH of Urine by Test strip</td><td>5.0</td><td>4.6 - 7.5</td><td></td><td>pH</td></tr></table></div>"
        },
        "status": "final",
        "subject": {
          "reference": "urn:uuid:b0a6af0c-a998-4c56-a2af-c055a65b0c49",
          "display": "Maria Nohlmans"
        },
        "effectiveDateTime": "2017-03-15T11:02:39Z",
        "specimen": {
          "reference": "urn:uuid:662e8111-9649-4794-850c-54a19580009c"
        }
      }
    },
    {
      "fullUrl": "urn:uuid:bc6ffca1-ccca-40a5-b847-c25b375dc044",
      "resource": {
        "resourceType": "Observation",
        "id": "bc6ffca1-ccca-40a5-b847-c25b375dc044",
        "meta": {
          "profile": [
            "http://hl7.eu/fhir/laboratory/StructureDefinition/Observation-resultslab-eu-lab"
          ]
        },
        "performer": [
          {
            "display": "The Central European Lab"
          }
        ],
        "category": [
          {
            "coding": [
              {
                "system": "http://terminology.hl7.org/CodeSystem/observation-category",
                "code": "laboratory"
              }
            ]
          }
        ],
        "code": {
          "coding": [
            {
              "code": "5804-0",
              "system": "http://loinc.org",
              "display": "Protein [Mass/volume] in Urine by Test strip"
            }
          ],
          "text": "Protein [Mass/volume] in Urine by Test strip"
        },
        "valueQuantity": {
          "system": "http://unitsofmeasure.org",
          "value": 381.9,
          "unit": "mg/dL",
          "code": "mg/dL"
        },
        "referenceRange": [
          {
            "low": {
              "value": 0,
              "code": "mg/dL",
              "system": "http://unitsofmeasure.org"
            }
          },
          {
            "high": {
              "value": 14,
              "code": "mg/dL",
              "system": "http://unitsofmeasure.org"
            }
          }
        ],
        "interpretation": [
          {
            "coding": [
              {
                "code": "H",
                "system": "http://terminology.hl7.org/CodeSystem/v3-ObservationInterpretation",
                "display": "High"
              }
            ]
          }
        ],
        "text": {
          "status": "generated",
          "div": "<div xmlns=\"http://www.w3.org/1999/xhtml\"><table class=\"hl7__eu__lab__report\"><tr><th>Test</th><th>15-Mar-2017</th><th>Reference&#xA0;Range</th><th>Unit</th></tr><tr><td>Protein [Mass/volume] in Urine by Test strip</td><td>381.9</td><td>0 - 14</td><td>H</td><td>mg/dL</td></tr></table></div>"
        },
        "status": "final",
        "subject": {
          "reference": "urn:uuid:b0a6af0c-a998-4c56-a2af-c055a65b0c49",
          "display": "Maria Nohlmans"
        },
        "effectiveDateTime": "2017-03-15T11:02:39Z",
        "specimen": {
          "reference": "urn:uuid:662e8111-9649-4794-850c-54a19580009c"
        }
      }
    },
    {
      "fullUrl": "urn:uuid:78fa83d0-3915-4d06-ae85-529d146984f4",
      "resource": {
        "resourceType": "Observation",
        "id": "78fa83d0-3915-4d06-ae85-529d146984f4",
        "meta": {
          "profile": [
            "http://hl7.eu/fhir/laboratory/StructureDefinition/Observation-resultslab-eu-lab"
          ]
        },
        "performer": [
          {
            "display": "The Central European Lab"
          }
        ],
        "category": [
          {
            "coding": [
              {
                "system": "http://terminology.hl7.org/CodeSystem/observation-category",
                "code": "laboratory"
              }
            ]
          }
        ],
        "code": {
          "coding": [
            {
              "code": "20454-5",
              "system": "http://loinc.org",
              "display": "Protein [Presence] in Urine by Test strip"
            }
          ],
          "text": "Protein [Presence] in Urine by Test strip"
        },
        "text": {
          "status": "generated",
          "div": "<div xmlns=\"http://www.w3.org/1999/xhtml\"><table class=\"hl7__eu__lab__report\"><tr><th>Test</th><th>15-Mar-2017</th><th>Reference&#xA0;Range</th><th>Unit</th></tr><tr><td>Protein [Presence] in Urine by Test strip</td></tr></table></div>"
        },
        "status": "final",
        "subject": {
          "reference": "urn:uuid:b0a6af0c-a998-4c56-a2af-c055a65b0c49",
          "display": "Maria Nohlmans"
        },
        "effectiveDateTime": "2017-03-15T11:02:39Z",
        "specimen": {
          "reference": "urn:uuid:662e8111-9649-4794-850c-54a19580009c"
        }
      }
    },
    {
      "fullUrl": "urn:uuid:d96dab2b-9bd6-4dce-bd6e-b12ac9c36b0c",
      "resource": {
        "resourceType": "Observation",
        "id": "d96dab2b-9bd6-4dce-bd6e-b12ac9c36b0c",
        "meta": {
          "profile": [
            "http://hl7.eu/fhir/laboratory/StructureDefinition/Observation-resultslab-eu-lab"
          ]
        },
        "performer": [
          {
            "display": "The Central European Lab"
          }
        ],
        "category": [
          {
            "coding": [
              {
                "system": "http://terminology.hl7.org/CodeSystem/observation-category",
                "code": "laboratory"
              }
            ]
          }
        ],
        "code": {
          "coding": [
            {
              "code": "5802-4",
              "system": "http://loinc.org",
              "display": "Nitrite [Presence] in Urine by Test strip"
            }
          ],
          "text": "Nitrite [Presence] in Urine by Test strip"
        },
        "text": {
          "status": "generated",
          "div": "<div xmlns=\"http://www.w3.org/1999/xhtml\"><table class=\"hl7__eu__lab__report\"><tr><th>Test</th><th>15-Mar-2017</th><th>Reference&#xA0;Range</th><th>Unit</th></tr><tr><td>Nitrite [Presence] in Urine by Test strip</td></tr></table></div>"
        },
        "status": "final",
        "subject": {
          "reference": "urn:uuid:b0a6af0c-a998-4c56-a2af-c055a65b0c49",
          "display": "Maria Nohlmans"
        },
        "effectiveDateTime": "2017-03-15T11:02:39Z",
        "specimen": {
          "reference": "urn:uuid:662e8111-9649-4794-850c-54a19580009c"
        }
      }
    },
    {
      "fullUrl": "urn:uuid:773066ba-42c9-4379-9531-0a10508e1154",
      "resource": {
        "resourceType": "Observation",
        "id": "773066ba-42c9-4379-9531-0a10508e1154",
        "meta": {
          "profile": [
            "http://hl7.eu/fhir/laboratory/StructureDefinition/Observation-resultslab-eu-lab"
          ]
        },
        "performer": [
          {
            "display": "The Central European Lab"
          }
        ],
        "category": [
          {
            "coding": [
              {
                "system": "http://terminology.hl7.org/CodeSystem/observation-category",
                "code": "laboratory"
              }
            ]
          }
        ],
        "code": {
          "coding": [
            {
              "code": "5794-3",
              "system": "http://loinc.org",
              "display": "Hemoglobin [Presence] in Urine by Test strip"
            }
          ],
          "text": "Hemoglobin [Presence] in Urine by Test strip"
        },
        "text": {
          "status": "generated",
          "div": "<div xmlns=\"http://www.w3.org/1999/xhtml\"><table class=\"hl7__eu__lab__report\"><tr><th>Test</th><th>15-Mar-2017</th><th>Reference&#xA0;Range</th><th>Unit</th></tr><tr><td>Hemoglobin [Presence] in Urine by Test strip</td></tr></table></div>"
        },
        "status": "final",
        "subject": {
          "reference": "urn:uuid:b0a6af0c-a998-4c56-a2af-c055a65b0c49",
          "display": "Maria Nohlmans"
        },
        "effectiveDateTime": "2017-03-15T11:02:39Z",
        "specimen": {
          "reference": "urn:uuid:662e8111-9649-4794-850c-54a19580009c"
        }
      }
    },
    {
      "fullUrl": "urn:uuid:4d724df1-a6d2-43aa-865d-f506ca87f3b8",
      "resource": {
        "resourceType": "Observation",
        "id": "4d724df1-a6d2-43aa-865d-f506ca87f3b8",
        "meta": {
          "profile": [
            "http://hl7.eu/fhir/laboratory/StructureDefinition/Observation-resultslab-eu-lab"
          ]
        },
        "performer": [
          {
            "display": "The Central European Lab"
          }
        ],
        "category": [
          {
            "coding": [
              {
                "system": "http://terminology.hl7.org/CodeSystem/observation-category",
                "code": "laboratory"
              }
            ]
          }
        ],
        "code": {
          "coding": [
            {
              "code": "5799-2",
              "system": "http://loinc.org",
              "display": "Leukocyte esterase [Presence] in Urine by Test strip"
            }
          ],
          "text": "Leukocyte esterase [Presence] in Urine by Test strip"
        },
        "text": {
          "status": "generated",
          "div": "<div xmlns=\"http://www.w3.org/1999/xhtml\"><table class=\"hl7__eu__lab__report\"><tr><th>Test</th><th>15-Mar-2017</th><th>Reference&#xA0;Range</th><th>Unit</th></tr><tr><td>Leukocyte esterase [Presence] in Urine by Test strip</td></tr></table></div>"
        },
        "status": "final",
        "subject": {
          "reference": "urn:uuid:b0a6af0c-a998-4c56-a2af-c055a65b0c49",
          "display": "Maria Nohlmans"
        },
        "effectiveDateTime": "2017-03-15T11:02:39Z",
        "specimen": {
          "reference": "urn:uuid:662e8111-9649-4794-850c-54a19580009c"
        }
      }
    },
    {
      "fullUrl": "urn:uuid:2ab5d28c-e07b-4fac-bc91-53279b8b9d5c",
      "resource": {
        "resourceType": "Observation",
        "id": "2ab5d28c-e07b-4fac-bc91-53279b8b9d5c",
        "meta": {
          "profile": [
            "http://hl7.eu/fhir/laboratory/StructureDefinition/Observation-resultslab-eu-lab"
          ]
        },
        "performer": [
          {
            "display": "The Central European Lab"
          }
        ],
        "category": [
          {
            "coding": [
              {
                "system": "http://terminology.hl7.org/CodeSystem/observation-category",
                "code": "laboratory"
              }
            ]
          }
        ],
        "code": {
          "coding": [
            {
              "code": "4548-4",
              "system": "http://loinc.org",
              "display": "Hemoglobin A1c/Hemoglobin.total in Blood"
            }
          ],
          "text": "Hemoglobin A1c/Hemoglobin.total in Blood"
        },
        "valueQuantity": {
          "system": "http://unitsofmeasure.org",
          "value": 3.3,
          "unit": "%",
          "code": "%"
        },
        "referenceRange": [
          {
            "low": {
              "value": 4.5,
              "code": "%",
              "system": "http://unitsofmeasure.org"
            }
          },
          {
            "high": {
              "value": 6.4,
              "code": "%",
              "system": "http://unitsofmeasure.org"
            }
          }
        ],
        "interpretation": [
          {
            "coding": [
              {
                "code": "L",
                "system": "http://terminology.hl7.org/CodeSystem/v3-ObservationInterpretation",
                "display": "Low"
              }
            ]
          }
        ],
        "text": {
          "status": "generated",
          "div": "<div xmlns=\"http://www.w3.org/1999/xhtml\"><table class=\"hl7__eu__lab__report\"><tr><th>Test</th><th>15-Mar-2017</th><th>Reference&#xA0;Range</th><th>Unit</th></tr><tr><td>Hemoglobin A1c/Hemoglobin.total in Blood</td><td>3.3</td><td>4.5 - 6.4</td><td>L</td><td>%</td></tr></table></div>"
        },
        "status": "final",
        "subject": {
          "reference": "urn:uuid:b0a6af0c-a998-4c56-a2af-c055a65b0c49",
          "display": "Maria Nohlmans"
        },
        "effectiveDateTime": "2017-03-15T11:02:39Z",
        "specimen": {
          "reference": "urn:uuid:dd0fb649-fba0-4027-9a6d-c6db2e5b3904"
        }
      }
    },
    {
      "fullUrl": "urn:uuid:cddbabaf-cf4f-4a11-8dc6-797ded7e7ec4",
      "resource": {
        "resourceType": "Device",
        "id": "cddbabaf-cf4f-4a11-8dc6-797ded7e7ec4",
        "deviceName": [
          {
            "name": "SYNDERAI Synthetic Generator",
            "type": "manufacturer-name"
          }
        ],
        "version": [
          {
            "value": "5.0"
          }
        ],
        "text": {
          "status": "generated",
          "div": "<div xmlns=\"http://www.w3.org/1999/xhtml\">SYNDERAI Synthetic Generator v5.0</div>"
        },
        "status": "active\"",
        "distinctIdentifier": "synderai-generator-50",
        "manufacturer": "SYNDERAI Project"
      }
    },
    {
      "fullUrl": "urn:uuid:9bda303c-06c4-4970-bad4-4b48860d3dce",
      "resource": {
        "resourceType": "Provenance",
        "id": "9bda303c-06c4-4970-bad4-4b48860d3dce",
        "target": [
          {
            "reference": "Patient/b0a6af0c-a998-4c56-a2af-c055a65b0c49"
          },
          {
            "reference": "Bundle/d252de72-22e1-499d-a45b-d96803e5a313"
          },
          {
            "reference": "Composition/5662748e-5d5a-4bd4-b30c-47784a02f988"
          },
          {
            "reference": "PractitionerRole/28ac20e4-81f4-475d-9d67-55d1037744c7"
          },
          {
            "reference": "Practitioner/70efa4dc-456f-4343-a800-bd4147e20ad5"
          },
          {
            "reference": "PractitionerRole/3200abe3-b55b-4144-ad73-2fd110461faa"
          },
          {
            "reference": "Organization/2fa7e54a-b22b-487f-ba90-951fd03abd19"
          }
        ],
        "activity": {
          "text": "Synthetic Example Data Generation"
        },
        "policy": [
          "https://synderai.net/synderai-synthetic-data-policy"
        ],
        "agent": [
          {
            "type": {
              "text": "author"
            },
            "who": {
              "reference": "Device/cddbabaf-cf4f-4a11-8dc6-797ded7e7ec4"
            }
          }
        ],
        "reason": [
          {
            "text": "Interoperability Testing and Training (non-clinical use)"
          }
        ],
        "text": {
          "status": "generated",
          "div": "<div xmlns=\"http://www.w3.org/1999/xhtml\">Provenance for SYNDERAI Synthetic Example Data Resource</div>"
        },
        "recorded": "2017-03-15T12:02:39Z"
      }
    },
    {
      "fullUrl": "urn:uuid:28ac20e4-81f4-475d-9d67-55d1037744c7",
      "resource": {
        "resourceType": "PractitionerRole",
        "id": "28ac20e4-81f4-475d-9d67-55d1037744c7",
        "meta": {
          "profile": [
            "http://hl7.eu/fhir/base/StructureDefinition/practitionerRole-eu"
          ]
        },
        "text": {
          "status": "generated",
          "div": "<div xmlns=\"http://www.w3.org/1999/xhtml\">Laboratory Role Id: 28ac20e4-81f4-475d-9d67-55d1037744c7</div>"
        },
        "practitioner": {
          "reference": "urn:uuid:70efa4dc-456f-4343-a800-bd4147e20ad5"
        }
      }
    },
    {
      "fullUrl": "urn:uuid:70efa4dc-456f-4343-a800-bd4147e20ad5",
      "resource": {
        "resourceType": "Practitioner",
        "id": "70efa4dc-456f-4343-a800-bd4147e20ad5",
        "meta": {
          "profile": [
            "http://hl7.eu/fhir/base/StructureDefinition/practitioner-eu"
          ]
        },
        "identifier": [
          {
            "assigner": {
              "display": "HL7 Europe"
            },
            "system": "urn:oid:2.16.840.1.113883.2.51.999",
            "value": "654e4066-14f4-469f-b2d9-8cf5e97e9db2"
          }
        ],
        "name": [
          {
            "prefix": [
              "dr"
            ],
            "given": [
              "Ex"
            ],
            "family": "Ample"
          }
        ],
        "address": [
          {
            "line": [
              "Laboratoire Central Européenne",
              "Boulevard du Jardin Botanique 32"
            ],
            "postalCode": "1000",
            "city": "Brussels",
            "country": "Belgium"
          }
        ],
        "text": {
          "status": "generated",
          "div": "<div xmlns=\"http://www.w3.org/1999/xhtml\">Laboratory: Laboratoire Central Européenne, 1000 Brussels, Belgium</div>"
        }
      }
    }
  ],
  "type": "document",
  "timestamp": "2017-03-15T12:02:39Z"
}
