{
  "resourceType": "Bundle",
  "id": "4ee05160-4cf5-4ba2-b4bf-b35b6cd28a66",
  "meta": {
    "profile": [
      "http://hl7.eu/fhir/laboratory/StructureDefinition/Bundle-eu-lab"
    ]
  },
  "identifier": {
    "assigner": {
      "display": "HL7 Europe"
    },
    "system": "urn:oid:2.16.840.1.113883.2.51.999",
    "value": "3a66b719-39f4-4aee-b019-59b8dce7cf1b"
  },
  "entry": [
    {
      "fullUrl": "urn:uuid:6639cb82-8021-4a80-be69-70acee9acc33",
      "resource": {
        "resourceType": "Composition",
        "id": "6639cb82-8021-4a80-be69-70acee9acc33",
        "meta": {
          "profile": [
            "http://hl7.eu/fhir/laboratory/StructureDefinition/Composition-eu-lab"
          ]
        },
        "identifier": {
          "assigner": {
            "display": "HL7 Europe"
          },
          "system": "urn:oid:2.16.840.1.113883.2.51.999",
          "value": "3d3ce79f-e25a-41a8-9307-36c72bb61dbc"
        },
        "author": [
          {
            "reference": "urn:uuid:e63b3ab1-77a8-4e58-8a1b-3b8b1339dbfd"
          }
        ],
        "category": [
          {
            "coding": [
              {
                "code": "26436-6",
                "system": "http://loinc.org",
                "display": "Laboratory studies (set)"
              }
            ]
          }
        ],
        "type": {
          "coding": [
            {
              "code": "11502-2",
              "system": "http://loinc.org",
              "display": "Laboratory report"
            }
          ],
          "text": "Laboratory Report"
        },
        "section": [
          {
            "code": {
              "coding": [
                {
                  "code": "26436-6",
                  "system": "http://loinc.org",
                  "display": "Laboratory studies (set)"
                }
              ],
              "text": "Laboratory studies"
            },
            "section": [
              {
                "code": {
                  "coding": [
                    {
                      "code": "$18719-5",
                      "system": "http://loinc.org",
                      "display": "Chemistry studies (set)"
                    }
                  ],
                  "text": "Chemistry"
                },
                "entry": [
                  {
                    "reference": "urn:uuid:d0572481-4347-4c8b-ab26-8c66174a6e6a"
                  },
                  {
                    "reference": "urn:uuid:00b5bebf-8675-4e70-aefd-2b1459339dd7"
                  },
                  {
                    "reference": "urn:uuid:04384869-1083-4cba-979e-ef62010fbc0b"
                  },
                  {
                    "reference": "urn:uuid:9c5e952e-5009-4d75-b051-7d52d723e04d"
                  },
                  {
                    "reference": "urn:uuid:6781eb46-f4fa-4d06-9ce1-32368cb2ea06"
                  },
                  {
                    "reference": "urn:uuid:227bd1ac-377d-4449-b09a-5bf058216cc1"
                  },
                  {
                    "reference": "urn:uuid:5bab2bc0-41f8-4351-9206-9d5fedb8aad0"
                  },
                  {
                    "reference": "urn:uuid:52f41985-63d5-434b-8880-12011f7f3455"
                  },
                  {
                    "reference": "urn:uuid:3434f9c4-d1ac-4427-8cc0-8d95274fe6f1"
                  }
                ],
                "text": {
                  "status": "generated",
                  "div": "<div xmlns=\"http://www.w3.org/1999/xhtml\"><h3>Chemistry</h3><table class=\"hl7__eu__lab__report\"><thead><tr><th>Test</th><th>02-MAR-2024</th><th>Reference&#xA0;Range</th><th>Unit</th></tr></thead><tbody><tr><td>Hemoglobin A1c/Hemoglobin.total in Blood</td><td><strong>6.1 H</strong></td><td>4 - 6</td><td>%</td></tr><tr><td>Glucose [Mass/volume] in Blood</td><td>84.2</td><td>70 - 140</td><td>mg/dL</td></tr><tr><td>Urea nitrogen [Mass/volume] in Blood</td><td>18.7</td><td>7 - 45</td><td>mg/dL</td></tr><tr><td>Creatinine [Mass/volume] in Blood</td><td>0.8</td><td>0.6 - 1.1</td><td>mg/dL</td></tr><tr><td>Calcium [Mass/volume] in Blood</td><td>9.6</td><td>8.5 - 10.5</td><td>mg/dL</td></tr><tr><td>Sodium [Moles/volume] in Blood</td><td>142.2</td><td>135 - 145</td><td>mmol/L</td></tr><tr><td>Potassium [Moles/volume] in Blood</td><td>4.1</td><td>3.5 - 5.1</td><td>mmol/L</td></tr><tr><td>Chloride [Moles/volume] in Blood</td><td><strong>107.8 H</strong></td><td>98 - 107</td><td>mmol/L</td></tr><tr><td>Carbon dioxide, total [Moles/volume] in Blood</td><td>25.5</td><td>22 - 32</td><td>mmol/L</td></tr></tbody></table></div>"
                },
                "title": "Chemistry"
              }
            ],
            "title": "Laboratory Report"
          },
          {
            "text": {
              "status": "generated",
              "div": "<div xmlns=\"http://www.w3.org/1999/xhtml\"><h3>Annotation</h3><table class=\"hl7__eu__lab__report\"><tr><th>Conclusion and Recommendations based on this report and previous findings known to us</th></tr><tr><td>The results show a mildly elevated HbA1c (6.1%), suggesting impaired glucose metabolism or prediabetes, while fasting glucose is within normal limits. Chloride is slightly above the reference range, which may be clinically insignificant if the patient is asymptomatic. Renal function, electrolytes, and other parameters are within normal limits. Recommend monitoring glycemic control and considering further evaluation for metabolic risk factors.</td></tr></table></div>"
            },
            "code": {
              "coding": [
                {
                  "system": "http://loinc.org",
                  "code": "48767-8",
                  "display": "Annotation comment"
                }
              ]
            },
            "title": "Annotation comment"
          }
        ],
        "status": "final",
        "subject": {
          "reference": "urn:uuid:5ed143b8-ca16-4091-8a62-d06924240cc8",
          "display": "Lydia Ward"
        },
        "date": "2024-03-02T00:08:09Z",
        "title": "Laboratory Report",
        "confidentiality": "N"
      }
    },
    {
      "fullUrl": "urn:uuid:17ee9891-d7e9-4443-8cb5-75e3f144a269",
      "resource": {
        "resourceType": "DiagnosticReport",
        "id": "17ee9891-d7e9-4443-8cb5-75e3f144a269",
        "meta": {
          "profile": [
            "http://hl7.eu/fhir/laboratory/StructureDefinition/DiagnosticReport-eu-lab"
          ]
        },
        "identifier": [
          {
            "assigner": {
              "display": "HL7 Europe"
            },
            "system": "urn:oid:2.16.840.1.113883.2.51.999",
            "value": "ad7afc15-90c6-4b84-b353-046b0782917f"
          }
        ],
        "extension": [
          {
            "url": "http://hl7.org/fhir/5.0/StructureDefinition/extension-DiagnosticReport.composition",
            "valueReference": {
              "reference": "urn:uuid:3d3ce79f-e25a-41a8-9307-36c72bb61dbc"
            }
          }
        ],
        "category": [
          {
            "coding": [
              {
                "code": "26436-6",
                "system": "http://loinc.org",
                "display": "Laboratory studies (set)"
              }
            ]
          }
        ],
        "specimen": [
          {
            "reference": "urn:uuid:056f050e-44cd-4c1d-9460-7d45b382f429"
          }
        ],
        "result": [
          {
            "reference": "urn:uuid:d0572481-4347-4c8b-ab26-8c66174a6e6a"
          },
          {
            "reference": "urn:uuid:00b5bebf-8675-4e70-aefd-2b1459339dd7"
          },
          {
            "reference": "urn:uuid:04384869-1083-4cba-979e-ef62010fbc0b"
          },
          {
            "reference": "urn:uuid:9c5e952e-5009-4d75-b051-7d52d723e04d"
          },
          {
            "reference": "urn:uuid:6781eb46-f4fa-4d06-9ce1-32368cb2ea06"
          },
          {
            "reference": "urn:uuid:227bd1ac-377d-4449-b09a-5bf058216cc1"
          },
          {
            "reference": "urn:uuid:5bab2bc0-41f8-4351-9206-9d5fedb8aad0"
          },
          {
            "reference": "urn:uuid:52f41985-63d5-434b-8880-12011f7f3455"
          },
          {
            "reference": "urn:uuid:3434f9c4-d1ac-4427-8cc0-8d95274fe6f1"
          }
        ],
        "status": "registered",
        "code": {
          "coding": [
            {
              "code": "11502-2",
              "system": "http://loinc.org",
              "display": "Laboratory report"
            }
          ]
        },
        "subject": {
          "reference": "urn:uuid:5ed143b8-ca16-4091-8a62-d06924240cc8",
          "display": "Lydia Ward"
        }
      }
    },
    {
      "fullUrl": "urn:uuid:5ed143b8-ca16-4091-8a62-d06924240cc8",
      "resource": {
        "resourceType": "Patient",
        "id": "5ed143b8-ca16-4091-8a62-d06924240cc8",
        "meta": {
          "security": [
            {
              "system": "http://terminology.hl7.org/CodeSystem/v3-ActReason",
              "code": "HTEST"
            },
            {
              "system": "http://terminology.hl7.org/CodeSystem/v3-ActReason",
              "code": "TRAIN"
            }
          ],
          "tag": [
            {
              "system": "https://synderai.net/fhir/CodeSystem/tags",
              "code": "synthetic",
              "display": "SYNDERAI Synthetic data"
            }
          ],
          "profile": [
            "http://hl7.eu/fhir/base/StructureDefinition/patient-eu-core"
          ]
        },
        "identifier": [
          {
            "type": {
              "coding": [
                {
                  "code": "PT",
                  "system": "http://terminology.hl7.org/CodeSystem/v2-0203"
                }
              ]
            },
            "system": "http://ec.europa.eu/identifier/eci",
            "value": "8944-364030-8"
          },
          {
            "type": {
              "coding": [
                {
                  "code": "MR",
                  "system": "http://terminology.hl7.org/CodeSystem/v2-0203"
                }
              ]
            },
            "system": "http://local.setting.eu/identifier",
            "value": "9edf6b8d-b276-7218-98c6-ccf8d15f2a01"
          }
        ],
        "name": [
          {
            "family": "Ward"
          },
          {
            "given": [
              "Lydia"
            ]
          },
          {
            "text": "Lydia Ward"
          }
        ],
        "address": [
          {
            "line": [
              "6 Hunt radial"
            ],
            "use": "home",
            "type": "physical",
            "postalCode": "EH33",
            "city": "South Rosieside",
            "country": "United Kingdom"
          }
        ],
        "telecom": [
          {
            "system": "phone",
            "value": "01144960349"
          }
        ],
        "extension": [
          {
            "url": "http://hl7.org/fhir/StructureDefinition/patient-nationality",
            "valueCodeableConcept": {
              "coding": [
                {
                  "code": "GB",
                  "system": "http://hl7.org/fhir/ValueSet/country"
                }
              ]
            }
          }
        ],
        "text": {
          "status": "generated",
          "div": "<div xmlns=\"http://www.w3.org/1999/xhtml\"><table class=\"hl7__ips\"><tr><td>Lydia Ward</td><td>female</td><td>27-Dec-1968</td></tr></table></div>"
        },
        "gender": "female",
        "birthDate": "1968-12-27"
      }
    },
    {
      "fullUrl": "urn:uuid:5463ce31-9ead-4361-93d4-2d97d9ee10ae",
      "resource": {
        "resourceType": "ServiceRequest",
        "id": "5463ce31-9ead-4361-93d4-2d97d9ee10ae",
        "meta": {
          "profile": [
            "http://hl7.eu/fhir/laboratory/StructureDefinition/ServiceRequest-eu-lab"
          ]
        },
        "identifier": [
          {
            "system": "http://example.org",
            "value": "45875cc4-a98d-44d1-9577-1e1fb436fd03"
          }
        ],
        "specimen": [
          {
            "reference": "urn:uuid:056f050e-44cd-4c1d-9460-7d45b382f429"
          }
        ],
        "reasonCode": [
          {
            "coding": [
              {
                "code": "271737000",
                "system": "http://snomed.info/sct",
                "display": "Anemia"
              }
            ]
          },
          {
            "coding": [
              {
                "code": "15777000",
                "system": "http://snomed.info/sct",
                "display": "Prediabetes"
              }
            ]
          }
        ],
        "status": "active",
        "intent": "order",
        "code": {
          "coding": [
            {
              "code": "108252007",
              "system": "http://snomed.info/sct",
              "display": "Laboratory procedure"
            }
          ]
        },
        "subject": {
          "reference": "urn:uuid:5ed143b8-ca16-4091-8a62-d06924240cc8",
          "display": "Lydia Ward"
        },
        "requester": {
          "reference": "urn:uuid:87ce37b1-9262-4475-af7f-89e56ed74515"
        }
      }
    },
    {
      "fullUrl": "urn:uuid:87ce37b1-9262-4475-af7f-89e56ed74515",
      "resource": {
        "resourceType": "PractitionerRole",
        "id": "87ce37b1-9262-4475-af7f-89e56ed74515",
        "meta": {
          "profile": [
            "http://hl7.eu/fhir/base/StructureDefinition/practitionerRole-eu"
          ]
        },
        "text": {
          "status": "generated",
          "div": "<div xmlns=\"http://www.w3.org/1999/xhtml\">Provider Role Id: 87ce37b1-9262-4475-af7f-89e56ed74515</div>"
        },
        "organization": {
          "reference": "urn:uuid:d2ded5f9-474c-4a2b-bb9c-6133c5f52e5f"
        }
      }
    },
    {
      "fullUrl": "urn:uuid:d2ded5f9-474c-4a2b-bb9c-6133c5f52e5f",
      "resource": {
        "resourceType": "Organization",
        "id": "d2ded5f9-474c-4a2b-bb9c-6133c5f52e5f",
        "meta": {
          "profile": [
            "http://hl7.eu/fhir/base/StructureDefinition/organization-eu"
          ]
        },
        "identifier": [
          {
            "assigner": {
              "display": "HL7 Europe"
            },
            "system": "urn:oid:2.16.840.1.113883.2.51.999",
            "value": "fef0874c-c29b-4039-8507-cd2ab7104571"
          }
        ],
        "address": [
          {
            "city": "Edinburgh",
            "postalCode": "EH9 2",
            "country": "United Kingdom"
          }
        ],
        "text": {
          "status": "generated",
          "div": "<div xmlns=\"http://www.w3.org/1999/xhtml\">Provider Organization: Royal Hospital for Sick Children</div>"
        },
        "name": "Royal Hospital for Sick Children"
      }
    },
    {
      "fullUrl": "urn:uuid:056f050e-44cd-4c1d-9460-7d45b382f429",
      "resource": {
        "resourceType": "Specimen",
        "id": "056f050e-44cd-4c1d-9460-7d45b382f429",
        "meta": {
          "profile": [
            "http://hl7.eu/fhir/laboratory/StructureDefinition/Specimen-eu-lab"
          ]
        },
        "collection": {
          "collectedDateTime": "2024-03-01"
        },
        "text": {
          "status": "generated",
          "div": "<div xmlns=\"http://www.w3.org/1999/xhtml\"><table class=\"hl7__eu__lab__report\"><tr><th>Specimen</th><th>Collection Date</th></tr><tr><td>Whole blood specimen (specimen)</td><td><span class=\"nb\">01-Mar-2024</span></td></tr></table></div>"
        },
        "type": {
          "coding": [
            {
              "code": "258580003",
              "system": "http://snomed.info/sct",
              "display": "Whole blood specimen (specimen)"
            }
          ]
        }
      }
    },
    {
      "fullUrl": "urn:uuid:d0572481-4347-4c8b-ab26-8c66174a6e6a",
      "resource": {
        "resourceType": "Observation",
        "id": "d0572481-4347-4c8b-ab26-8c66174a6e6a",
        "meta": {
          "profile": [
            "http://hl7.eu/fhir/laboratory/StructureDefinition/Observation-resultslab-eu-lab"
          ]
        },
        "performer": [
          {
            "display": "The Central European Lab"
          }
        ],
        "category": [
          {
            "coding": [
              {
                "system": "http://terminology.hl7.org/CodeSystem/observation-category",
                "code": "laboratory"
              }
            ]
          }
        ],
        "code": {
          "coding": [
            {
              "code": "4548-4",
              "system": "http://loinc.org",
              "display": "Hemoglobin A1c/Hemoglobin.total in Blood"
            }
          ],
          "text": "Hemoglobin A1c/Hemoglobin.total in Blood"
        },
        "valueQuantity": {
          "system": "http://unitsofmeasure.org",
          "value": 6.1,
          "unit": "%",
          "code": "%"
        },
        "referenceRange": [
          {
            "low": {
              "value": 4,
              "code": "%",
              "system": "http://unitsofmeasure.org"
            }
          },
          {
            "high": {
              "value": 6,
              "code": "%",
              "system": "http://unitsofmeasure.org"
            }
          }
        ],
        "interpretation": [
          {
            "coding": [
              {
                "code": "H",
                "system": "http://terminology.hl7.org/CodeSystem/v3-ObservationInterpretation",
                "display": "High"
              }
            ]
          }
        ],
        "text": {
          "status": "generated",
          "div": "<div xmlns=\"http://www.w3.org/1999/xhtml\"><table class=\"hl7__eu__lab__report\"><tr><th>Test</th><th>02-Mar-2024</th><th>Reference&#xA0;Range</th><th>Unit</th></tr><tr><td>Hemoglobin A1c/Hemoglobin.total in Blood</td><td>6.1</td><td>4 - 6</td><td>H</td><td>%</td></tr></table></div>"
        },
        "status": "final",
        "subject": {
          "reference": "urn:uuid:5ed143b8-ca16-4091-8a62-d06924240cc8",
          "display": "Lydia Ward"
        },
        "effectiveDateTime": "2024-03-01T23:08:09Z",
        "specimen": {
          "reference": "urn:uuid:056f050e-44cd-4c1d-9460-7d45b382f429"
        }
      }
    },
    {
      "fullUrl": "urn:uuid:00b5bebf-8675-4e70-aefd-2b1459339dd7",
      "resource": {
        "resourceType": "Observation",
        "id": "00b5bebf-8675-4e70-aefd-2b1459339dd7",
        "meta": {
          "profile": [
            "http://hl7.eu/fhir/laboratory/StructureDefinition/Observation-resultslab-eu-lab"
          ]
        },
        "performer": [
          {
            "display": "The Central European Lab"
          }
        ],
        "category": [
          {
            "coding": [
              {
                "system": "http://terminology.hl7.org/CodeSystem/observation-category",
                "code": "laboratory"
              }
            ]
          }
        ],
        "code": {
          "coding": [
            {
              "code": "2339-0",
              "system": "http://loinc.org",
              "display": "Glucose [Mass/volume] in Blood"
            }
          ],
          "text": "Glucose [Mass/volume] in Blood"
        },
        "valueQuantity": {
          "system": "http://unitsofmeasure.org",
          "value": 84.2,
          "unit": "mg/dL",
          "code": "mg/dL"
        },
        "referenceRange": [
          {
            "low": {
              "value": 70,
              "code": "mg/dL",
              "system": "http://unitsofmeasure.org"
            }
          },
          {
            "high": {
              "value": 140,
              "code": "mg/dL",
              "system": "http://unitsofmeasure.org"
            }
          }
        ],
        "text": {
          "status": "generated",
          "div": "<div xmlns=\"http://www.w3.org/1999/xhtml\"><table class=\"hl7__eu__lab__report\"><tr><th>Test</th><th>02-Mar-2024</th><th>Reference&#xA0;Range</th><th>Unit</th></tr><tr><td>Glucose [Mass/volume] in Blood</td><td>84.2</td><td>70 - 140</td><td></td><td>mg/dL</td></tr></table></div>"
        },
        "status": "final",
        "subject": {
          "reference": "urn:uuid:5ed143b8-ca16-4091-8a62-d06924240cc8",
          "display": "Lydia Ward"
        },
        "effectiveDateTime": "2024-03-01T23:08:09Z",
        "specimen": {
          "reference": "urn:uuid:056f050e-44cd-4c1d-9460-7d45b382f429"
        }
      }
    },
    {
      "fullUrl": "urn:uuid:04384869-1083-4cba-979e-ef62010fbc0b",
      "resource": {
        "resourceType": "Observation",
        "id": "04384869-1083-4cba-979e-ef62010fbc0b",
        "meta": {
          "profile": [
            "http://hl7.eu/fhir/laboratory/StructureDefinition/Observation-resultslab-eu-lab"
          ]
        },
        "performer": [
          {
            "display": "The Central European Lab"
          }
        ],
        "category": [
          {
            "coding": [
              {
                "system": "http://terminology.hl7.org/CodeSystem/observation-category",
                "code": "laboratory"
              }
            ]
          }
        ],
        "code": {
          "coding": [
            {
              "code": "6299-2",
              "system": "http://loinc.org",
              "display": "Urea nitrogen [Mass/volume] in Blood"
            }
          ],
          "text": "Urea nitrogen [Mass/volume] in Blood"
        },
        "valueQuantity": {
          "system": "http://unitsofmeasure.org",
          "value": 18.7,
          "unit": "mg/dL",
          "code": "mg/dL"
        },
        "referenceRange": [
          {
            "low": {
              "value": 7,
              "code": "mg/dL",
              "system": "http://unitsofmeasure.org"
            }
          },
          {
            "high": {
              "value": 45,
              "code": "mg/dL",
              "system": "http://unitsofmeasure.org"
            }
          }
        ],
        "text": {
          "status": "generated",
          "div": "<div xmlns=\"http://www.w3.org/1999/xhtml\"><table class=\"hl7__eu__lab__report\"><tr><th>Test</th><th>02-Mar-2024</th><th>Reference&#xA0;Range</th><th>Unit</th></tr><tr><td>Urea nitrogen [Mass/volume] in Blood</td><td>18.7</td><td>7 - 45</td><td></td><td>mg/dL</td></tr></table></div>"
        },
        "status": "final",
        "subject": {
          "reference": "urn:uuid:5ed143b8-ca16-4091-8a62-d06924240cc8",
          "display": "Lydia Ward"
        },
        "effectiveDateTime": "2024-03-01T23:08:09Z",
        "specimen": {
          "reference": "urn:uuid:056f050e-44cd-4c1d-9460-7d45b382f429"
        }
      }
    },
    {
      "fullUrl": "urn:uuid:9c5e952e-5009-4d75-b051-7d52d723e04d",
      "resource": {
        "resourceType": "Observation",
        "id": "9c5e952e-5009-4d75-b051-7d52d723e04d",
        "meta": {
          "profile": [
            "http://hl7.eu/fhir/laboratory/StructureDefinition/Observation-resultslab-eu-lab"
          ]
        },
        "performer": [
          {
            "display": "The Central European Lab"
          }
        ],
        "category": [
          {
            "coding": [
              {
                "system": "http://terminology.hl7.org/CodeSystem/observation-category",
                "code": "laboratory"
              }
            ]
          }
        ],
        "code": {
          "coding": [
            {
              "code": "38483-4",
              "system": "http://loinc.org",
              "display": "Creatinine [Mass/volume] in Blood"
            }
          ],
          "text": "Creatinine [Mass/volume] in Blood"
        },
        "valueQuantity": {
          "system": "http://unitsofmeasure.org",
          "value": 0.8,
          "unit": "mg/dL",
          "code": "mg/dL"
        },
        "referenceRange": [
          {
            "low": {
              "value": 0.6,
              "code": "mg/dL",
              "system": "http://unitsofmeasure.org"
            }
          },
          {
            "high": {
              "value": 1.1,
              "code": "mg/dL",
              "system": "http://unitsofmeasure.org"
            }
          }
        ],
        "text": {
          "status": "generated",
          "div": "<div xmlns=\"http://www.w3.org/1999/xhtml\"><table class=\"hl7__eu__lab__report\"><tr><th>Test</th><th>02-Mar-2024</th><th>Reference&#xA0;Range</th><th>Unit</th></tr><tr><td>Creatinine [Mass/volume] in Blood</td><td>0.8</td><td>0.6 - 1.1</td><td></td><td>mg/dL</td></tr></table></div>"
        },
        "status": "final",
        "subject": {
          "reference": "urn:uuid:5ed143b8-ca16-4091-8a62-d06924240cc8",
          "display": "Lydia Ward"
        },
        "effectiveDateTime": "2024-03-01T23:08:09Z",
        "specimen": {
          "reference": "urn:uuid:056f050e-44cd-4c1d-9460-7d45b382f429"
        }
      }
    },
    {
      "fullUrl": "urn:uuid:6781eb46-f4fa-4d06-9ce1-32368cb2ea06",
      "resource": {
        "resourceType": "Observation",
        "id": "6781eb46-f4fa-4d06-9ce1-32368cb2ea06",
        "meta": {
          "profile": [
            "http://hl7.eu/fhir/laboratory/StructureDefinition/Observation-resultslab-eu-lab"
          ]
        },
        "performer": [
          {
            "display": "The Central European Lab"
          }
        ],
        "category": [
          {
            "coding": [
              {
                "system": "http://terminology.hl7.org/CodeSystem/observation-category",
                "code": "laboratory"
              }
            ]
          }
        ],
        "code": {
          "coding": [
            {
              "code": "49765-1",
              "system": "http://loinc.org",
              "display": "Calcium [Mass/volume] in Blood"
            }
          ],
          "text": "Calcium [Mass/volume] in Blood"
        },
        "valueQuantity": {
          "system": "http://unitsofmeasure.org",
          "value": 9.6,
          "unit": "mg/dL",
          "code": "mg/dL"
        },
        "referenceRange": [
          {
            "low": {
              "value": 8.5,
              "code": "mg/dL",
              "system": "http://unitsofmeasure.org"
            }
          },
          {
            "high": {
              "value": 10.5,
              "code": "mg/dL",
              "system": "http://unitsofmeasure.org"
            }
          }
        ],
        "text": {
          "status": "generated",
          "div": "<div xmlns=\"http://www.w3.org/1999/xhtml\"><table class=\"hl7__eu__lab__report\"><tr><th>Test</th><th>02-Mar-2024</th><th>Reference&#xA0;Range</th><th>Unit</th></tr><tr><td>Calcium [Mass/volume] in Blood</td><td>9.6</td><td>8.5 - 10.5</td><td></td><td>mg/dL</td></tr></table></div>"
        },
        "status": "final",
        "subject": {
          "reference": "urn:uuid:5ed143b8-ca16-4091-8a62-d06924240cc8",
          "display": "Lydia Ward"
        },
        "effectiveDateTime": "2024-03-01T23:08:09Z",
        "specimen": {
          "reference": "urn:uuid:056f050e-44cd-4c1d-9460-7d45b382f429"
        }
      }
    },
    {
      "fullUrl": "urn:uuid:227bd1ac-377d-4449-b09a-5bf058216cc1",
      "resource": {
        "resourceType": "Observation",
        "id": "227bd1ac-377d-4449-b09a-5bf058216cc1",
        "meta": {
          "profile": [
            "http://hl7.eu/fhir/laboratory/StructureDefinition/Observation-resultslab-eu-lab"
          ]
        },
        "performer": [
          {
            "display": "The Central European Lab"
          }
        ],
        "category": [
          {
            "coding": [
              {
                "system": "http://terminology.hl7.org/CodeSystem/observation-category",
                "code": "laboratory"
              }
            ]
          }
        ],
        "code": {
          "coding": [
            {
              "code": "2947-0",
              "system": "http://loinc.org",
              "display": "Sodium [Moles/volume] in Blood"
            }
          ],
          "text": "Sodium [Moles/volume] in Blood"
        },
        "valueQuantity": {
          "system": "http://unitsofmeasure.org",
          "value": 142.2,
          "unit": "mmol/L",
          "code": "mmol/L"
        },
        "referenceRange": [
          {
            "low": {
              "value": 135,
              "code": "mmol/L",
              "system": "http://unitsofmeasure.org"
            }
          },
          {
            "high": {
              "value": 145,
              "code": "mmol/L",
              "system": "http://unitsofmeasure.org"
            }
          }
        ],
        "text": {
          "status": "generated",
          "div": "<div xmlns=\"http://www.w3.org/1999/xhtml\"><table class=\"hl7__eu__lab__report\"><tr><th>Test</th><th>02-Mar-2024</th><th>Reference&#xA0;Range</th><th>Unit</th></tr><tr><td>Sodium [Moles/volume] in Blood</td><td>142.2</td><td>135 - 145</td><td></td><td>mmol/L</td></tr></table></div>"
        },
        "status": "final",
        "subject": {
          "reference": "urn:uuid:5ed143b8-ca16-4091-8a62-d06924240cc8",
          "display": "Lydia Ward"
        },
        "effectiveDateTime": "2024-03-01T23:08:09Z",
        "specimen": {
          "reference": "urn:uuid:056f050e-44cd-4c1d-9460-7d45b382f429"
        }
      }
    },
    {
      "fullUrl": "urn:uuid:5bab2bc0-41f8-4351-9206-9d5fedb8aad0",
      "resource": {
        "resourceType": "Observation",
        "id": "5bab2bc0-41f8-4351-9206-9d5fedb8aad0",
        "meta": {
          "profile": [
            "http://hl7.eu/fhir/laboratory/StructureDefinition/Observation-resultslab-eu-lab"
          ]
        },
        "performer": [
          {
            "display": "The Central European Lab"
          }
        ],
        "category": [
          {
            "coding": [
              {
                "system": "http://terminology.hl7.org/CodeSystem/observation-category",
                "code": "laboratory"
              }
            ]
          }
        ],
        "code": {
          "coding": [
            {
              "code": "6298-4",
              "system": "http://loinc.org",
              "display": "Potassium [Moles/volume] in Blood"
            }
          ],
          "text": "Potassium [Moles/volume] in Blood"
        },
        "valueQuantity": {
          "system": "http://unitsofmeasure.org",
          "value": 4.1,
          "unit": "mmol/L",
          "code": "mmol/L"
        },
        "referenceRange": [
          {
            "low": {
              "value": 3.5,
              "code": "mmol/L",
              "system": "http://unitsofmeasure.org"
            }
          },
          {
            "high": {
              "value": 5.1,
              "code": "mmol/L",
              "system": "http://unitsofmeasure.org"
            }
          }
        ],
        "text": {
          "status": "generated",
          "div": "<div xmlns=\"http://www.w3.org/1999/xhtml\"><table class=\"hl7__eu__lab__report\"><tr><th>Test</th><th>02-Mar-2024</th><th>Reference&#xA0;Range</th><th>Unit</th></tr><tr><td>Potassium [Moles/volume] in Blood</td><td>4.1</td><td>3.5 - 5.1</td><td></td><td>mmol/L</td></tr></table></div>"
        },
        "status": "final",
        "subject": {
          "reference": "urn:uuid:5ed143b8-ca16-4091-8a62-d06924240cc8",
          "display": "Lydia Ward"
        },
        "effectiveDateTime": "2024-03-01T23:08:09Z",
        "specimen": {
          "reference": "urn:uuid:056f050e-44cd-4c1d-9460-7d45b382f429"
        }
      }
    },
    {
      "fullUrl": "urn:uuid:52f41985-63d5-434b-8880-12011f7f3455",
      "resource": {
        "resourceType": "Observation",
        "id": "52f41985-63d5-434b-8880-12011f7f3455",
        "meta": {
          "profile": [
            "http://hl7.eu/fhir/laboratory/StructureDefinition/Observation-resultslab-eu-lab"
          ]
        },
        "performer": [
          {
            "display": "The Central European Lab"
          }
        ],
        "category": [
          {
            "coding": [
              {
                "system": "http://terminology.hl7.org/CodeSystem/observation-category",
                "code": "laboratory"
              }
            ]
          }
        ],
        "code": {
          "coding": [
            {
              "code": "2069-3",
              "system": "http://loinc.org",
              "display": "Chloride [Moles/volume] in Blood"
            }
          ],
          "text": "Chloride [Moles/volume] in Blood"
        },
        "valueQuantity": {
          "system": "http://unitsofmeasure.org",
          "value": 107.8,
          "unit": "mmol/L",
          "code": "mmol/L"
        },
        "referenceRange": [
          {
            "low": {
              "value": 98,
              "code": "mmol/L",
              "system": "http://unitsofmeasure.org"
            }
          },
          {
            "high": {
              "value": 107,
              "code": "mmol/L",
              "system": "http://unitsofmeasure.org"
            }
          }
        ],
        "interpretation": [
          {
            "coding": [
              {
                "code": "H",
                "system": "http://terminology.hl7.org/CodeSystem/v3-ObservationInterpretation",
                "display": "High"
              }
            ]
          }
        ],
        "text": {
          "status": "generated",
          "div": "<div xmlns=\"http://www.w3.org/1999/xhtml\"><table class=\"hl7__eu__lab__report\"><tr><th>Test</th><th>02-Mar-2024</th><th>Reference&#xA0;Range</th><th>Unit</th></tr><tr><td>Chloride [Moles/volume] in Blood</td><td>107.8</td><td>98 - 107</td><td>H</td><td>mmol/L</td></tr></table></div>"
        },
        "status": "final",
        "subject": {
          "reference": "urn:uuid:5ed143b8-ca16-4091-8a62-d06924240cc8",
          "display": "Lydia Ward"
        },
        "effectiveDateTime": "2024-03-01T23:08:09Z",
        "specimen": {
          "reference": "urn:uuid:056f050e-44cd-4c1d-9460-7d45b382f429"
        }
      }
    },
    {
      "fullUrl": "urn:uuid:3434f9c4-d1ac-4427-8cc0-8d95274fe6f1",
      "resource": {
        "resourceType": "Observation",
        "id": "3434f9c4-d1ac-4427-8cc0-8d95274fe6f1",
        "meta": {
          "profile": [
            "http://hl7.eu/fhir/laboratory/StructureDefinition/Observation-resultslab-eu-lab"
          ]
        },
        "performer": [
          {
            "display": "The Central European Lab"
          }
        ],
        "category": [
          {
            "coding": [
              {
                "system": "http://terminology.hl7.org/CodeSystem/observation-category",
                "code": "laboratory"
              }
            ]
          }
        ],
        "code": {
          "coding": [
            {
              "code": "20565-8",
              "system": "http://loinc.org",
              "display": "Carbon dioxide, total [Moles/volume] in Blood"
            }
          ],
          "text": "Carbon dioxide, total [Moles/volume] in Blood"
        },
        "valueQuantity": {
          "system": "http://unitsofmeasure.org",
          "value": 25.5,
          "unit": "mmol/L",
          "code": "mmol/L"
        },
        "referenceRange": [
          {
            "low": {
              "value": 22,
              "code": "mmol/L",
              "system": "http://unitsofmeasure.org"
            }
          },
          {
            "high": {
              "value": 32,
              "code": "mmol/L",
              "system": "http://unitsofmeasure.org"
            }
          }
        ],
        "text": {
          "status": "generated",
          "div": "<div xmlns=\"http://www.w3.org/1999/xhtml\"><table class=\"hl7__eu__lab__report\"><tr><th>Test</th><th>02-Mar-2024</th><th>Reference&#xA0;Range</th><th>Unit</th></tr><tr><td>Carbon dioxide, total [Moles/volume] in Blood</td><td>25.5</td><td>22 - 32</td><td></td><td>mmol/L</td></tr></table></div>"
        },
        "status": "final",
        "subject": {
          "reference": "urn:uuid:5ed143b8-ca16-4091-8a62-d06924240cc8",
          "display": "Lydia Ward"
        },
        "effectiveDateTime": "2024-03-01T23:08:09Z",
        "specimen": {
          "reference": "urn:uuid:056f050e-44cd-4c1d-9460-7d45b382f429"
        }
      }
    },
    {
      "fullUrl": "urn:uuid:da28c83d-43a0-48fa-9092-183de57e606e",
      "resource": {
        "resourceType": "Device",
        "id": "da28c83d-43a0-48fa-9092-183de57e606e",
        "deviceName": [
          {
            "name": "SYNDERAI Synthetic Generator",
            "type": "manufacturer-name"
          }
        ],
        "version": [
          {
            "value": "5.0"
          }
        ],
        "text": {
          "status": "generated",
          "div": "<div xmlns=\"http://www.w3.org/1999/xhtml\">SYNDERAI Synthetic Generator v5.0</div>"
        },
        "status": "active\"",
        "distinctIdentifier": "synderai-generator-50",
        "manufacturer": "SYNDERAI Project"
      }
    },
    {
      "fullUrl": "urn:uuid:478ef752-b028-4d0d-8aa8-35bba951bce1",
      "resource": {
        "resourceType": "Provenance",
        "id": "478ef752-b028-4d0d-8aa8-35bba951bce1",
        "target": [
          {
            "reference": "Patient/5ed143b8-ca16-4091-8a62-d06924240cc8"
          },
          {
            "reference": "Bundle/4ee05160-4cf5-4ba2-b4bf-b35b6cd28a66"
          },
          {
            "reference": "Composition/6639cb82-8021-4a80-be69-70acee9acc33"
          },
          {
            "reference": "PractitionerRole/e63b3ab1-77a8-4e58-8a1b-3b8b1339dbfd"
          },
          {
            "reference": "Practitioner/8887fed5-e88a-4850-a91a-6ecfc8582468"
          },
          {
            "reference": "PractitionerRole/87ce37b1-9262-4475-af7f-89e56ed74515"
          },
          {
            "reference": "Organization/d2ded5f9-474c-4a2b-bb9c-6133c5f52e5f"
          }
        ],
        "activity": {
          "text": "Synthetic Example Data Generation"
        },
        "policy": [
          "https://synderai.net/synderai-synthetic-data-policy"
        ],
        "agent": [
          {
            "type": {
              "text": "author"
            },
            "who": {
              "reference": "Device/da28c83d-43a0-48fa-9092-183de57e606e"
            }
          }
        ],
        "reason": [
          {
            "text": "Interoperability Testing and Training (non-clinical use)"
          }
        ],
        "text": {
          "status": "generated",
          "div": "<div xmlns=\"http://www.w3.org/1999/xhtml\">Provenance for SYNDERAI Synthetic Example Data Resource</div>"
        },
        "recorded": "2024-03-02T00:08:09Z"
      }
    },
    {
      "fullUrl": "urn:uuid:e63b3ab1-77a8-4e58-8a1b-3b8b1339dbfd",
      "resource": {
        "resourceType": "PractitionerRole",
        "id": "e63b3ab1-77a8-4e58-8a1b-3b8b1339dbfd",
        "meta": {
          "profile": [
            "http://hl7.eu/fhir/base/StructureDefinition/practitionerRole-eu"
          ]
        },
        "text": {
          "status": "generated",
          "div": "<div xmlns=\"http://www.w3.org/1999/xhtml\">Laboratory Role Id: e63b3ab1-77a8-4e58-8a1b-3b8b1339dbfd</div>"
        },
        "practitioner": {
          "reference": "urn:uuid:8887fed5-e88a-4850-a91a-6ecfc8582468"
        }
      }
    },
    {
      "fullUrl": "urn:uuid:8887fed5-e88a-4850-a91a-6ecfc8582468",
      "resource": {
        "resourceType": "Practitioner",
        "id": "8887fed5-e88a-4850-a91a-6ecfc8582468",
        "meta": {
          "profile": [
            "http://hl7.eu/fhir/base/StructureDefinition/practitioner-eu"
          ]
        },
        "identifier": [
          {
            "assigner": {
              "display": "HL7 Europe"
            },
            "system": "urn:oid:2.16.840.1.113883.2.51.999",
            "value": "e9db01fd-0a32-4419-9378-8c134446a0e3"
          }
        ],
        "name": [
          {
            "prefix": [
              "dr"
            ],
            "given": [
              "Ex"
            ],
            "family": "Ample"
          }
        ],
        "address": [
          {
            "line": [
              "Laboratoire Central Européenne",
              "Boulevard du Jardin Botanique 32"
            ],
            "postalCode": "1000",
            "city": "Brussels",
            "country": "Belgium"
          }
        ],
        "text": {
          "status": "generated",
          "div": "<div xmlns=\"http://www.w3.org/1999/xhtml\">Laboratory: Laboratoire Central Européenne, 1000 Brussels, Belgium</div>"
        }
      }
    }
  ],
  "type": "document",
  "timestamp": "2024-03-02T00:08:09Z"
}
