{
  "resourceType": "Bundle",
  "id": "b576c842-ccaf-4883-a305-41820a3aa8a9",
  "meta": {
    "profile": [
      "http://hl7.eu/fhir/laboratory/StructureDefinition/Bundle-eu-lab"
    ]
  },
  "identifier": {
    "assigner": {
      "display": "HL7 Europe"
    },
    "system": "urn:oid:2.16.840.1.113883.2.51.999",
    "value": "d4ced621-ba53-4c8b-b59c-9a4b6f43910f"
  },
  "entry": [
    {
      "fullUrl": "urn:uuid:47a5e626-0da7-445a-8aa1-430cff20992f",
      "resource": {
        "resourceType": "Composition",
        "id": "47a5e626-0da7-445a-8aa1-430cff20992f",
        "meta": {
          "profile": [
            "http://hl7.eu/fhir/laboratory/StructureDefinition/Composition-eu-lab"
          ]
        },
        "identifier": {
          "assigner": {
            "display": "HL7 Europe"
          },
          "system": "urn:oid:2.16.840.1.113883.2.51.999",
          "value": "3512b033-c7ab-4a58-8f9e-eb5eafb47c52"
        },
        "author": [
          {
            "reference": "urn:uuid:4d2e0ac0-1916-4524-a0f3-bdcffeabd47b"
          }
        ],
        "category": [
          {
            "coding": [
              {
                "code": "26436-6",
                "system": "http://loinc.org",
                "display": "Laboratory studies (set)"
              }
            ]
          }
        ],
        "type": {
          "coding": [
            {
              "code": "11502-2",
              "system": "http://loinc.org",
              "display": "Laboratory report"
            }
          ],
          "text": "Laboratory Report"
        },
        "section": [
          {
            "code": {
              "coding": [
                {
                  "code": "26436-6",
                  "system": "http://loinc.org",
                  "display": "Laboratory studies (set)"
                }
              ],
              "text": "Laboratory studies"
            },
            "section": [
              {
                "code": {
                  "coding": [
                    {
                      "code": "$18719-5",
                      "system": "http://loinc.org",
                      "display": "Chemistry studies (set)"
                    }
                  ],
                  "text": "Chemistry"
                },
                "entry": [
                  {
                    "reference": "urn:uuid:fb754983-62a7-4c73-a401-917e2eb4dec0"
                  },
                  {
                    "reference": "urn:uuid:b08bae21-f57a-4a20-a900-f539b8eada04"
                  },
                  {
                    "reference": "urn:uuid:cf6bc361-2452-4f79-807e-706905dce320"
                  },
                  {
                    "reference": "urn:uuid:1dc5a68c-ed5f-42d1-b258-9bf02c81e259"
                  },
                  {
                    "reference": "urn:uuid:48a1d4f5-29ed-4dc2-ba07-c08c19e9e674"
                  },
                  {
                    "reference": "urn:uuid:29cb5933-71da-4846-a854-fff6def097af"
                  },
                  {
                    "reference": "urn:uuid:004087df-6742-4e77-87e4-cb9b2f01a308"
                  },
                  {
                    "reference": "urn:uuid:72b403a3-ac30-46a8-8f2c-209e382472b4"
                  },
                  {
                    "reference": "urn:uuid:e43a6bb6-8798-4583-8b89-3f73f72abd53"
                  },
                  {
                    "reference": "urn:uuid:a23629c2-10d0-45a9-88c0-c9d276cece26"
                  },
                  {
                    "reference": "urn:uuid:c4920742-7aab-436d-affe-e4c2493d3e8e"
                  },
                  {
                    "reference": "urn:uuid:753bc28d-422b-4c65-8209-e602b7918571"
                  },
                  {
                    "reference": "urn:uuid:ebe7bab2-c0fe-4a79-9052-a4860dbb9e3c"
                  },
                  {
                    "reference": "urn:uuid:9a3941ba-0a37-49b9-bf13-6433a9b5bc2d"
                  },
                  {
                    "reference": "urn:uuid:035a9d6a-dfcc-4029-8a48-ea55a75051ae"
                  },
                  {
                    "reference": "urn:uuid:ca4805fa-e8e1-423c-bd5f-2bdc4782d74e"
                  }
                ],
                "text": {
                  "status": "generated",
                  "div": "<div xmlns=\"http://www.w3.org/1999/xhtml\"><h3>Chemistry</h3><table class=\"hl7__eu__lab__report\"><thead><tr><th>Test</th><th>25-APR-2017</th><th>Reference&#xA0;Range</th><th>Unit</th></tr></thead><tbody><tr><td>Glucose [Mass/volume] in Blood</td><td>76.0</td><td>70 - 140</td><td>mg/dL</td></tr><tr><td>Urea nitrogen [Mass/volume] in Blood</td><td>8.1</td><td>7 - 30</td><td>mg/dL</td></tr><tr><td>Creatinine [Mass/volume] in Blood</td><td><strong>3.1 H</strong></td><td>0.5 - 1.3</td><td>mg/dL</td></tr><tr><td>Calcium [Mass/volume] in Blood</td><td>9.6</td><td>8.6 - 10.2</td><td>mg/dL</td></tr><tr><td>Sodium [Moles/volume] in Blood</td><td>142.8</td><td>135 - 145</td><td>mmol/L</td></tr><tr><td>Potassium [Moles/volume] in Blood</td><td>4.6</td><td>3.5 - 5.1</td><td>mmol/L</td></tr><tr><td>Chloride [Moles/volume] in Blood</td><td>103.1</td><td>98 - 114</td><td>mmol/L</td></tr><tr><td>Carbon dioxide, total [Moles/volume] in Blood</td><td>27.5</td><td>22 - 32</td><td>mmol/L</td></tr><tr><td>Protein [Mass/volume] in Serum or Plasma</td><td>6.7</td><td>6 - 8.3</td><td>g/dL</td></tr><tr><td>Albumin [Mass/volume] in Serum or Plasma</td><td>4.8</td><td>3.5 - 5.5</td><td>g/dL</td></tr><tr><td>Globulin [Mass/volume] in Serum by calculation</td><td>3.5</td><td>2 - 3.5</td><td>g/L</td></tr><tr><td>Bilirubin.total [Mass/volume] in Serum or Plasma</td><td><strong>0.2 L</strong></td><td>0.3 - 1.2</td><td>mg/dL</td></tr><tr><td>Alkaline phosphatase [Enzymatic activity/volume] in Serum or Plasma</td><td>114.7</td><td>44 - 142</td><td>U/L</td></tr><tr><td>Alanine aminotransferase [Enzymatic activity/volume] in Serum or Plasma</td><td>39.4</td><td>7 - 40</td><td>U/L</td></tr><tr><td>Aspartate aminotransferase [Enzymatic activity/volume] in Serum or Plasma</td><td><strong>7.3 L</strong></td><td>10 - 40</td><td>U/L</td></tr><tr><td>Ketones [Presence] in Urine by Test strip</td><td>Urine ketone test = +++</td><td></td><td></td></tr></tbody></table></div>"
                },
                "title": "Chemistry"
              },
              {
                "code": {
                  "coding": [
                    {
                      "code": "$18729-4",
                      "system": "http://loinc.org",
                      "display": "Urinalysis studies (set)"
                    }
                  ],
                  "text": "Urinalysis"
                },
                "entry": [
                  {
                    "reference": "urn:uuid:e7285c5f-09c5-4802-bc31-9156a88919ef"
                  },
                  {
                    "reference": "urn:uuid:0ad60752-1913-45c5-ad24-b46d47498bb2"
                  },
                  {
                    "reference": "urn:uuid:f7284597-f177-419b-ae9c-fef62127ecc5"
                  },
                  {
                    "reference": "urn:uuid:66c4f6e9-7bb4-4a45-90f7-c794e5a69deb"
                  },
                  {
                    "reference": "urn:uuid:4e6de705-23f8-40ee-9d4c-fd8f837e20f9"
                  },
                  {
                    "reference": "urn:uuid:f35a79dd-053a-4b4d-b071-041cc91dccbe"
                  },
                  {
                    "reference": "urn:uuid:1b19bef9-f592-4809-bf15-b6c389a6d3e2"
                  },
                  {
                    "reference": "urn:uuid:2be3cbee-0926-4322-8ef4-6819404f61a4"
                  },
                  {
                    "reference": "urn:uuid:1addb94c-48c6-443f-8c9c-4b38d76b9e93"
                  },
                  {
                    "reference": "urn:uuid:83aaf501-623f-4cea-b77f-b18fa1e80a77"
                  },
                  {
                    "reference": "urn:uuid:66408ad5-e192-4004-9df0-97b9301ecc14"
                  },
                  {
                    "reference": "urn:uuid:3b01b74f-ff93-4927-9062-5f1f77d6dfab"
                  }
                ],
                "text": {
                  "status": "generated",
                  "div": "<div xmlns=\"http://www.w3.org/1999/xhtml\"><h3>Urinalysis</h3><table class=\"hl7__eu__lab__report\"><thead><tr><th>Test</th><th>25-APR-2017</th><th>Reference&#xA0;Range</th><th>Unit</th></tr></thead><tbody><tr><td>Glucose [Mass/volume] in Urine by Test strip</td><td><strong>1.3 H</strong></td><td>0.8 - 0</td><td>mg/dL</td></tr><tr><td>Glucose [Presence] in Urine by Test strip</td><td>++</td><td></td><td></td></tr><tr><td>Bilirubin.total [Mass/volume] in Urine by Test strip</td><td>0.8</td><td>0 - 1.5</td><td>mg/dL</td></tr><tr><td>Bilirubin.total [Presence] in Urine by Test strip</td><td>Finding of bilirubin in urine</td><td></td><td></td></tr><tr><td>Ketones [Mass/volume] in Urine by Test strip</td><td><strong>17.3 H</strong></td><td>0 - 8</td><td>mg/dL</td></tr><tr><td>Specific gravity of Urine by Test strip</td><td><strong>1.0 L</strong></td><td>1.01 - 1.03</td><td>{nominal}</td></tr><tr><td>pH of Urine by Test strip</td><td>6.8</td><td>4.6 - 7.5</td><td>pH</td></tr><tr><td>Protein [Mass/volume] in Urine by Test strip</td><td><strong>263.9 H</strong></td><td>0 - 14</td><td>mg/dL</td></tr><tr><td>Protein [Presence] in Urine by Test strip</td><td>Urine protein test = +++</td><td></td><td></td></tr><tr><td>Nitrite [Presence] in Urine by Test strip</td><td>Urine nitrite negative</td><td></td><td></td></tr><tr><td>Hemoglobin [Presence] in Urine by Test strip</td><td>Urine blood test = negative</td><td></td><td></td></tr><tr><td>Leukocyte esterase [Presence] in Urine by Test strip</td><td>Urine leukocyte test negative</td><td></td><td></td></tr></tbody></table></div>"
                },
                "title": "Urinalysis"
              },
              {
                "code": {
                  "coding": [
                    {
                      "code": "$LP7846-1",
                      "system": "http://loinc.org",
                      "display": "Specimen information"
                    }
                  ],
                  "text": "Specimen information"
                },
                "entry": [
                  {
                    "reference": "urn:uuid:81c6ea95-dc5e-4e98-afd2-83a914e9ff88"
                  },
                  {
                    "reference": "urn:uuid:98459d4c-dcfc-490e-b24e-03eff93f8aa3"
                  },
                  {
                    "reference": "urn:uuid:9a893203-8e65-4b50-b977-11482b466238"
                  },
                  {
                    "reference": "urn:uuid:fc523b75-8d0c-4b7a-8f6c-0bd10f7045d1"
                  }
                ],
                "text": {
                  "status": "generated",
                  "div": "<div xmlns=\"http://www.w3.org/1999/xhtml\"><h3>Specimen information</h3><table class=\"hl7__eu__lab__report\"><thead><tr><th>Test</th><th>25-APR-2017</th><th>Specimen</th><th></th></tr></thead><tbody><tr><td>Appearance of Urine</td><td>Cloudy urine</td><td>Urine</td><td></td></tr><tr><td>Odor of Urine</td><td>Urine smell ammoniacal</td><td>Urine</td><td></td></tr><tr><td>Clarity of Urine</td><td>Translucent</td><td>Urine</td><td></td></tr><tr><td>Color of Urine</td><td>Brown color</td><td>Urine</td><td></td></tr></tbody></table></div>"
                },
                "title": "Specimen information"
              }
            ],
            "title": "Laboratory Report"
          },
          {
            "text": {
              "status": "generated",
              "div": "<div xmlns=\"http://www.w3.org/1999/xhtml\"><h3>Annotation</h3><table class=\"hl7__eu__lab__report\"><tr><th>Conclusion and Recommendations based on this report and previous findings known to us</th></tr><tr><td>The patient shows markedly elevated serum creatinine, indicating significant renal impairment. Urinalysis reveals proteinuria, glucosuria, and ketonuria, with low specific gravity and abnormal urine appearance, suggesting possible nephrotic syndrome or diabetic nephropathy with impaired concentrating ability. No evidence of urinary tract infection. Liver enzymes and electrolytes are within normal limits. Recommend urgent nephrology evaluation and assessment for underlying causes of renal dysfunction.</td></tr></table></div>"
            },
            "code": {
              "coding": [
                {
                  "system": "http://loinc.org",
                  "code": "48767-8",
                  "display": "Annotation comment"
                }
              ]
            },
            "title": "Annotation comment"
          }
        ],
        "status": "final",
        "subject": {
          "reference": "urn:uuid:e7233783-2c91-4060-b085-043cd4c67aac",
          "display": "Maria Nohlmans"
        },
        "date": "2017-04-25T02:40:39Z",
        "title": "Laboratory Report",
        "confidentiality": "N"
      }
    },
    {
      "fullUrl": "urn:uuid:b7f895bd-27fe-4636-b4d2-abebe51e9c31",
      "resource": {
        "resourceType": "DiagnosticReport",
        "id": "b7f895bd-27fe-4636-b4d2-abebe51e9c31",
        "meta": {
          "profile": [
            "http://hl7.eu/fhir/laboratory/StructureDefinition/DiagnosticReport-eu-lab"
          ]
        },
        "identifier": [
          {
            "assigner": {
              "display": "HL7 Europe"
            },
            "system": "urn:oid:2.16.840.1.113883.2.51.999",
            "value": "fe62720c-3367-44ad-b409-3535ba5781da"
          }
        ],
        "extension": [
          {
            "url": "http://hl7.org/fhir/5.0/StructureDefinition/extension-DiagnosticReport.composition",
            "valueReference": {
              "reference": "urn:uuid:3512b033-c7ab-4a58-8f9e-eb5eafb47c52"
            }
          }
        ],
        "category": [
          {
            "coding": [
              {
                "code": "26436-6",
                "system": "http://loinc.org",
                "display": "Laboratory studies (set)"
              }
            ]
          }
        ],
        "specimen": [
          {
            "reference": "urn:uuid:c7a40d1e-955e-42e2-b464-f736ca4f2d02"
          },
          {
            "reference": "urn:uuid:44901d5e-4730-48e4-a2c4-e27076585726"
          },
          {
            "reference": "urn:uuid:3c644664-c89c-4e84-b31b-7d2de03740f6"
          },
          {
            "reference": "urn:uuid:90f7a45d-b8bf-4335-9eed-1350861fe1d9"
          }
        ],
        "result": [
          {
            "reference": "urn:uuid:fb754983-62a7-4c73-a401-917e2eb4dec0"
          },
          {
            "reference": "urn:uuid:b08bae21-f57a-4a20-a900-f539b8eada04"
          },
          {
            "reference": "urn:uuid:cf6bc361-2452-4f79-807e-706905dce320"
          },
          {
            "reference": "urn:uuid:1dc5a68c-ed5f-42d1-b258-9bf02c81e259"
          },
          {
            "reference": "urn:uuid:48a1d4f5-29ed-4dc2-ba07-c08c19e9e674"
          },
          {
            "reference": "urn:uuid:29cb5933-71da-4846-a854-fff6def097af"
          },
          {
            "reference": "urn:uuid:004087df-6742-4e77-87e4-cb9b2f01a308"
          },
          {
            "reference": "urn:uuid:72b403a3-ac30-46a8-8f2c-209e382472b4"
          },
          {
            "reference": "urn:uuid:e43a6bb6-8798-4583-8b89-3f73f72abd53"
          },
          {
            "reference": "urn:uuid:a23629c2-10d0-45a9-88c0-c9d276cece26"
          },
          {
            "reference": "urn:uuid:c4920742-7aab-436d-affe-e4c2493d3e8e"
          },
          {
            "reference": "urn:uuid:753bc28d-422b-4c65-8209-e602b7918571"
          },
          {
            "reference": "urn:uuid:ebe7bab2-c0fe-4a79-9052-a4860dbb9e3c"
          },
          {
            "reference": "urn:uuid:9a3941ba-0a37-49b9-bf13-6433a9b5bc2d"
          },
          {
            "reference": "urn:uuid:035a9d6a-dfcc-4029-8a48-ea55a75051ae"
          },
          {
            "reference": "urn:uuid:81c6ea95-dc5e-4e98-afd2-83a914e9ff88"
          },
          {
            "reference": "urn:uuid:98459d4c-dcfc-490e-b24e-03eff93f8aa3"
          },
          {
            "reference": "urn:uuid:9a893203-8e65-4b50-b977-11482b466238"
          },
          {
            "reference": "urn:uuid:fc523b75-8d0c-4b7a-8f6c-0bd10f7045d1"
          },
          {
            "reference": "urn:uuid:e7285c5f-09c5-4802-bc31-9156a88919ef"
          },
          {
            "reference": "urn:uuid:0ad60752-1913-45c5-ad24-b46d47498bb2"
          },
          {
            "reference": "urn:uuid:f7284597-f177-419b-ae9c-fef62127ecc5"
          },
          {
            "reference": "urn:uuid:66c4f6e9-7bb4-4a45-90f7-c794e5a69deb"
          },
          {
            "reference": "urn:uuid:4e6de705-23f8-40ee-9d4c-fd8f837e20f9"
          },
          {
            "reference": "urn:uuid:ca4805fa-e8e1-423c-bd5f-2bdc4782d74e"
          },
          {
            "reference": "urn:uuid:f35a79dd-053a-4b4d-b071-041cc91dccbe"
          },
          {
            "reference": "urn:uuid:1b19bef9-f592-4809-bf15-b6c389a6d3e2"
          },
          {
            "reference": "urn:uuid:2be3cbee-0926-4322-8ef4-6819404f61a4"
          },
          {
            "reference": "urn:uuid:1addb94c-48c6-443f-8c9c-4b38d76b9e93"
          },
          {
            "reference": "urn:uuid:83aaf501-623f-4cea-b77f-b18fa1e80a77"
          },
          {
            "reference": "urn:uuid:66408ad5-e192-4004-9df0-97b9301ecc14"
          },
          {
            "reference": "urn:uuid:3b01b74f-ff93-4927-9062-5f1f77d6dfab"
          }
        ],
        "status": "registered",
        "code": {
          "coding": [
            {
              "code": "11502-2",
              "system": "http://loinc.org",
              "display": "Laboratory report"
            }
          ]
        },
        "subject": {
          "reference": "urn:uuid:e7233783-2c91-4060-b085-043cd4c67aac",
          "display": "Maria Nohlmans"
        }
      }
    },
    {
      "fullUrl": "urn:uuid:e7233783-2c91-4060-b085-043cd4c67aac",
      "resource": {
        "resourceType": "Patient",
        "id": "e7233783-2c91-4060-b085-043cd4c67aac",
        "meta": {
          "security": [
            {
              "system": "http://terminology.hl7.org/CodeSystem/v3-ActReason",
              "code": "HTEST"
            },
            {
              "system": "http://terminology.hl7.org/CodeSystem/v3-ActReason",
              "code": "TRAIN"
            }
          ],
          "tag": [
            {
              "system": "https://synderai.net/fhir/CodeSystem/tags",
              "code": "synthetic",
              "display": "SYNDERAI Synthetic data"
            }
          ],
          "profile": [
            "http://hl7.eu/fhir/base/StructureDefinition/patient-eu-core"
          ]
        },
        "identifier": [
          {
            "type": {
              "coding": [
                {
                  "code": "PT",
                  "system": "http://terminology.hl7.org/CodeSystem/v2-0203"
                }
              ]
            },
            "system": "http://ec.europa.eu/identifier/eci",
            "value": "6886-506417-1"
          },
          {
            "type": {
              "coding": [
                {
                  "code": "MR",
                  "system": "http://terminology.hl7.org/CodeSystem/v2-0203"
                }
              ]
            },
            "system": "http://local.setting.eu/identifier",
            "value": "2cb21ed6-b617-b1f3-2290-589a710de5ee"
          }
        ],
        "name": [
          {
            "family": "Nohlmans"
          },
          {
            "given": [
              "Maria"
            ]
          },
          {
            "text": "Maria Nohlmans"
          }
        ],
        "address": [
          {
            "line": [
              "Alfons-Wulff-Weg 1"
            ],
            "use": "home",
            "type": "physical",
            "postalCode": "25813",
            "city": "Husum",
            "country": "Germany"
          }
        ],
        "telecom": [
          {
            "system": "phone",
            "value": "+49(0)1911 105501"
          }
        ],
        "extension": [
          {
            "url": "http://hl7.org/fhir/StructureDefinition/patient-nationality",
            "valueCodeableConcept": {
              "coding": [
                {
                  "code": "DE",
                  "system": "http://hl7.org/fhir/ValueSet/country"
                }
              ]
            }
          }
        ],
        "text": {
          "status": "generated",
          "div": "<div xmlns=\"http://www.w3.org/1999/xhtml\"><table class=\"hl7__ips\"><tr><td>Maria Nohlmans</td><td>female</td><td>11-Jun-1947</td></tr></table></div>"
        },
        "gender": "female",
        "birthDate": "1947-06-11"
      }
    },
    {
      "fullUrl": "urn:uuid:320ce53b-9ec2-41b3-9e69-8762ffe87d83",
      "resource": {
        "resourceType": "ServiceRequest",
        "id": "320ce53b-9ec2-41b3-9e69-8762ffe87d83",
        "meta": {
          "profile": [
            "http://hl7.eu/fhir/laboratory/StructureDefinition/ServiceRequest-eu-lab"
          ]
        },
        "identifier": [
          {
            "system": "http://example.org",
            "value": "24d5260f-9428-413f-be07-1995391fee57"
          }
        ],
        "specimen": [
          {
            "reference": "urn:uuid:c7a40d1e-955e-42e2-b464-f736ca4f2d02"
          },
          {
            "reference": "urn:uuid:44901d5e-4730-48e4-a2c4-e27076585726"
          },
          {
            "reference": "urn:uuid:3c644664-c89c-4e84-b31b-7d2de03740f6"
          },
          {
            "reference": "urn:uuid:90f7a45d-b8bf-4335-9eed-1350861fe1d9"
          }
        ],
        "reasonCode": [
          {
            "coding": [
              {
                "code": "401314000",
                "system": "http://snomed.info/sct",
                "display": "Acute non-ST segment elevation myocardial infarction"
              }
            ]
          },
          {
            "coding": [
              {
                "code": "157141000119108",
                "system": "http://snomed.info/sct",
                "display": "Proteinuria due to type 2 diabetes mellitus"
              }
            ]
          },
          {
            "coding": [
              {
                "code": "237602007",
                "system": "http://snomed.info/sct",
                "display": "Metabolic syndrome X"
              }
            ]
          },
          {
            "coding": [
              {
                "code": "90781000119102",
                "system": "http://snomed.info/sct",
                "display": "Microalbuminuria due to type 2 diabetes mellitus"
              }
            ]
          },
          {
            "coding": [
              {
                "code": "127013003",
                "system": "http://snomed.info/sct",
                "display": "Disorder of kidney due to diabetes mellitus"
              }
            ]
          },
          {
            "coding": [
              {
                "code": "59621000",
                "system": "http://snomed.info/sct",
                "display": "Essential hypertension"
              }
            ]
          },
          {
            "coding": [
              {
                "code": "271737000",
                "system": "http://snomed.info/sct",
                "display": "Anemia"
              }
            ]
          },
          {
            "coding": [
              {
                "code": "15777000",
                "system": "http://snomed.info/sct",
                "display": "Prediabetes"
              }
            ]
          }
        ],
        "status": "active",
        "intent": "order",
        "code": {
          "coding": [
            {
              "code": "108252007",
              "system": "http://snomed.info/sct",
              "display": "Laboratory procedure"
            }
          ]
        },
        "subject": {
          "reference": "urn:uuid:e7233783-2c91-4060-b085-043cd4c67aac",
          "display": "Maria Nohlmans"
        },
        "requester": {
          "reference": "urn:uuid:2e76cb41-c9b4-4fc5-b967-21e1f16e7791"
        }
      }
    },
    {
      "fullUrl": "urn:uuid:2e76cb41-c9b4-4fc5-b967-21e1f16e7791",
      "resource": {
        "resourceType": "PractitionerRole",
        "id": "2e76cb41-c9b4-4fc5-b967-21e1f16e7791",
        "meta": {
          "profile": [
            "http://hl7.eu/fhir/base/StructureDefinition/practitionerRole-eu"
          ]
        },
        "text": {
          "status": "generated",
          "div": "<div xmlns=\"http://www.w3.org/1999/xhtml\">Provider Role Id: 2e76cb41-c9b4-4fc5-b967-21e1f16e7791</div>"
        },
        "organization": {
          "reference": "urn:uuid:d405c638-82bc-4a85-8d20-1365c767f057"
        }
      }
    },
    {
      "fullUrl": "urn:uuid:d405c638-82bc-4a85-8d20-1365c767f057",
      "resource": {
        "resourceType": "Organization",
        "id": "d405c638-82bc-4a85-8d20-1365c767f057",
        "meta": {
          "profile": [
            "http://hl7.eu/fhir/base/StructureDefinition/organization-eu"
          ]
        },
        "identifier": [
          {
            "assigner": {
              "display": "HL7 Europe"
            },
            "system": "urn:oid:2.16.840.1.113883.2.51.999",
            "value": "8f027786-4bd6-4005-a76f-e6c4775504df"
          }
        ],
        "address": [
          {
            "line": [
              "Brinckmannstraße 35"
            ],
            "city": "Husum",
            "postalCode": "25813",
            "country": "Germany"
          }
        ],
        "text": {
          "status": "generated",
          "div": "<div xmlns=\"http://www.w3.org/1999/xhtml\">Provider Organization: Dr. Wolfram Hussels Kieferorthopäde</div>"
        },
        "name": "Dr. Wolfram Hussels Kieferorthopäde"
      }
    },
    {
      "fullUrl": "urn:uuid:c7a40d1e-955e-42e2-b464-f736ca4f2d02",
      "resource": {
        "resourceType": "Specimen",
        "id": "c7a40d1e-955e-42e2-b464-f736ca4f2d02",
        "meta": {
          "profile": [
            "http://hl7.eu/fhir/laboratory/StructureDefinition/Specimen-eu-lab"
          ]
        },
        "collection": {
          "collectedDateTime": "2017-04-25"
        },
        "text": {
          "status": "generated",
          "div": "<div xmlns=\"http://www.w3.org/1999/xhtml\"><table class=\"hl7__eu__lab__report\"><tr><th>Specimen</th><th>Collection Date</th></tr><tr><td>Whole blood specimen (specimen)</td><td><span class=\"nb\">25-Apr-2017</span></td></tr></table></div>"
        },
        "type": {
          "coding": [
            {
              "code": "258580003",
              "system": "http://snomed.info/sct",
              "display": "Whole blood specimen (specimen)"
            }
          ]
        }
      }
    },
    {
      "fullUrl": "urn:uuid:44901d5e-4730-48e4-a2c4-e27076585726",
      "resource": {
        "resourceType": "Specimen",
        "id": "44901d5e-4730-48e4-a2c4-e27076585726",
        "meta": {
          "profile": [
            "http://hl7.eu/fhir/laboratory/StructureDefinition/Specimen-eu-lab"
          ]
        },
        "collection": {
          "collectedDateTime": "2017-04-25"
        },
        "text": {
          "status": "generated",
          "div": "<div xmlns=\"http://www.w3.org/1999/xhtml\"><table class=\"hl7__eu__lab__report\"><tr><th>Specimen</th><th>Collection Date</th></tr><tr><td>Acellular blood (serum or plasma) specimen</td><td><span class=\"nb\">25-Apr-2017</span></td></tr></table></div>"
        },
        "type": {
          "coding": [
            {
              "code": "122592007",
              "system": "http://snomed.info/sct",
              "display": "Acellular blood (serum or plasma) specimen"
            }
          ]
        }
      }
    },
    {
      "fullUrl": "urn:uuid:3c644664-c89c-4e84-b31b-7d2de03740f6",
      "resource": {
        "resourceType": "Specimen",
        "id": "3c644664-c89c-4e84-b31b-7d2de03740f6",
        "meta": {
          "profile": [
            "http://hl7.eu/fhir/laboratory/StructureDefinition/Specimen-eu-lab"
          ]
        },
        "collection": {
          "collectedDateTime": "2017-04-25"
        },
        "text": {
          "status": "generated",
          "div": "<div xmlns=\"http://www.w3.org/1999/xhtml\"><table class=\"hl7__eu__lab__report\"><tr><th>Specimen</th><th>Collection Date</th></tr><tr><td>Serum specimen</td><td><span class=\"nb\">25-Apr-2017</span></td></tr></table></div>"
        },
        "type": {
          "coding": [
            {
              "code": "119364003",
              "system": "http://snomed.info/sct",
              "display": "Serum specimen"
            }
          ]
        }
      }
    },
    {
      "fullUrl": "urn:uuid:90f7a45d-b8bf-4335-9eed-1350861fe1d9",
      "resource": {
        "resourceType": "Specimen",
        "id": "90f7a45d-b8bf-4335-9eed-1350861fe1d9",
        "meta": {
          "profile": [
            "http://hl7.eu/fhir/laboratory/StructureDefinition/Specimen-eu-lab"
          ]
        },
        "collection": {
          "collectedDateTime": "2017-04-25"
        },
        "text": {
          "status": "generated",
          "div": "<div xmlns=\"http://www.w3.org/1999/xhtml\"><table class=\"hl7__eu__lab__report\"><tr><th>Specimen</th><th>Collection Date</th></tr><tr><td>Urine specimen</td><td><span class=\"nb\">25-Apr-2017</span></td></tr></table></div>"
        },
        "type": {
          "coding": [
            {
              "code": "122575003",
              "system": "http://snomed.info/sct",
              "display": "Urine specimen"
            }
          ]
        }
      }
    },
    {
      "fullUrl": "urn:uuid:fb754983-62a7-4c73-a401-917e2eb4dec0",
      "resource": {
        "resourceType": "Observation",
        "id": "fb754983-62a7-4c73-a401-917e2eb4dec0",
        "meta": {
          "profile": [
            "http://hl7.eu/fhir/laboratory/StructureDefinition/Observation-resultslab-eu-lab"
          ]
        },
        "performer": [
          {
            "display": "The Central European Lab"
          }
        ],
        "category": [
          {
            "coding": [
              {
                "system": "http://terminology.hl7.org/CodeSystem/observation-category",
                "code": "laboratory"
              }
            ]
          }
        ],
        "code": {
          "coding": [
            {
              "code": "2339-0",
              "system": "http://loinc.org",
              "display": "Glucose [Mass/volume] in Blood"
            }
          ],
          "text": "Glucose [Mass/volume] in Blood"
        },
        "valueQuantity": {
          "system": "http://unitsofmeasure.org",
          "value": 76,
          "unit": "mg/dL",
          "code": "mg/dL"
        },
        "referenceRange": [
          {
            "low": {
              "value": 70,
              "code": "mg/dL",
              "system": "http://unitsofmeasure.org"
            }
          },
          {
            "high": {
              "value": 140,
              "code": "mg/dL",
              "system": "http://unitsofmeasure.org"
            }
          }
        ],
        "text": {
          "status": "generated",
          "div": "<div xmlns=\"http://www.w3.org/1999/xhtml\"><table class=\"hl7__eu__lab__report\"><tr><th>Test</th><th>25-Apr-2017</th><th>Reference&#xA0;Range</th><th>Unit</th></tr><tr><td>Glucose [Mass/volume] in Blood</td><td>76.0</td><td>70 - 140</td><td></td><td>mg/dL</td></tr></table></div>"
        },
        "status": "final",
        "subject": {
          "reference": "urn:uuid:e7233783-2c91-4060-b085-043cd4c67aac",
          "display": "Maria Nohlmans"
        },
        "effectiveDateTime": "2017-04-25T00:40:39Z",
        "specimen": {
          "reference": "urn:uuid:c7a40d1e-955e-42e2-b464-f736ca4f2d02"
        }
      }
    },
    {
      "fullUrl": "urn:uuid:b08bae21-f57a-4a20-a900-f539b8eada04",
      "resource": {
        "resourceType": "Observation",
        "id": "b08bae21-f57a-4a20-a900-f539b8eada04",
        "meta": {
          "profile": [
            "http://hl7.eu/fhir/laboratory/StructureDefinition/Observation-resultslab-eu-lab"
          ]
        },
        "performer": [
          {
            "display": "The Central European Lab"
          }
        ],
        "category": [
          {
            "coding": [
              {
                "system": "http://terminology.hl7.org/CodeSystem/observation-category",
                "code": "laboratory"
              }
            ]
          }
        ],
        "code": {
          "coding": [
            {
              "code": "6299-2",
              "system": "http://loinc.org",
              "display": "Urea nitrogen [Mass/volume] in Blood"
            }
          ],
          "text": "Urea nitrogen [Mass/volume] in Blood"
        },
        "valueQuantity": {
          "system": "http://unitsofmeasure.org",
          "value": 8.1,
          "unit": "mg/dL",
          "code": "mg/dL"
        },
        "referenceRange": [
          {
            "low": {
              "value": 7,
              "code": "mg/dL",
              "system": "http://unitsofmeasure.org"
            }
          },
          {
            "high": {
              "value": 30,
              "code": "mg/dL",
              "system": "http://unitsofmeasure.org"
            }
          }
        ],
        "text": {
          "status": "generated",
          "div": "<div xmlns=\"http://www.w3.org/1999/xhtml\"><table class=\"hl7__eu__lab__report\"><tr><th>Test</th><th>25-Apr-2017</th><th>Reference&#xA0;Range</th><th>Unit</th></tr><tr><td>Urea nitrogen [Mass/volume] in Blood</td><td>8.1</td><td>7 - 30</td><td></td><td>mg/dL</td></tr></table></div>"
        },
        "status": "final",
        "subject": {
          "reference": "urn:uuid:e7233783-2c91-4060-b085-043cd4c67aac",
          "display": "Maria Nohlmans"
        },
        "effectiveDateTime": "2017-04-25T00:40:39Z",
        "specimen": {
          "reference": "urn:uuid:c7a40d1e-955e-42e2-b464-f736ca4f2d02"
        }
      }
    },
    {
      "fullUrl": "urn:uuid:cf6bc361-2452-4f79-807e-706905dce320",
      "resource": {
        "resourceType": "Observation",
        "id": "cf6bc361-2452-4f79-807e-706905dce320",
        "meta": {
          "profile": [
            "http://hl7.eu/fhir/laboratory/StructureDefinition/Observation-resultslab-eu-lab"
          ]
        },
        "performer": [
          {
            "display": "The Central European Lab"
          }
        ],
        "category": [
          {
            "coding": [
              {
                "system": "http://terminology.hl7.org/CodeSystem/observation-category",
                "code": "laboratory"
              }
            ]
          }
        ],
        "code": {
          "coding": [
            {
              "code": "38483-4",
              "system": "http://loinc.org",
              "display": "Creatinine [Mass/volume] in Blood"
            }
          ],
          "text": "Creatinine [Mass/volume] in Blood"
        },
        "valueQuantity": {
          "system": "http://unitsofmeasure.org",
          "value": 3.1,
          "unit": "mg/dL",
          "code": "mg/dL"
        },
        "referenceRange": [
          {
            "low": {
              "value": 0.5,
              "code": "mg/dL",
              "system": "http://unitsofmeasure.org"
            }
          },
          {
            "high": {
              "value": 1.3,
              "code": "mg/dL",
              "system": "http://unitsofmeasure.org"
            }
          }
        ],
        "interpretation": [
          {
            "coding": [
              {
                "code": "H",
                "system": "http://terminology.hl7.org/CodeSystem/v3-ObservationInterpretation",
                "display": "High"
              }
            ]
          }
        ],
        "text": {
          "status": "generated",
          "div": "<div xmlns=\"http://www.w3.org/1999/xhtml\"><table class=\"hl7__eu__lab__report\"><tr><th>Test</th><th>25-Apr-2017</th><th>Reference&#xA0;Range</th><th>Unit</th></tr><tr><td>Creatinine [Mass/volume] in Blood</td><td>3.1</td><td>0.5 - 1.3</td><td>H</td><td>mg/dL</td></tr></table></div>"
        },
        "status": "final",
        "subject": {
          "reference": "urn:uuid:e7233783-2c91-4060-b085-043cd4c67aac",
          "display": "Maria Nohlmans"
        },
        "effectiveDateTime": "2017-04-25T00:40:39Z",
        "specimen": {
          "reference": "urn:uuid:c7a40d1e-955e-42e2-b464-f736ca4f2d02"
        }
      }
    },
    {
      "fullUrl": "urn:uuid:1dc5a68c-ed5f-42d1-b258-9bf02c81e259",
      "resource": {
        "resourceType": "Observation",
        "id": "1dc5a68c-ed5f-42d1-b258-9bf02c81e259",
        "meta": {
          "profile": [
            "http://hl7.eu/fhir/laboratory/StructureDefinition/Observation-resultslab-eu-lab"
          ]
        },
        "performer": [
          {
            "display": "The Central European Lab"
          }
        ],
        "category": [
          {
            "coding": [
              {
                "system": "http://terminology.hl7.org/CodeSystem/observation-category",
                "code": "laboratory"
              }
            ]
          }
        ],
        "code": {
          "coding": [
            {
              "code": "49765-1",
              "system": "http://loinc.org",
              "display": "Calcium [Mass/volume] in Blood"
            }
          ],
          "text": "Calcium [Mass/volume] in Blood"
        },
        "valueQuantity": {
          "system": "http://unitsofmeasure.org",
          "value": 9.6,
          "unit": "mg/dL",
          "code": "mg/dL"
        },
        "referenceRange": [
          {
            "low": {
              "value": 8.6,
              "code": "mg/dL",
              "system": "http://unitsofmeasure.org"
            }
          },
          {
            "high": {
              "value": 10.2,
              "code": "mg/dL",
              "system": "http://unitsofmeasure.org"
            }
          }
        ],
        "text": {
          "status": "generated",
          "div": "<div xmlns=\"http://www.w3.org/1999/xhtml\"><table class=\"hl7__eu__lab__report\"><tr><th>Test</th><th>25-Apr-2017</th><th>Reference&#xA0;Range</th><th>Unit</th></tr><tr><td>Calcium [Mass/volume] in Blood</td><td>9.6</td><td>8.6 - 10.2</td><td></td><td>mg/dL</td></tr></table></div>"
        },
        "status": "final",
        "subject": {
          "reference": "urn:uuid:e7233783-2c91-4060-b085-043cd4c67aac",
          "display": "Maria Nohlmans"
        },
        "effectiveDateTime": "2017-04-25T00:40:39Z",
        "specimen": {
          "reference": "urn:uuid:c7a40d1e-955e-42e2-b464-f736ca4f2d02"
        }
      }
    },
    {
      "fullUrl": "urn:uuid:48a1d4f5-29ed-4dc2-ba07-c08c19e9e674",
      "resource": {
        "resourceType": "Observation",
        "id": "48a1d4f5-29ed-4dc2-ba07-c08c19e9e674",
        "meta": {
          "profile": [
            "http://hl7.eu/fhir/laboratory/StructureDefinition/Observation-resultslab-eu-lab"
          ]
        },
        "performer": [
          {
            "display": "The Central European Lab"
          }
        ],
        "category": [
          {
            "coding": [
              {
                "system": "http://terminology.hl7.org/CodeSystem/observation-category",
                "code": "laboratory"
              }
            ]
          }
        ],
        "code": {
          "coding": [
            {
              "code": "2947-0",
              "system": "http://loinc.org",
              "display": "Sodium [Moles/volume] in Blood"
            }
          ],
          "text": "Sodium [Moles/volume] in Blood"
        },
        "valueQuantity": {
          "system": "http://unitsofmeasure.org",
          "value": 142.8,
          "unit": "mmol/L",
          "code": "mmol/L"
        },
        "referenceRange": [
          {
            "low": {
              "value": 135,
              "code": "mmol/L",
              "system": "http://unitsofmeasure.org"
            }
          },
          {
            "high": {
              "value": 145,
              "code": "mmol/L",
              "system": "http://unitsofmeasure.org"
            }
          }
        ],
        "text": {
          "status": "generated",
          "div": "<div xmlns=\"http://www.w3.org/1999/xhtml\"><table class=\"hl7__eu__lab__report\"><tr><th>Test</th><th>25-Apr-2017</th><th>Reference&#xA0;Range</th><th>Unit</th></tr><tr><td>Sodium [Moles/volume] in Blood</td><td>142.8</td><td>135 - 145</td><td></td><td>mmol/L</td></tr></table></div>"
        },
        "status": "final",
        "subject": {
          "reference": "urn:uuid:e7233783-2c91-4060-b085-043cd4c67aac",
          "display": "Maria Nohlmans"
        },
        "effectiveDateTime": "2017-04-25T00:40:39Z",
        "specimen": {
          "reference": "urn:uuid:c7a40d1e-955e-42e2-b464-f736ca4f2d02"
        }
      }
    },
    {
      "fullUrl": "urn:uuid:29cb5933-71da-4846-a854-fff6def097af",
      "resource": {
        "resourceType": "Observation",
        "id": "29cb5933-71da-4846-a854-fff6def097af",
        "meta": {
          "profile": [
            "http://hl7.eu/fhir/laboratory/StructureDefinition/Observation-resultslab-eu-lab"
          ]
        },
        "performer": [
          {
            "display": "The Central European Lab"
          }
        ],
        "category": [
          {
            "coding": [
              {
                "system": "http://terminology.hl7.org/CodeSystem/observation-category",
                "code": "laboratory"
              }
            ]
          }
        ],
        "code": {
          "coding": [
            {
              "code": "6298-4",
              "system": "http://loinc.org",
              "display": "Potassium [Moles/volume] in Blood"
            }
          ],
          "text": "Potassium [Moles/volume] in Blood"
        },
        "valueQuantity": {
          "system": "http://unitsofmeasure.org",
          "value": 4.6,
          "unit": "mmol/L",
          "code": "mmol/L"
        },
        "referenceRange": [
          {
            "low": {
              "value": 3.5,
              "code": "mmol/L",
              "system": "http://unitsofmeasure.org"
            }
          },
          {
            "high": {
              "value": 5.1,
              "code": "mmol/L",
              "system": "http://unitsofmeasure.org"
            }
          }
        ],
        "text": {
          "status": "generated",
          "div": "<div xmlns=\"http://www.w3.org/1999/xhtml\"><table class=\"hl7__eu__lab__report\"><tr><th>Test</th><th>25-Apr-2017</th><th>Reference&#xA0;Range</th><th>Unit</th></tr><tr><td>Potassium [Moles/volume] in Blood</td><td>4.6</td><td>3.5 - 5.1</td><td></td><td>mmol/L</td></tr></table></div>"
        },
        "status": "final",
        "subject": {
          "reference": "urn:uuid:e7233783-2c91-4060-b085-043cd4c67aac",
          "display": "Maria Nohlmans"
        },
        "effectiveDateTime": "2017-04-25T00:40:39Z",
        "specimen": {
          "reference": "urn:uuid:c7a40d1e-955e-42e2-b464-f736ca4f2d02"
        }
      }
    },
    {
      "fullUrl": "urn:uuid:004087df-6742-4e77-87e4-cb9b2f01a308",
      "resource": {
        "resourceType": "Observation",
        "id": "004087df-6742-4e77-87e4-cb9b2f01a308",
        "meta": {
          "profile": [
            "http://hl7.eu/fhir/laboratory/StructureDefinition/Observation-resultslab-eu-lab"
          ]
        },
        "performer": [
          {
            "display": "The Central European Lab"
          }
        ],
        "category": [
          {
            "coding": [
              {
                "system": "http://terminology.hl7.org/CodeSystem/observation-category",
                "code": "laboratory"
              }
            ]
          }
        ],
        "code": {
          "coding": [
            {
              "code": "2069-3",
              "system": "http://loinc.org",
              "display": "Chloride [Moles/volume] in Blood"
            }
          ],
          "text": "Chloride [Moles/volume] in Blood"
        },
        "valueQuantity": {
          "system": "http://unitsofmeasure.org",
          "value": 103.1,
          "unit": "mmol/L",
          "code": "mmol/L"
        },
        "referenceRange": [
          {
            "low": {
              "value": 98,
              "code": "mmol/L",
              "system": "http://unitsofmeasure.org"
            }
          },
          {
            "high": {
              "value": 114,
              "code": "mmol/L",
              "system": "http://unitsofmeasure.org"
            }
          }
        ],
        "text": {
          "status": "generated",
          "div": "<div xmlns=\"http://www.w3.org/1999/xhtml\"><table class=\"hl7__eu__lab__report\"><tr><th>Test</th><th>25-Apr-2017</th><th>Reference&#xA0;Range</th><th>Unit</th></tr><tr><td>Chloride [Moles/volume] in Blood</td><td>103.1</td><td>98 - 114</td><td></td><td>mmol/L</td></tr></table></div>"
        },
        "status": "final",
        "subject": {
          "reference": "urn:uuid:e7233783-2c91-4060-b085-043cd4c67aac",
          "display": "Maria Nohlmans"
        },
        "effectiveDateTime": "2017-04-25T00:40:39Z",
        "specimen": {
          "reference": "urn:uuid:c7a40d1e-955e-42e2-b464-f736ca4f2d02"
        }
      }
    },
    {
      "fullUrl": "urn:uuid:72b403a3-ac30-46a8-8f2c-209e382472b4",
      "resource": {
        "resourceType": "Observation",
        "id": "72b403a3-ac30-46a8-8f2c-209e382472b4",
        "meta": {
          "profile": [
            "http://hl7.eu/fhir/laboratory/StructureDefinition/Observation-resultslab-eu-lab"
          ]
        },
        "performer": [
          {
            "display": "The Central European Lab"
          }
        ],
        "category": [
          {
            "coding": [
              {
                "system": "http://terminology.hl7.org/CodeSystem/observation-category",
                "code": "laboratory"
              }
            ]
          }
        ],
        "code": {
          "coding": [
            {
              "code": "20565-8",
              "system": "http://loinc.org",
              "display": "Carbon dioxide, total [Moles/volume] in Blood"
            }
          ],
          "text": "Carbon dioxide, total [Moles/volume] in Blood"
        },
        "valueQuantity": {
          "system": "http://unitsofmeasure.org",
          "value": 27.5,
          "unit": "mmol/L",
          "code": "mmol/L"
        },
        "referenceRange": [
          {
            "low": {
              "value": 22,
              "code": "mmol/L",
              "system": "http://unitsofmeasure.org"
            }
          },
          {
            "high": {
              "value": 32,
              "code": "mmol/L",
              "system": "http://unitsofmeasure.org"
            }
          }
        ],
        "text": {
          "status": "generated",
          "div": "<div xmlns=\"http://www.w3.org/1999/xhtml\"><table class=\"hl7__eu__lab__report\"><tr><th>Test</th><th>25-Apr-2017</th><th>Reference&#xA0;Range</th><th>Unit</th></tr><tr><td>Carbon dioxide, total [Moles/volume] in Blood</td><td>27.5</td><td>22 - 32</td><td></td><td>mmol/L</td></tr></table></div>"
        },
        "status": "final",
        "subject": {
          "reference": "urn:uuid:e7233783-2c91-4060-b085-043cd4c67aac",
          "display": "Maria Nohlmans"
        },
        "effectiveDateTime": "2017-04-25T00:40:39Z",
        "specimen": {
          "reference": "urn:uuid:c7a40d1e-955e-42e2-b464-f736ca4f2d02"
        }
      }
    },
    {
      "fullUrl": "urn:uuid:e43a6bb6-8798-4583-8b89-3f73f72abd53",
      "resource": {
        "resourceType": "Observation",
        "id": "e43a6bb6-8798-4583-8b89-3f73f72abd53",
        "meta": {
          "profile": [
            "http://hl7.eu/fhir/laboratory/StructureDefinition/Observation-resultslab-eu-lab"
          ]
        },
        "performer": [
          {
            "display": "The Central European Lab"
          }
        ],
        "category": [
          {
            "coding": [
              {
                "system": "http://terminology.hl7.org/CodeSystem/observation-category",
                "code": "laboratory"
              }
            ]
          }
        ],
        "code": {
          "coding": [
            {
              "code": "2885-2",
              "system": "http://loinc.org",
              "display": "Protein [Mass/volume] in Serum or Plasma"
            }
          ],
          "text": "Protein [Mass/volume] in Serum or Plasma"
        },
        "valueQuantity": {
          "system": "http://unitsofmeasure.org",
          "value": 6.7,
          "unit": "g/dL",
          "code": "g/dL"
        },
        "referenceRange": [
          {
            "low": {
              "value": 6,
              "code": "g/dL",
              "system": "http://unitsofmeasure.org"
            }
          },
          {
            "high": {
              "value": 8.3,
              "code": "g/dL",
              "system": "http://unitsofmeasure.org"
            }
          }
        ],
        "text": {
          "status": "generated",
          "div": "<div xmlns=\"http://www.w3.org/1999/xhtml\"><table class=\"hl7__eu__lab__report\"><tr><th>Test</th><th>25-Apr-2017</th><th>Reference&#xA0;Range</th><th>Unit</th></tr><tr><td>Protein [Mass/volume] in Serum or Plasma</td><td>6.7</td><td>6 - 8.3</td><td></td><td>g/dL</td></tr></table></div>"
        },
        "status": "final",
        "subject": {
          "reference": "urn:uuid:e7233783-2c91-4060-b085-043cd4c67aac",
          "display": "Maria Nohlmans"
        },
        "effectiveDateTime": "2017-04-25T00:40:39Z",
        "specimen": {
          "reference": "urn:uuid:44901d5e-4730-48e4-a2c4-e27076585726"
        }
      }
    },
    {
      "fullUrl": "urn:uuid:a23629c2-10d0-45a9-88c0-c9d276cece26",
      "resource": {
        "resourceType": "Observation",
        "id": "a23629c2-10d0-45a9-88c0-c9d276cece26",
        "meta": {
          "profile": [
            "http://hl7.eu/fhir/laboratory/StructureDefinition/Observation-resultslab-eu-lab"
          ]
        },
        "performer": [
          {
            "display": "The Central European Lab"
          }
        ],
        "category": [
          {
            "coding": [
              {
                "system": "http://terminology.hl7.org/CodeSystem/observation-category",
                "code": "laboratory"
              }
            ]
          }
        ],
        "code": {
          "coding": [
            {
              "code": "1751-7",
              "system": "http://loinc.org",
              "display": "Albumin [Mass/volume] in Serum or Plasma"
            }
          ],
          "text": "Albumin [Mass/volume] in Serum or Plasma"
        },
        "valueQuantity": {
          "system": "http://unitsofmeasure.org",
          "value": 4.8,
          "unit": "g/dL",
          "code": "g/dL"
        },
        "referenceRange": [
          {
            "low": {
              "value": 3.5,
              "code": "g/dL",
              "system": "http://unitsofmeasure.org"
            }
          },
          {
            "high": {
              "value": 5.5,
              "code": "g/dL",
              "system": "http://unitsofmeasure.org"
            }
          }
        ],
        "text": {
          "status": "generated",
          "div": "<div xmlns=\"http://www.w3.org/1999/xhtml\"><table class=\"hl7__eu__lab__report\"><tr><th>Test</th><th>25-Apr-2017</th><th>Reference&#xA0;Range</th><th>Unit</th></tr><tr><td>Albumin [Mass/volume] in Serum or Plasma</td><td>4.8</td><td>3.5 - 5.5</td><td></td><td>g/dL</td></tr></table></div>"
        },
        "status": "final",
        "subject": {
          "reference": "urn:uuid:e7233783-2c91-4060-b085-043cd4c67aac",
          "display": "Maria Nohlmans"
        },
        "effectiveDateTime": "2017-04-25T00:40:39Z",
        "specimen": {
          "reference": "urn:uuid:44901d5e-4730-48e4-a2c4-e27076585726"
        }
      }
    },
    {
      "fullUrl": "urn:uuid:c4920742-7aab-436d-affe-e4c2493d3e8e",
      "resource": {
        "resourceType": "Observation",
        "id": "c4920742-7aab-436d-affe-e4c2493d3e8e",
        "meta": {
          "profile": [
            "http://hl7.eu/fhir/laboratory/StructureDefinition/Observation-resultslab-eu-lab"
          ]
        },
        "performer": [
          {
            "display": "The Central European Lab"
          }
        ],
        "category": [
          {
            "coding": [
              {
                "system": "http://terminology.hl7.org/CodeSystem/observation-category",
                "code": "laboratory"
              }
            ]
          }
        ],
        "code": {
          "coding": [
            {
              "code": "10834-0",
              "system": "http://loinc.org",
              "display": "Globulin [Mass/volume] in Serum by calculation"
            }
          ],
          "text": "Globulin [Mass/volume] in Serum by calculation"
        },
        "valueQuantity": {
          "system": "http://unitsofmeasure.org",
          "value": 3.5,
          "unit": "g/L",
          "code": "g/L"
        },
        "referenceRange": [
          {
            "low": {
              "value": 2,
              "code": "g/L",
              "system": "http://unitsofmeasure.org"
            }
          },
          {
            "high": {
              "value": 3.5,
              "code": "g/L",
              "system": "http://unitsofmeasure.org"
            }
          }
        ],
        "text": {
          "status": "generated",
          "div": "<div xmlns=\"http://www.w3.org/1999/xhtml\"><table class=\"hl7__eu__lab__report\"><tr><th>Test</th><th>25-Apr-2017</th><th>Reference&#xA0;Range</th><th>Unit</th></tr><tr><td>Globulin [Mass/volume] in Serum by calculation</td><td>3.5</td><td>2 - 3.5</td><td></td><td>g/L</td></tr></table></div>"
        },
        "status": "final",
        "subject": {
          "reference": "urn:uuid:e7233783-2c91-4060-b085-043cd4c67aac",
          "display": "Maria Nohlmans"
        },
        "effectiveDateTime": "2017-04-25T00:40:39Z",
        "specimen": {
          "reference": "urn:uuid:3c644664-c89c-4e84-b31b-7d2de03740f6"
        }
      }
    },
    {
      "fullUrl": "urn:uuid:753bc28d-422b-4c65-8209-e602b7918571",
      "resource": {
        "resourceType": "Observation",
        "id": "753bc28d-422b-4c65-8209-e602b7918571",
        "meta": {
          "profile": [
            "http://hl7.eu/fhir/laboratory/StructureDefinition/Observation-resultslab-eu-lab"
          ]
        },
        "performer": [
          {
            "display": "The Central European Lab"
          }
        ],
        "category": [
          {
            "coding": [
              {
                "system": "http://terminology.hl7.org/CodeSystem/observation-category",
                "code": "laboratory"
              }
            ]
          }
        ],
        "code": {
          "coding": [
            {
              "code": "1975-2",
              "system": "http://loinc.org",
              "display": "Bilirubin.total [Mass/volume] in Serum or Plasma"
            }
          ],
          "text": "Bilirubin.total [Mass/volume] in Serum or Plasma"
        },
        "valueQuantity": {
          "system": "http://unitsofmeasure.org",
          "value": 0.2,
          "unit": "mg/dL",
          "code": "mg/dL"
        },
        "referenceRange": [
          {
            "low": {
              "value": 0.3,
              "code": "mg/dL",
              "system": "http://unitsofmeasure.org"
            }
          },
          {
            "high": {
              "value": 1.2,
              "code": "mg/dL",
              "system": "http://unitsofmeasure.org"
            }
          }
        ],
        "interpretation": [
          {
            "coding": [
              {
                "code": "L",
                "system": "http://terminology.hl7.org/CodeSystem/v3-ObservationInterpretation",
                "display": "Low"
              }
            ]
          }
        ],
        "text": {
          "status": "generated",
          "div": "<div xmlns=\"http://www.w3.org/1999/xhtml\"><table class=\"hl7__eu__lab__report\"><tr><th>Test</th><th>25-Apr-2017</th><th>Reference&#xA0;Range</th><th>Unit</th></tr><tr><td>Bilirubin.total [Mass/volume] in Serum or Plasma</td><td>0.2</td><td>0.3 - 1.2</td><td>L</td><td>mg/dL</td></tr></table></div>"
        },
        "status": "final",
        "subject": {
          "reference": "urn:uuid:e7233783-2c91-4060-b085-043cd4c67aac",
          "display": "Maria Nohlmans"
        },
        "effectiveDateTime": "2017-04-25T00:40:39Z",
        "specimen": {
          "reference": "urn:uuid:44901d5e-4730-48e4-a2c4-e27076585726"
        }
      }
    },
    {
      "fullUrl": "urn:uuid:ebe7bab2-c0fe-4a79-9052-a4860dbb9e3c",
      "resource": {
        "resourceType": "Observation",
        "id": "ebe7bab2-c0fe-4a79-9052-a4860dbb9e3c",
        "meta": {
          "profile": [
            "http://hl7.eu/fhir/laboratory/StructureDefinition/Observation-resultslab-eu-lab"
          ]
        },
        "performer": [
          {
            "display": "The Central European Lab"
          }
        ],
        "category": [
          {
            "coding": [
              {
                "system": "http://terminology.hl7.org/CodeSystem/observation-category",
                "code": "laboratory"
              }
            ]
          }
        ],
        "code": {
          "coding": [
            {
              "code": "6768-6",
              "system": "http://loinc.org",
              "display": "Alkaline phosphatase [Enzymatic activity/volume] in Serum or Plasma"
            }
          ],
          "text": "Alkaline phosphatase [Enzymatic activity/volume] in Serum or Plasma"
        },
        "valueQuantity": {
          "system": "http://unitsofmeasure.org",
          "value": 114.7,
          "unit": "U/L",
          "code": "U/L"
        },
        "referenceRange": [
          {
            "low": {
              "value": 44,
              "code": "U/L",
              "system": "http://unitsofmeasure.org"
            }
          },
          {
            "high": {
              "value": 142,
              "code": "U/L",
              "system": "http://unitsofmeasure.org"
            }
          }
        ],
        "text": {
          "status": "generated",
          "div": "<div xmlns=\"http://www.w3.org/1999/xhtml\"><table class=\"hl7__eu__lab__report\"><tr><th>Test</th><th>25-Apr-2017</th><th>Reference&#xA0;Range</th><th>Unit</th></tr><tr><td>Alkaline phosphatase [Enzymatic activity/volume] in Serum or Plasma</td><td>114.7</td><td>44 - 142</td><td></td><td>U/L</td></tr></table></div>"
        },
        "status": "final",
        "subject": {
          "reference": "urn:uuid:e7233783-2c91-4060-b085-043cd4c67aac",
          "display": "Maria Nohlmans"
        },
        "effectiveDateTime": "2017-04-25T00:40:39Z",
        "specimen": {
          "reference": "urn:uuid:44901d5e-4730-48e4-a2c4-e27076585726"
        }
      }
    },
    {
      "fullUrl": "urn:uuid:9a3941ba-0a37-49b9-bf13-6433a9b5bc2d",
      "resource": {
        "resourceType": "Observation",
        "id": "9a3941ba-0a37-49b9-bf13-6433a9b5bc2d",
        "meta": {
          "profile": [
            "http://hl7.eu/fhir/laboratory/StructureDefinition/Observation-resultslab-eu-lab"
          ]
        },
        "performer": [
          {
            "display": "The Central European Lab"
          }
        ],
        "category": [
          {
            "coding": [
              {
                "system": "http://terminology.hl7.org/CodeSystem/observation-category",
                "code": "laboratory"
              }
            ]
          }
        ],
        "code": {
          "coding": [
            {
              "code": "1742-6",
              "system": "http://loinc.org",
              "display": "Alanine aminotransferase [Enzymatic activity/volume] in Serum or Plasma"
            }
          ],
          "text": "Alanine aminotransferase [Enzymatic activity/volume] in Serum or Plasma"
        },
        "valueQuantity": {
          "system": "http://unitsofmeasure.org",
          "value": 39.4,
          "unit": "U/L",
          "code": "U/L"
        },
        "referenceRange": [
          {
            "low": {
              "value": 7,
              "code": "U/L",
              "system": "http://unitsofmeasure.org"
            }
          },
          {
            "high": {
              "value": 40,
              "code": "U/L",
              "system": "http://unitsofmeasure.org"
            }
          }
        ],
        "text": {
          "status": "generated",
          "div": "<div xmlns=\"http://www.w3.org/1999/xhtml\"><table class=\"hl7__eu__lab__report\"><tr><th>Test</th><th>25-Apr-2017</th><th>Reference&#xA0;Range</th><th>Unit</th></tr><tr><td>Alanine aminotransferase [Enzymatic activity/volume] in Serum or Plasma</td><td>39.4</td><td>7 - 40</td><td></td><td>U/L</td></tr></table></div>"
        },
        "status": "final",
        "subject": {
          "reference": "urn:uuid:e7233783-2c91-4060-b085-043cd4c67aac",
          "display": "Maria Nohlmans"
        },
        "effectiveDateTime": "2017-04-25T00:40:39Z",
        "specimen": {
          "reference": "urn:uuid:44901d5e-4730-48e4-a2c4-e27076585726"
        }
      }
    },
    {
      "fullUrl": "urn:uuid:035a9d6a-dfcc-4029-8a48-ea55a75051ae",
      "resource": {
        "resourceType": "Observation",
        "id": "035a9d6a-dfcc-4029-8a48-ea55a75051ae",
        "meta": {
          "profile": [
            "http://hl7.eu/fhir/laboratory/StructureDefinition/Observation-resultslab-eu-lab"
          ]
        },
        "performer": [
          {
            "display": "The Central European Lab"
          }
        ],
        "category": [
          {
            "coding": [
              {
                "system": "http://terminology.hl7.org/CodeSystem/observation-category",
                "code": "laboratory"
              }
            ]
          }
        ],
        "code": {
          "coding": [
            {
              "code": "1920-8",
              "system": "http://loinc.org",
              "display": "Aspartate aminotransferase [Enzymatic activity/volume] in Serum or Plasma"
            }
          ],
          "text": "Aspartate aminotransferase [Enzymatic activity/volume] in Serum or Plasma"
        },
        "valueQuantity": {
          "system": "http://unitsofmeasure.org",
          "value": 7.3,
          "unit": "U/L",
          "code": "U/L"
        },
        "referenceRange": [
          {
            "low": {
              "value": 10,
              "code": "U/L",
              "system": "http://unitsofmeasure.org"
            }
          },
          {
            "high": {
              "value": 40,
              "code": "U/L",
              "system": "http://unitsofmeasure.org"
            }
          }
        ],
        "interpretation": [
          {
            "coding": [
              {
                "code": "L",
                "system": "http://terminology.hl7.org/CodeSystem/v3-ObservationInterpretation",
                "display": "Low"
              }
            ]
          }
        ],
        "text": {
          "status": "generated",
          "div": "<div xmlns=\"http://www.w3.org/1999/xhtml\"><table class=\"hl7__eu__lab__report\"><tr><th>Test</th><th>25-Apr-2017</th><th>Reference&#xA0;Range</th><th>Unit</th></tr><tr><td>Aspartate aminotransferase [Enzymatic activity/volume] in Serum or Plasma</td><td>7.3</td><td>10 - 40</td><td>L</td><td>U/L</td></tr></table></div>"
        },
        "status": "final",
        "subject": {
          "reference": "urn:uuid:e7233783-2c91-4060-b085-043cd4c67aac",
          "display": "Maria Nohlmans"
        },
        "effectiveDateTime": "2017-04-25T00:40:39Z",
        "specimen": {
          "reference": "urn:uuid:44901d5e-4730-48e4-a2c4-e27076585726"
        }
      }
    },
    {
      "fullUrl": "urn:uuid:81c6ea95-dc5e-4e98-afd2-83a914e9ff88",
      "resource": {
        "resourceType": "Observation",
        "id": "81c6ea95-dc5e-4e98-afd2-83a914e9ff88",
        "meta": {
          "profile": [
            "http://hl7.eu/fhir/laboratory/StructureDefinition/Observation-resultslab-eu-lab"
          ]
        },
        "performer": [
          {
            "display": "The Central European Lab"
          }
        ],
        "category": [
          {
            "coding": [
              {
                "system": "http://terminology.hl7.org/CodeSystem/observation-category",
                "code": "laboratory"
              }
            ]
          }
        ],
        "code": {
          "coding": [
            {
              "code": "5767-9",
              "system": "http://loinc.org",
              "display": "Appearance of Urine"
            }
          ],
          "text": "Appearance of Urine"
        },
        "text": {
          "status": "generated",
          "div": "<div xmlns=\"http://www.w3.org/1999/xhtml\"><table class=\"hl7__eu__lab__report\"><tr><th>Test</th><th>25-Apr-2017</th><th>Reference&#xA0;Range</th><th>Unit</th></tr><tr><td>Appearance of Urine</td></tr></table></div>"
        },
        "status": "final",
        "subject": {
          "reference": "urn:uuid:e7233783-2c91-4060-b085-043cd4c67aac",
          "display": "Maria Nohlmans"
        },
        "effectiveDateTime": "2017-04-25T00:40:39Z",
        "specimen": {
          "reference": "urn:uuid:90f7a45d-b8bf-4335-9eed-1350861fe1d9"
        }
      }
    },
    {
      "fullUrl": "urn:uuid:98459d4c-dcfc-490e-b24e-03eff93f8aa3",
      "resource": {
        "resourceType": "Observation",
        "id": "98459d4c-dcfc-490e-b24e-03eff93f8aa3",
        "meta": {
          "profile": [
            "http://hl7.eu/fhir/laboratory/StructureDefinition/Observation-resultslab-eu-lab"
          ]
        },
        "performer": [
          {
            "display": "The Central European Lab"
          }
        ],
        "category": [
          {
            "coding": [
              {
                "system": "http://terminology.hl7.org/CodeSystem/observation-category",
                "code": "laboratory"
              }
            ]
          }
        ],
        "code": {
          "coding": [
            {
              "code": "34533-0",
              "system": "http://loinc.org",
              "display": "Odor of Urine"
            }
          ],
          "text": "Odor of Urine"
        },
        "text": {
          "status": "generated",
          "div": "<div xmlns=\"http://www.w3.org/1999/xhtml\"><table class=\"hl7__eu__lab__report\"><tr><th>Test</th><th>25-Apr-2017</th><th>Reference&#xA0;Range</th><th>Unit</th></tr><tr><td>Odor of Urine</td></tr></table></div>"
        },
        "status": "final",
        "subject": {
          "reference": "urn:uuid:e7233783-2c91-4060-b085-043cd4c67aac",
          "display": "Maria Nohlmans"
        },
        "effectiveDateTime": "2017-04-25T00:40:39Z",
        "specimen": {
          "reference": "urn:uuid:90f7a45d-b8bf-4335-9eed-1350861fe1d9"
        }
      }
    },
    {
      "fullUrl": "urn:uuid:9a893203-8e65-4b50-b977-11482b466238",
      "resource": {
        "resourceType": "Observation",
        "id": "9a893203-8e65-4b50-b977-11482b466238",
        "meta": {
          "profile": [
            "http://hl7.eu/fhir/laboratory/StructureDefinition/Observation-resultslab-eu-lab"
          ]
        },
        "performer": [
          {
            "display": "The Central European Lab"
          }
        ],
        "category": [
          {
            "coding": [
              {
                "system": "http://terminology.hl7.org/CodeSystem/observation-category",
                "code": "laboratory"
              }
            ]
          }
        ],
        "code": {
          "coding": [
            {
              "code": "32167-9",
              "system": "http://loinc.org",
              "display": "Clarity of Urine"
            }
          ],
          "text": "Clarity of Urine"
        },
        "text": {
          "status": "generated",
          "div": "<div xmlns=\"http://www.w3.org/1999/xhtml\"><table class=\"hl7__eu__lab__report\"><tr><th>Test</th><th>25-Apr-2017</th><th>Reference&#xA0;Range</th><th>Unit</th></tr><tr><td>Clarity of Urine</td></tr></table></div>"
        },
        "status": "final",
        "subject": {
          "reference": "urn:uuid:e7233783-2c91-4060-b085-043cd4c67aac",
          "display": "Maria Nohlmans"
        },
        "effectiveDateTime": "2017-04-25T00:40:39Z",
        "specimen": {
          "reference": "urn:uuid:90f7a45d-b8bf-4335-9eed-1350861fe1d9"
        }
      }
    },
    {
      "fullUrl": "urn:uuid:fc523b75-8d0c-4b7a-8f6c-0bd10f7045d1",
      "resource": {
        "resourceType": "Observation",
        "id": "fc523b75-8d0c-4b7a-8f6c-0bd10f7045d1",
        "meta": {
          "profile": [
            "http://hl7.eu/fhir/laboratory/StructureDefinition/Observation-resultslab-eu-lab"
          ]
        },
        "performer": [
          {
            "display": "The Central European Lab"
          }
        ],
        "category": [
          {
            "coding": [
              {
                "system": "http://terminology.hl7.org/CodeSystem/observation-category",
                "code": "laboratory"
              }
            ]
          }
        ],
        "code": {
          "coding": [
            {
              "code": "5778-6",
              "system": "http://loinc.org",
              "display": "Color of Urine"
            }
          ],
          "text": "Color of Urine"
        },
        "text": {
          "status": "generated",
          "div": "<div xmlns=\"http://www.w3.org/1999/xhtml\"><table class=\"hl7__eu__lab__report\"><tr><th>Test</th><th>25-Apr-2017</th><th>Reference&#xA0;Range</th><th>Unit</th></tr><tr><td>Color of Urine</td></tr></table></div>"
        },
        "status": "final",
        "subject": {
          "reference": "urn:uuid:e7233783-2c91-4060-b085-043cd4c67aac",
          "display": "Maria Nohlmans"
        },
        "effectiveDateTime": "2017-04-25T00:40:39Z",
        "specimen": {
          "reference": "urn:uuid:90f7a45d-b8bf-4335-9eed-1350861fe1d9"
        }
      }
    },
    {
      "fullUrl": "urn:uuid:e7285c5f-09c5-4802-bc31-9156a88919ef",
      "resource": {
        "resourceType": "Observation",
        "id": "e7285c5f-09c5-4802-bc31-9156a88919ef",
        "meta": {
          "profile": [
            "http://hl7.eu/fhir/laboratory/StructureDefinition/Observation-resultslab-eu-lab"
          ]
        },
        "performer": [
          {
            "display": "The Central European Lab"
          }
        ],
        "category": [
          {
            "coding": [
              {
                "system": "http://terminology.hl7.org/CodeSystem/observation-category",
                "code": "laboratory"
              }
            ]
          }
        ],
        "code": {
          "coding": [
            {
              "code": "5792-7",
              "system": "http://loinc.org",
              "display": "Glucose [Mass/volume] in Urine by Test strip"
            }
          ],
          "text": "Glucose [Mass/volume] in Urine by Test strip"
        },
        "valueQuantity": {
          "system": "http://unitsofmeasure.org",
          "value": 1.3,
          "unit": "mg/dL",
          "code": "mg/dL"
        },
        "referenceRange": [
          {
            "low": {
              "value": 0.8,
              "code": "mg/dL",
              "system": "http://unitsofmeasure.org"
            }
          },
          {
            "high": {
              "value": 0,
              "code": "mg/dL",
              "system": "http://unitsofmeasure.org"
            }
          }
        ],
        "interpretation": [
          {
            "coding": [
              {
                "code": "H",
                "system": "http://terminology.hl7.org/CodeSystem/v3-ObservationInterpretation",
                "display": "High"
              }
            ]
          }
        ],
        "text": {
          "status": "generated",
          "div": "<div xmlns=\"http://www.w3.org/1999/xhtml\"><table class=\"hl7__eu__lab__report\"><tr><th>Test</th><th>25-Apr-2017</th><th>Reference&#xA0;Range</th><th>Unit</th></tr><tr><td>Glucose [Mass/volume] in Urine by Test strip</td><td>1.3</td><td>0.8 - 0</td><td>H</td><td>mg/dL</td></tr></table></div>"
        },
        "status": "final",
        "subject": {
          "reference": "urn:uuid:e7233783-2c91-4060-b085-043cd4c67aac",
          "display": "Maria Nohlmans"
        },
        "effectiveDateTime": "2017-04-25T00:40:39Z",
        "specimen": {
          "reference": "urn:uuid:90f7a45d-b8bf-4335-9eed-1350861fe1d9"
        }
      }
    },
    {
      "fullUrl": "urn:uuid:0ad60752-1913-45c5-ad24-b46d47498bb2",
      "resource": {
        "resourceType": "Observation",
        "id": "0ad60752-1913-45c5-ad24-b46d47498bb2",
        "meta": {
          "profile": [
            "http://hl7.eu/fhir/laboratory/StructureDefinition/Observation-resultslab-eu-lab"
          ]
        },
        "performer": [
          {
            "display": "The Central European Lab"
          }
        ],
        "category": [
          {
            "coding": [
              {
                "system": "http://terminology.hl7.org/CodeSystem/observation-category",
                "code": "laboratory"
              }
            ]
          }
        ],
        "code": {
          "coding": [
            {
              "code": "25428-4",
              "system": "http://loinc.org",
              "display": "Glucose [Presence] in Urine by Test strip"
            }
          ],
          "text": "Glucose [Presence] in Urine by Test strip"
        },
        "text": {
          "status": "generated",
          "div": "<div xmlns=\"http://www.w3.org/1999/xhtml\"><table class=\"hl7__eu__lab__report\"><tr><th>Test</th><th>25-Apr-2017</th><th>Reference&#xA0;Range</th><th>Unit</th></tr><tr><td>Glucose [Presence] in Urine by Test strip</td></tr></table></div>"
        },
        "status": "final",
        "subject": {
          "reference": "urn:uuid:e7233783-2c91-4060-b085-043cd4c67aac",
          "display": "Maria Nohlmans"
        },
        "effectiveDateTime": "2017-04-25T00:40:39Z",
        "specimen": {
          "reference": "urn:uuid:90f7a45d-b8bf-4335-9eed-1350861fe1d9"
        }
      }
    },
    {
      "fullUrl": "urn:uuid:f7284597-f177-419b-ae9c-fef62127ecc5",
      "resource": {
        "resourceType": "Observation",
        "id": "f7284597-f177-419b-ae9c-fef62127ecc5",
        "meta": {
          "profile": [
            "http://hl7.eu/fhir/laboratory/StructureDefinition/Observation-resultslab-eu-lab"
          ]
        },
        "performer": [
          {
            "display": "The Central European Lab"
          }
        ],
        "category": [
          {
            "coding": [
              {
                "system": "http://terminology.hl7.org/CodeSystem/observation-category",
                "code": "laboratory"
              }
            ]
          }
        ],
        "code": {
          "coding": [
            {
              "code": "20505-4",
              "system": "http://loinc.org",
              "display": "Bilirubin.total [Mass/volume] in Urine by Test strip"
            }
          ],
          "text": "Bilirubin.total [Mass/volume] in Urine by Test strip"
        },
        "valueQuantity": {
          "system": "http://unitsofmeasure.org",
          "value": 0.8,
          "unit": "mg/dL",
          "code": "mg/dL"
        },
        "referenceRange": [
          {
            "low": {
              "value": 0,
              "code": "mg/dL",
              "system": "http://unitsofmeasure.org"
            }
          },
          {
            "high": {
              "value": 1.5,
              "code": "mg/dL",
              "system": "http://unitsofmeasure.org"
            }
          }
        ],
        "text": {
          "status": "generated",
          "div": "<div xmlns=\"http://www.w3.org/1999/xhtml\"><table class=\"hl7__eu__lab__report\"><tr><th>Test</th><th>25-Apr-2017</th><th>Reference&#xA0;Range</th><th>Unit</th></tr><tr><td>Bilirubin.total [Mass/volume] in Urine by Test strip</td><td>0.8</td><td>0 - 1.5</td><td></td><td>mg/dL</td></tr></table></div>"
        },
        "status": "final",
        "subject": {
          "reference": "urn:uuid:e7233783-2c91-4060-b085-043cd4c67aac",
          "display": "Maria Nohlmans"
        },
        "effectiveDateTime": "2017-04-25T00:40:39Z",
        "specimen": {
          "reference": "urn:uuid:90f7a45d-b8bf-4335-9eed-1350861fe1d9"
        }
      }
    },
    {
      "fullUrl": "urn:uuid:66c4f6e9-7bb4-4a45-90f7-c794e5a69deb",
      "resource": {
        "resourceType": "Observation",
        "id": "66c4f6e9-7bb4-4a45-90f7-c794e5a69deb",
        "meta": {
          "profile": [
            "http://hl7.eu/fhir/laboratory/StructureDefinition/Observation-resultslab-eu-lab"
          ]
        },
        "performer": [
          {
            "display": "The Central European Lab"
          }
        ],
        "category": [
          {
            "coding": [
              {
                "system": "http://terminology.hl7.org/CodeSystem/observation-category",
                "code": "laboratory"
              }
            ]
          }
        ],
        "code": {
          "coding": [
            {
              "code": "5770-3",
              "system": "http://loinc.org",
              "display": "Bilirubin.total [Presence] in Urine by Test strip"
            }
          ],
          "text": "Bilirubin.total [Presence] in Urine by Test strip"
        },
        "text": {
          "status": "generated",
          "div": "<div xmlns=\"http://www.w3.org/1999/xhtml\"><table class=\"hl7__eu__lab__report\"><tr><th>Test</th><th>25-Apr-2017</th><th>Reference&#xA0;Range</th><th>Unit</th></tr><tr><td>Bilirubin.total [Presence] in Urine by Test strip</td></tr></table></div>"
        },
        "status": "final",
        "subject": {
          "reference": "urn:uuid:e7233783-2c91-4060-b085-043cd4c67aac",
          "display": "Maria Nohlmans"
        },
        "effectiveDateTime": "2017-04-25T00:40:39Z",
        "specimen": {
          "reference": "urn:uuid:90f7a45d-b8bf-4335-9eed-1350861fe1d9"
        }
      }
    },
    {
      "fullUrl": "urn:uuid:4e6de705-23f8-40ee-9d4c-fd8f837e20f9",
      "resource": {
        "resourceType": "Observation",
        "id": "4e6de705-23f8-40ee-9d4c-fd8f837e20f9",
        "meta": {
          "profile": [
            "http://hl7.eu/fhir/laboratory/StructureDefinition/Observation-resultslab-eu-lab"
          ]
        },
        "performer": [
          {
            "display": "The Central European Lab"
          }
        ],
        "category": [
          {
            "coding": [
              {
                "system": "http://terminology.hl7.org/CodeSystem/observation-category",
                "code": "laboratory"
              }
            ]
          }
        ],
        "code": {
          "coding": [
            {
              "code": "5797-6",
              "system": "http://loinc.org",
              "display": "Ketones [Mass/volume] in Urine by Test strip"
            }
          ],
          "text": "Ketones [Mass/volume] in Urine by Test strip"
        },
        "valueQuantity": {
          "system": "http://unitsofmeasure.org",
          "value": 17.3,
          "unit": "mg/dL",
          "code": "mg/dL"
        },
        "referenceRange": [
          {
            "low": {
              "value": 0,
              "code": "mg/dL",
              "system": "http://unitsofmeasure.org"
            }
          },
          {
            "high": {
              "value": 8,
              "code": "mg/dL",
              "system": "http://unitsofmeasure.org"
            }
          }
        ],
        "interpretation": [
          {
            "coding": [
              {
                "code": "H",
                "system": "http://terminology.hl7.org/CodeSystem/v3-ObservationInterpretation",
                "display": "High"
              }
            ]
          }
        ],
        "text": {
          "status": "generated",
          "div": "<div xmlns=\"http://www.w3.org/1999/xhtml\"><table class=\"hl7__eu__lab__report\"><tr><th>Test</th><th>25-Apr-2017</th><th>Reference&#xA0;Range</th><th>Unit</th></tr><tr><td>Ketones [Mass/volume] in Urine by Test strip</td><td>17.3</td><td>0 - 8</td><td>H</td><td>mg/dL</td></tr></table></div>"
        },
        "status": "final",
        "subject": {
          "reference": "urn:uuid:e7233783-2c91-4060-b085-043cd4c67aac",
          "display": "Maria Nohlmans"
        },
        "effectiveDateTime": "2017-04-25T00:40:39Z",
        "specimen": {
          "reference": "urn:uuid:90f7a45d-b8bf-4335-9eed-1350861fe1d9"
        }
      }
    },
    {
      "fullUrl": "urn:uuid:ca4805fa-e8e1-423c-bd5f-2bdc4782d74e",
      "resource": {
        "resourceType": "Observation",
        "id": "ca4805fa-e8e1-423c-bd5f-2bdc4782d74e",
        "meta": {
          "profile": [
            "http://hl7.eu/fhir/laboratory/StructureDefinition/Observation-resultslab-eu-lab"
          ]
        },
        "performer": [
          {
            "display": "The Central European Lab"
          }
        ],
        "category": [
          {
            "coding": [
              {
                "system": "http://terminology.hl7.org/CodeSystem/observation-category",
                "code": "laboratory"
              }
            ]
          }
        ],
        "code": {
          "coding": [
            {
              "code": "2514-8",
              "system": "http://loinc.org",
              "display": "Ketones [Presence] in Urine by Test strip"
            }
          ],
          "text": "Ketones [Presence] in Urine by Test strip"
        },
        "text": {
          "status": "generated",
          "div": "<div xmlns=\"http://www.w3.org/1999/xhtml\"><table class=\"hl7__eu__lab__report\"><tr><th>Test</th><th>25-Apr-2017</th><th>Reference&#xA0;Range</th><th>Unit</th></tr><tr><td>Ketones [Presence] in Urine by Test strip</td></tr></table></div>"
        },
        "status": "final",
        "subject": {
          "reference": "urn:uuid:e7233783-2c91-4060-b085-043cd4c67aac",
          "display": "Maria Nohlmans"
        },
        "effectiveDateTime": "2017-04-25T00:40:39Z",
        "specimen": {
          "reference": "urn:uuid:90f7a45d-b8bf-4335-9eed-1350861fe1d9"
        }
      }
    },
    {
      "fullUrl": "urn:uuid:f35a79dd-053a-4b4d-b071-041cc91dccbe",
      "resource": {
        "resourceType": "Observation",
        "id": "f35a79dd-053a-4b4d-b071-041cc91dccbe",
        "meta": {
          "profile": [
            "http://hl7.eu/fhir/laboratory/StructureDefinition/Observation-resultslab-eu-lab"
          ]
        },
        "performer": [
          {
            "display": "The Central European Lab"
          }
        ],
        "category": [
          {
            "coding": [
              {
                "system": "http://terminology.hl7.org/CodeSystem/observation-category",
                "code": "laboratory"
              }
            ]
          }
        ],
        "code": {
          "coding": [
            {
              "code": "5811-5",
              "system": "http://loinc.org",
              "display": "Specific gravity of Urine by Test strip"
            }
          ],
          "text": "Specific gravity of Urine by Test strip"
        },
        "valueQuantity": {
          "system": "http://unitsofmeasure.org",
          "value": 1,
          "unit": "{nominal}",
          "code": "{nominal}"
        },
        "referenceRange": [
          {
            "low": {
              "value": 1.01,
              "code": "g/mL",
              "system": "http://unitsofmeasure.org"
            }
          },
          {
            "high": {
              "value": 1.03,
              "code": "g/mL",
              "system": "http://unitsofmeasure.org"
            }
          }
        ],
        "interpretation": [
          {
            "coding": [
              {
                "code": "L",
                "system": "http://terminology.hl7.org/CodeSystem/v3-ObservationInterpretation",
                "display": "Low"
              }
            ]
          }
        ],
        "text": {
          "status": "generated",
          "div": "<div xmlns=\"http://www.w3.org/1999/xhtml\"><table class=\"hl7__eu__lab__report\"><tr><th>Test</th><th>25-Apr-2017</th><th>Reference&#xA0;Range</th><th>Unit</th></tr><tr><td>Specific gravity of Urine by Test strip</td><td>1.0</td><td>1.01 - 1.03</td><td>L</td><td>{nominal}</td></tr></table></div>"
        },
        "status": "final",
        "subject": {
          "reference": "urn:uuid:e7233783-2c91-4060-b085-043cd4c67aac",
          "display": "Maria Nohlmans"
        },
        "effectiveDateTime": "2017-04-25T00:40:39Z",
        "specimen": {
          "reference": "urn:uuid:90f7a45d-b8bf-4335-9eed-1350861fe1d9"
        }
      }
    },
    {
      "fullUrl": "urn:uuid:1b19bef9-f592-4809-bf15-b6c389a6d3e2",
      "resource": {
        "resourceType": "Observation",
        "id": "1b19bef9-f592-4809-bf15-b6c389a6d3e2",
        "meta": {
          "profile": [
            "http://hl7.eu/fhir/laboratory/StructureDefinition/Observation-resultslab-eu-lab"
          ]
        },
        "performer": [
          {
            "display": "The Central European Lab"
          }
        ],
        "category": [
          {
            "coding": [
              {
                "system": "http://terminology.hl7.org/CodeSystem/observation-category",
                "code": "laboratory"
              }
            ]
          }
        ],
        "code": {
          "coding": [
            {
              "code": "5803-2",
              "system": "http://loinc.org",
              "display": "pH of Urine by Test strip"
            }
          ],
          "text": "pH of Urine by Test strip"
        },
        "valueQuantity": {
          "system": "http://unitsofmeasure.org",
          "value": 6.8,
          "unit": "pH",
          "code": "pH"
        },
        "referenceRange": [
          {
            "low": {
              "value": 4.6,
              "code": "pH",
              "system": "http://unitsofmeasure.org"
            }
          },
          {
            "high": {
              "value": 7.5,
              "code": "pH",
              "system": "http://unitsofmeasure.org"
            }
          }
        ],
        "text": {
          "status": "generated",
          "div": "<div xmlns=\"http://www.w3.org/1999/xhtml\"><table class=\"hl7__eu__lab__report\"><tr><th>Test</th><th>25-Apr-2017</th><th>Reference&#xA0;Range</th><th>Unit</th></tr><tr><td>pH of Urine by Test strip</td><td>6.8</td><td>4.6 - 7.5</td><td></td><td>pH</td></tr></table></div>"
        },
        "status": "final",
        "subject": {
          "reference": "urn:uuid:e7233783-2c91-4060-b085-043cd4c67aac",
          "display": "Maria Nohlmans"
        },
        "effectiveDateTime": "2017-04-25T00:40:39Z",
        "specimen": {
          "reference": "urn:uuid:90f7a45d-b8bf-4335-9eed-1350861fe1d9"
        }
      }
    },
    {
      "fullUrl": "urn:uuid:2be3cbee-0926-4322-8ef4-6819404f61a4",
      "resource": {
        "resourceType": "Observation",
        "id": "2be3cbee-0926-4322-8ef4-6819404f61a4",
        "meta": {
          "profile": [
            "http://hl7.eu/fhir/laboratory/StructureDefinition/Observation-resultslab-eu-lab"
          ]
        },
        "performer": [
          {
            "display": "The Central European Lab"
          }
        ],
        "category": [
          {
            "coding": [
              {
                "system": "http://terminology.hl7.org/CodeSystem/observation-category",
                "code": "laboratory"
              }
            ]
          }
        ],
        "code": {
          "coding": [
            {
              "code": "5804-0",
              "system": "http://loinc.org",
              "display": "Protein [Mass/volume] in Urine by Test strip"
            }
          ],
          "text": "Protein [Mass/volume] in Urine by Test strip"
        },
        "valueQuantity": {
          "system": "http://unitsofmeasure.org",
          "value": 263.9,
          "unit": "mg/dL",
          "code": "mg/dL"
        },
        "referenceRange": [
          {
            "low": {
              "value": 0,
              "code": "mg/dL",
              "system": "http://unitsofmeasure.org"
            }
          },
          {
            "high": {
              "value": 14,
              "code": "mg/dL",
              "system": "http://unitsofmeasure.org"
            }
          }
        ],
        "interpretation": [
          {
            "coding": [
              {
                "code": "H",
                "system": "http://terminology.hl7.org/CodeSystem/v3-ObservationInterpretation",
                "display": "High"
              }
            ]
          }
        ],
        "text": {
          "status": "generated",
          "div": "<div xmlns=\"http://www.w3.org/1999/xhtml\"><table class=\"hl7__eu__lab__report\"><tr><th>Test</th><th>25-Apr-2017</th><th>Reference&#xA0;Range</th><th>Unit</th></tr><tr><td>Protein [Mass/volume] in Urine by Test strip</td><td>263.9</td><td>0 - 14</td><td>H</td><td>mg/dL</td></tr></table></div>"
        },
        "status": "final",
        "subject": {
          "reference": "urn:uuid:e7233783-2c91-4060-b085-043cd4c67aac",
          "display": "Maria Nohlmans"
        },
        "effectiveDateTime": "2017-04-25T00:40:39Z",
        "specimen": {
          "reference": "urn:uuid:90f7a45d-b8bf-4335-9eed-1350861fe1d9"
        }
      }
    },
    {
      "fullUrl": "urn:uuid:1addb94c-48c6-443f-8c9c-4b38d76b9e93",
      "resource": {
        "resourceType": "Observation",
        "id": "1addb94c-48c6-443f-8c9c-4b38d76b9e93",
        "meta": {
          "profile": [
            "http://hl7.eu/fhir/laboratory/StructureDefinition/Observation-resultslab-eu-lab"
          ]
        },
        "performer": [
          {
            "display": "The Central European Lab"
          }
        ],
        "category": [
          {
            "coding": [
              {
                "system": "http://terminology.hl7.org/CodeSystem/observation-category",
                "code": "laboratory"
              }
            ]
          }
        ],
        "code": {
          "coding": [
            {
              "code": "20454-5",
              "system": "http://loinc.org",
              "display": "Protein [Presence] in Urine by Test strip"
            }
          ],
          "text": "Protein [Presence] in Urine by Test strip"
        },
        "text": {
          "status": "generated",
          "div": "<div xmlns=\"http://www.w3.org/1999/xhtml\"><table class=\"hl7__eu__lab__report\"><tr><th>Test</th><th>25-Apr-2017</th><th>Reference&#xA0;Range</th><th>Unit</th></tr><tr><td>Protein [Presence] in Urine by Test strip</td></tr></table></div>"
        },
        "status": "final",
        "subject": {
          "reference": "urn:uuid:e7233783-2c91-4060-b085-043cd4c67aac",
          "display": "Maria Nohlmans"
        },
        "effectiveDateTime": "2017-04-25T00:40:39Z",
        "specimen": {
          "reference": "urn:uuid:90f7a45d-b8bf-4335-9eed-1350861fe1d9"
        }
      }
    },
    {
      "fullUrl": "urn:uuid:83aaf501-623f-4cea-b77f-b18fa1e80a77",
      "resource": {
        "resourceType": "Observation",
        "id": "83aaf501-623f-4cea-b77f-b18fa1e80a77",
        "meta": {
          "profile": [
            "http://hl7.eu/fhir/laboratory/StructureDefinition/Observation-resultslab-eu-lab"
          ]
        },
        "performer": [
          {
            "display": "The Central European Lab"
          }
        ],
        "category": [
          {
            "coding": [
              {
                "system": "http://terminology.hl7.org/CodeSystem/observation-category",
                "code": "laboratory"
              }
            ]
          }
        ],
        "code": {
          "coding": [
            {
              "code": "5802-4",
              "system": "http://loinc.org",
              "display": "Nitrite [Presence] in Urine by Test strip"
            }
          ],
          "text": "Nitrite [Presence] in Urine by Test strip"
        },
        "text": {
          "status": "generated",
          "div": "<div xmlns=\"http://www.w3.org/1999/xhtml\"><table class=\"hl7__eu__lab__report\"><tr><th>Test</th><th>25-Apr-2017</th><th>Reference&#xA0;Range</th><th>Unit</th></tr><tr><td>Nitrite [Presence] in Urine by Test strip</td></tr></table></div>"
        },
        "status": "final",
        "subject": {
          "reference": "urn:uuid:e7233783-2c91-4060-b085-043cd4c67aac",
          "display": "Maria Nohlmans"
        },
        "effectiveDateTime": "2017-04-25T00:40:39Z",
        "specimen": {
          "reference": "urn:uuid:90f7a45d-b8bf-4335-9eed-1350861fe1d9"
        }
      }
    },
    {
      "fullUrl": "urn:uuid:66408ad5-e192-4004-9df0-97b9301ecc14",
      "resource": {
        "resourceType": "Observation",
        "id": "66408ad5-e192-4004-9df0-97b9301ecc14",
        "meta": {
          "profile": [
            "http://hl7.eu/fhir/laboratory/StructureDefinition/Observation-resultslab-eu-lab"
          ]
        },
        "performer": [
          {
            "display": "The Central European Lab"
          }
        ],
        "category": [
          {
            "coding": [
              {
                "system": "http://terminology.hl7.org/CodeSystem/observation-category",
                "code": "laboratory"
              }
            ]
          }
        ],
        "code": {
          "coding": [
            {
              "code": "5794-3",
              "system": "http://loinc.org",
              "display": "Hemoglobin [Presence] in Urine by Test strip"
            }
          ],
          "text": "Hemoglobin [Presence] in Urine by Test strip"
        },
        "text": {
          "status": "generated",
          "div": "<div xmlns=\"http://www.w3.org/1999/xhtml\"><table class=\"hl7__eu__lab__report\"><tr><th>Test</th><th>25-Apr-2017</th><th>Reference&#xA0;Range</th><th>Unit</th></tr><tr><td>Hemoglobin [Presence] in Urine by Test strip</td></tr></table></div>"
        },
        "status": "final",
        "subject": {
          "reference": "urn:uuid:e7233783-2c91-4060-b085-043cd4c67aac",
          "display": "Maria Nohlmans"
        },
        "effectiveDateTime": "2017-04-25T00:40:39Z",
        "specimen": {
          "reference": "urn:uuid:90f7a45d-b8bf-4335-9eed-1350861fe1d9"
        }
      }
    },
    {
      "fullUrl": "urn:uuid:3b01b74f-ff93-4927-9062-5f1f77d6dfab",
      "resource": {
        "resourceType": "Observation",
        "id": "3b01b74f-ff93-4927-9062-5f1f77d6dfab",
        "meta": {
          "profile": [
            "http://hl7.eu/fhir/laboratory/StructureDefinition/Observation-resultslab-eu-lab"
          ]
        },
        "performer": [
          {
            "display": "The Central European Lab"
          }
        ],
        "category": [
          {
            "coding": [
              {
                "system": "http://terminology.hl7.org/CodeSystem/observation-category",
                "code": "laboratory"
              }
            ]
          }
        ],
        "code": {
          "coding": [
            {
              "code": "5799-2",
              "system": "http://loinc.org",
              "display": "Leukocyte esterase [Presence] in Urine by Test strip"
            }
          ],
          "text": "Leukocyte esterase [Presence] in Urine by Test strip"
        },
        "text": {
          "status": "generated",
          "div": "<div xmlns=\"http://www.w3.org/1999/xhtml\"><table class=\"hl7__eu__lab__report\"><tr><th>Test</th><th>25-Apr-2017</th><th>Reference&#xA0;Range</th><th>Unit</th></tr><tr><td>Leukocyte esterase [Presence] in Urine by Test strip</td></tr></table></div>"
        },
        "status": "final",
        "subject": {
          "reference": "urn:uuid:e7233783-2c91-4060-b085-043cd4c67aac",
          "display": "Maria Nohlmans"
        },
        "effectiveDateTime": "2017-04-25T00:40:39Z",
        "specimen": {
          "reference": "urn:uuid:90f7a45d-b8bf-4335-9eed-1350861fe1d9"
        }
      }
    },
    {
      "fullUrl": "urn:uuid:d03de6f4-9d0d-46ba-9cd7-471be3d90171",
      "resource": {
        "resourceType": "Device",
        "id": "d03de6f4-9d0d-46ba-9cd7-471be3d90171",
        "deviceName": [
          {
            "name": "SYNDERAI Synthetic Generator",
            "type": "manufacturer-name"
          }
        ],
        "version": [
          {
            "value": "5.0"
          }
        ],
        "text": {
          "status": "generated",
          "div": "<div xmlns=\"http://www.w3.org/1999/xhtml\">SYNDERAI Synthetic Generator v5.0</div>"
        },
        "status": "active\"",
        "distinctIdentifier": "synderai-generator-50",
        "manufacturer": "SYNDERAI Project"
      }
    },
    {
      "fullUrl": "urn:uuid:37e96c7b-b1d7-49dd-b0f9-2bbe8902504f",
      "resource": {
        "resourceType": "Provenance",
        "id": "37e96c7b-b1d7-49dd-b0f9-2bbe8902504f",
        "target": [
          {
            "reference": "Patient/e7233783-2c91-4060-b085-043cd4c67aac"
          },
          {
            "reference": "Bundle/b576c842-ccaf-4883-a305-41820a3aa8a9"
          },
          {
            "reference": "Composition/47a5e626-0da7-445a-8aa1-430cff20992f"
          },
          {
            "reference": "PractitionerRole/4d2e0ac0-1916-4524-a0f3-bdcffeabd47b"
          },
          {
            "reference": "Practitioner/dd3157a5-f0af-406c-8014-e6cfed58d4de"
          },
          {
            "reference": "PractitionerRole/2e76cb41-c9b4-4fc5-b967-21e1f16e7791"
          },
          {
            "reference": "Organization/d405c638-82bc-4a85-8d20-1365c767f057"
          }
        ],
        "activity": {
          "text": "Synthetic Example Data Generation"
        },
        "policy": [
          "https://synderai.net/synderai-synthetic-data-policy"
        ],
        "agent": [
          {
            "type": {
              "text": "author"
            },
            "who": {
              "reference": "Device/d03de6f4-9d0d-46ba-9cd7-471be3d90171"
            }
          }
        ],
        "reason": [
          {
            "text": "Interoperability Testing and Training (non-clinical use)"
          }
        ],
        "text": {
          "status": "generated",
          "div": "<div xmlns=\"http://www.w3.org/1999/xhtml\">Provenance for SYNDERAI Synthetic Example Data Resource</div>"
        },
        "recorded": "2017-04-25T02:40:39Z"
      }
    },
    {
      "fullUrl": "urn:uuid:4d2e0ac0-1916-4524-a0f3-bdcffeabd47b",
      "resource": {
        "resourceType": "PractitionerRole",
        "id": "4d2e0ac0-1916-4524-a0f3-bdcffeabd47b",
        "meta": {
          "profile": [
            "http://hl7.eu/fhir/base/StructureDefinition/practitionerRole-eu"
          ]
        },
        "text": {
          "status": "generated",
          "div": "<div xmlns=\"http://www.w3.org/1999/xhtml\">Laboratory Role Id: 4d2e0ac0-1916-4524-a0f3-bdcffeabd47b</div>"
        },
        "practitioner": {
          "reference": "urn:uuid:dd3157a5-f0af-406c-8014-e6cfed58d4de"
        }
      }
    },
    {
      "fullUrl": "urn:uuid:dd3157a5-f0af-406c-8014-e6cfed58d4de",
      "resource": {
        "resourceType": "Practitioner",
        "id": "dd3157a5-f0af-406c-8014-e6cfed58d4de",
        "meta": {
          "profile": [
            "http://hl7.eu/fhir/base/StructureDefinition/practitioner-eu"
          ]
        },
        "identifier": [
          {
            "assigner": {
              "display": "HL7 Europe"
            },
            "system": "urn:oid:2.16.840.1.113883.2.51.999",
            "value": "cce9484b-9f96-4d9a-beb6-ed78be5c8d11"
          }
        ],
        "name": [
          {
            "prefix": [
              "dr"
            ],
            "given": [
              "Ex"
            ],
            "family": "Ample"
          }
        ],
        "address": [
          {
            "line": [
              "Laboratoire Central Européenne",
              "Boulevard du Jardin Botanique 32"
            ],
            "postalCode": "1000",
            "city": "Brussels",
            "country": "Belgium"
          }
        ],
        "text": {
          "status": "generated",
          "div": "<div xmlns=\"http://www.w3.org/1999/xhtml\">Laboratory: Laboratoire Central Européenne, 1000 Brussels, Belgium</div>"
        }
      }
    }
  ],
  "type": "document",
  "timestamp": "2017-04-25T02:40:39Z"
}
