{
  "resourceType": "Bundle",
  "id": "3290cd0d-040d-45ee-acc0-e3aaabb0e646",
  "meta": {
    "profile": [
      "http://hl7.eu/fhir/laboratory/StructureDefinition/Bundle-eu-lab"
    ]
  },
  "identifier": {
    "assigner": {
      "display": "HL7 Europe"
    },
    "system": "urn:oid:2.16.840.1.113883.2.51.999",
    "value": "5507ee90-68fb-492f-b0cb-9b3da976fef9"
  },
  "entry": [
    {
      "fullUrl": "urn:uuid:dab63a4e-701d-4e44-9079-874030e9977a",
      "resource": {
        "resourceType": "Composition",
        "id": "dab63a4e-701d-4e44-9079-874030e9977a",
        "meta": {
          "profile": [
            "http://hl7.eu/fhir/laboratory/StructureDefinition/Composition-eu-lab"
          ]
        },
        "identifier": {
          "assigner": {
            "display": "HL7 Europe"
          },
          "system": "urn:oid:2.16.840.1.113883.2.51.999",
          "value": "5a54a081-6856-4136-855a-6079bec2ab18"
        },
        "author": [
          {
            "reference": "urn:uuid:16b38ecd-d91a-4202-9519-df0d8a95d84a"
          }
        ],
        "category": [
          {
            "coding": [
              {
                "code": "26436-6",
                "system": "http://loinc.org",
                "display": "Laboratory studies (set)"
              }
            ]
          }
        ],
        "type": {
          "coding": [
            {
              "code": "11502-2",
              "system": "http://loinc.org",
              "display": "Laboratory report"
            }
          ],
          "text": "Laboratory Report"
        },
        "section": [
          {
            "code": {
              "coding": [
                {
                  "code": "26436-6",
                  "system": "http://loinc.org",
                  "display": "Laboratory studies (set)"
                }
              ],
              "text": "Laboratory studies"
            },
            "section": [
              {
                "code": {
                  "coding": [
                    {
                      "code": "$18719-5",
                      "system": "http://loinc.org",
                      "display": "Chemistry studies (set)"
                    }
                  ],
                  "text": "Chemistry"
                },
                "entry": [
                  {
                    "reference": "urn:uuid:0a9cfe4d-9a86-4858-b84f-14be7d4238c9"
                  },
                  {
                    "reference": "urn:uuid:8d5c7c08-d435-45d1-980e-aa10f779eb3e"
                  },
                  {
                    "reference": "urn:uuid:16aa287f-af9b-4dfe-964b-f8b7e91b5f43"
                  },
                  {
                    "reference": "urn:uuid:285839d7-6d0d-4d1c-ad4a-edd2f0bb0def"
                  },
                  {
                    "reference": "urn:uuid:7ee8b8b2-4486-4140-9482-29a11d9ffac5"
                  },
                  {
                    "reference": "urn:uuid:78a2290c-7904-4ae1-8bf2-915c12e8b6cf"
                  },
                  {
                    "reference": "urn:uuid:73ea9264-cace-4e3e-b983-1cea51b2c8c6"
                  },
                  {
                    "reference": "urn:uuid:7acc19a1-f7f4-4720-91e4-a2348a2a3669"
                  },
                  {
                    "reference": "urn:uuid:731241fc-199d-4620-b51f-0056da704d44"
                  },
                  {
                    "reference": "urn:uuid:b79a1211-87b8-4477-a446-dc4b7d467559"
                  }
                ],
                "text": {
                  "status": "generated",
                  "div": "<div xmlns=\"http://www.w3.org/1999/xhtml\"><h3>Chemistry</h3><table class=\"hl7__eu__lab__report\"><thead><tr><th>Test</th><th>21-SEP-2023</th><th>Reference&#xA0;Range</th><th>Unit</th></tr></thead><tbody><tr><td>Glucose [Mass/volume] in Serum or Plasma</td><td>70.1</td><td>70 - 139</td><td>mg/dL</td></tr><tr><td>Urea nitrogen [Mass/volume] in Serum or Plasma</td><td>17.0</td><td>7 - 20</td><td>mg/dL</td></tr><tr><td>Creatinine [Mass/volume] in Serum or Plasma</td><td><strong>2.0 H</strong></td><td>0.6 - 1.1</td><td>mg/dL</td></tr><tr><td>Calcium [Mass/volume] in Serum or Plasma</td><td>10.0</td><td>8.5 - 10.4</td><td>mg/dL</td></tr><tr><td>Sodium [Moles/volume] in Serum or Plasma</td><td>136.0</td><td>135 - 145</td><td>mmol/L</td></tr><tr><td>Potassium [Moles/volume] in Serum or Plasma</td><td>4.6</td><td>3.5 - 5.1</td><td>mmol/L</td></tr><tr><td>Chloride [Moles/volume] in Serum or Plasma</td><td>103.8</td><td>98 - 110</td><td>mmol/L</td></tr><tr><td>Carbon dioxide, total [Moles/volume] in Serum or Plasma</td><td>25.3</td><td>22 - 32</td><td>mmol/L</td></tr><tr><td>Ketones [Presence] in Urine by Test strip</td><td>Urine ketone test = +</td><td></td><td></td></tr><tr><td>Hemoglobin A1c/Hemoglobin.total in Blood</td><td><strong>3.2 L</strong></td><td>4 - 6</td><td>%</td></tr></tbody></table></div>"
                },
                "title": "Chemistry"
              },
              {
                "code": {
                  "coding": [
                    {
                      "code": "$18729-4",
                      "system": "http://loinc.org",
                      "display": "Urinalysis studies (set)"
                    }
                  ],
                  "text": "Urinalysis"
                },
                "entry": [
                  {
                    "reference": "urn:uuid:d9244433-1cba-4085-baad-41ce6fab758c"
                  },
                  {
                    "reference": "urn:uuid:bffa6d0c-244d-496a-b4a4-6e828c99a802"
                  },
                  {
                    "reference": "urn:uuid:738f01ff-5f73-403c-9007-f80d03bcc990"
                  },
                  {
                    "reference": "urn:uuid:39a5c02c-bb47-4944-99c3-891a3a3a4bda"
                  },
                  {
                    "reference": "urn:uuid:9a74a4fe-2687-4c56-9a60-abd10810ef10"
                  },
                  {
                    "reference": "urn:uuid:185a2a38-fd0b-4e85-b924-64679914b30d"
                  },
                  {
                    "reference": "urn:uuid:c7d69deb-824e-45a3-9965-ad357f20aa14"
                  },
                  {
                    "reference": "urn:uuid:ec4218a8-f765-4be6-ae6d-36afe6556b65"
                  },
                  {
                    "reference": "urn:uuid:22afba19-6ac0-4bbf-b7ae-981034193046"
                  },
                  {
                    "reference": "urn:uuid:df6860ff-fd7c-4a1a-ad17-033494d6066c"
                  },
                  {
                    "reference": "urn:uuid:a34de1e8-547c-4beb-a132-9b7d9dd76935"
                  },
                  {
                    "reference": "urn:uuid:24a952b3-b289-41df-aa25-ea9ce02a8196"
                  }
                ],
                "text": {
                  "status": "generated",
                  "div": "<div xmlns=\"http://www.w3.org/1999/xhtml\"><h3>Urinalysis</h3><table class=\"hl7__eu__lab__report\"><thead><tr><th>Test</th><th>21-SEP-2023</th><th>Reference&#xA0;Range</th><th>Unit</th></tr></thead><tbody><tr><td>Glucose [Mass/volume] in Urine by Test strip</td><td><strong>1.7 H</strong></td><td>0 - 0</td><td>mg/dL</td></tr><tr><td>Glucose [Presence] in Urine by Test strip</td><td>++</td><td></td><td></td></tr><tr><td>Bilirubin.total [Mass/volume] in Urine by Test strip</td><td>1.4</td><td>0 - 1.6</td><td>mg/dL</td></tr><tr><td>Bilirubin.total [Presence] in Urine by Test strip</td><td>Finding of bilirubin in urine</td><td></td><td></td></tr><tr><td>Ketones [Mass/volume] in Urine by Test strip</td><td><strong>5.4 H</strong></td><td>0 - 0.5</td><td>mg/dL</td></tr><tr><td>Specific gravity of Urine by Test strip</td><td><strong>1.0 L</strong></td><td>1.005 - 1.03</td><td>{nominal}</td></tr><tr><td>pH of Urine by Test strip</td><td>5.4</td><td>4.5 - 7.5</td><td>pH</td></tr><tr><td>Protein [Mass/volume] in Urine by Test strip</td><td><strong>203.8 H</strong></td><td>0 - 15</td><td>mg/dL</td></tr><tr><td>Protein [Presence] in Urine by Test strip</td><td>Urine protein test = ++</td><td></td><td></td></tr><tr><td>Nitrite [Presence] in Urine by Test strip</td><td>Urine nitrite negative</td><td></td><td></td></tr><tr><td>Hemoglobin [Presence] in Urine by Test strip</td><td>Urine blood test = negative</td><td></td><td></td></tr><tr><td>Leukocyte esterase [Presence] in Urine by Test strip</td><td>Urine leukocyte test negative</td><td></td><td></td></tr></tbody></table></div>"
                },
                "title": "Urinalysis"
              },
              {
                "code": {
                  "coding": [
                    {
                      "code": "$LP7846-1",
                      "system": "http://loinc.org",
                      "display": "Specimen information"
                    }
                  ],
                  "text": "Specimen information"
                },
                "entry": [
                  {
                    "reference": "urn:uuid:f8fafe5a-aef0-404a-9731-ce275a67d4db"
                  },
                  {
                    "reference": "urn:uuid:2eb8e1f4-a5c0-4c0c-b0bd-53e65eeaeea4"
                  },
                  {
                    "reference": "urn:uuid:c3593a4c-0ac2-4567-ac6d-b9173353bd07"
                  },
                  {
                    "reference": "urn:uuid:8f416775-6184-424d-85df-a1e8b73d79f3"
                  }
                ],
                "text": {
                  "status": "generated",
                  "div": "<div xmlns=\"http://www.w3.org/1999/xhtml\"><h3>Specimen information</h3><table class=\"hl7__eu__lab__report\"><thead><tr><th>Test</th><th>21-SEP-2023</th><th>Specimen</th><th></th></tr></thead><tbody><tr><td>Appearance of Urine</td><td>Cloudy urine</td><td>Urine</td><td></td></tr><tr><td>Odor of Urine</td><td>Urine smell ammoniacal</td><td>Urine</td><td></td></tr><tr><td>Clarity of Urine</td><td>Translucent</td><td>Urine</td><td></td></tr><tr><td>Color of Urine</td><td>Brown color</td><td>Urine</td><td></td></tr></tbody></table></div>"
                },
                "title": "Specimen information"
              }
            ],
            "title": "Laboratory Report"
          },
          {
            "text": {
              "status": "generated",
              "div": "<div xmlns=\"http://www.w3.org/1999/xhtml\"><h3>Annotation</h3><table class=\"hl7__eu__lab__report\"><tr><th>Conclusion and Recommendations based on this report and previous findings known to us</th></tr><tr><td>The patient shows elevated serum creatinine, significant proteinuria, glucosuria, and ketonuria, with low urine specific gravity and low HbA1c. These findings suggest impaired renal function, possible tubular dysfunction, and abnormal glucose handling not explained by chronic hyperglycemia. Urine appearance is abnormal but no evidence of infection. Further nephrological evaluation is recommended.</td></tr></table></div>"
            },
            "code": {
              "coding": [
                {
                  "system": "http://loinc.org",
                  "code": "48767-8",
                  "display": "Annotation comment"
                }
              ]
            },
            "title": "Annotation comment"
          }
        ],
        "status": "final",
        "subject": {
          "reference": "urn:uuid:1f829b4c-1266-4188-9613-1ef5c1833c9a",
          "display": "Molly Jenkins"
        },
        "date": "2023-09-21T16:42:11Z",
        "title": "Laboratory Report",
        "confidentiality": "N"
      }
    },
    {
      "fullUrl": "urn:uuid:4a481687-7ed4-4ffd-b934-da45b2c8e27b",
      "resource": {
        "resourceType": "DiagnosticReport",
        "id": "4a481687-7ed4-4ffd-b934-da45b2c8e27b",
        "meta": {
          "profile": [
            "http://hl7.eu/fhir/laboratory/StructureDefinition/DiagnosticReport-eu-lab"
          ]
        },
        "identifier": [
          {
            "assigner": {
              "display": "HL7 Europe"
            },
            "system": "urn:oid:2.16.840.1.113883.2.51.999",
            "value": "c92e9b40-3a3a-4329-8e69-6b87e3067d51"
          }
        ],
        "extension": [
          {
            "url": "http://hl7.org/fhir/5.0/StructureDefinition/extension-DiagnosticReport.composition",
            "valueReference": {
              "reference": "urn:uuid:5a54a081-6856-4136-855a-6079bec2ab18"
            }
          }
        ],
        "category": [
          {
            "coding": [
              {
                "code": "26436-6",
                "system": "http://loinc.org",
                "display": "Laboratory studies (set)"
              }
            ]
          }
        ],
        "specimen": [
          {
            "reference": "urn:uuid:763a25f4-43bb-4c79-aae2-1cb91b3ece55"
          },
          {
            "reference": "urn:uuid:8b99fb8e-f202-4e28-a006-f6766b499f61"
          },
          {
            "reference": "urn:uuid:f9b88077-fe02-4916-a004-362c58762c7c"
          }
        ],
        "result": [
          {
            "reference": "urn:uuid:0a9cfe4d-9a86-4858-b84f-14be7d4238c9"
          },
          {
            "reference": "urn:uuid:8d5c7c08-d435-45d1-980e-aa10f779eb3e"
          },
          {
            "reference": "urn:uuid:16aa287f-af9b-4dfe-964b-f8b7e91b5f43"
          },
          {
            "reference": "urn:uuid:285839d7-6d0d-4d1c-ad4a-edd2f0bb0def"
          },
          {
            "reference": "urn:uuid:7ee8b8b2-4486-4140-9482-29a11d9ffac5"
          },
          {
            "reference": "urn:uuid:78a2290c-7904-4ae1-8bf2-915c12e8b6cf"
          },
          {
            "reference": "urn:uuid:73ea9264-cace-4e3e-b983-1cea51b2c8c6"
          },
          {
            "reference": "urn:uuid:7acc19a1-f7f4-4720-91e4-a2348a2a3669"
          },
          {
            "reference": "urn:uuid:f8fafe5a-aef0-404a-9731-ce275a67d4db"
          },
          {
            "reference": "urn:uuid:2eb8e1f4-a5c0-4c0c-b0bd-53e65eeaeea4"
          },
          {
            "reference": "urn:uuid:c3593a4c-0ac2-4567-ac6d-b9173353bd07"
          },
          {
            "reference": "urn:uuid:8f416775-6184-424d-85df-a1e8b73d79f3"
          },
          {
            "reference": "urn:uuid:d9244433-1cba-4085-baad-41ce6fab758c"
          },
          {
            "reference": "urn:uuid:bffa6d0c-244d-496a-b4a4-6e828c99a802"
          },
          {
            "reference": "urn:uuid:738f01ff-5f73-403c-9007-f80d03bcc990"
          },
          {
            "reference": "urn:uuid:39a5c02c-bb47-4944-99c3-891a3a3a4bda"
          },
          {
            "reference": "urn:uuid:9a74a4fe-2687-4c56-9a60-abd10810ef10"
          },
          {
            "reference": "urn:uuid:731241fc-199d-4620-b51f-0056da704d44"
          },
          {
            "reference": "urn:uuid:185a2a38-fd0b-4e85-b924-64679914b30d"
          },
          {
            "reference": "urn:uuid:c7d69deb-824e-45a3-9965-ad357f20aa14"
          },
          {
            "reference": "urn:uuid:ec4218a8-f765-4be6-ae6d-36afe6556b65"
          },
          {
            "reference": "urn:uuid:22afba19-6ac0-4bbf-b7ae-981034193046"
          },
          {
            "reference": "urn:uuid:df6860ff-fd7c-4a1a-ad17-033494d6066c"
          },
          {
            "reference": "urn:uuid:a34de1e8-547c-4beb-a132-9b7d9dd76935"
          },
          {
            "reference": "urn:uuid:24a952b3-b289-41df-aa25-ea9ce02a8196"
          },
          {
            "reference": "urn:uuid:b79a1211-87b8-4477-a446-dc4b7d467559"
          }
        ],
        "status": "registered",
        "code": {
          "coding": [
            {
              "code": "11502-2",
              "system": "http://loinc.org",
              "display": "Laboratory report"
            }
          ]
        },
        "subject": {
          "reference": "urn:uuid:1f829b4c-1266-4188-9613-1ef5c1833c9a",
          "display": "Molly Jenkins"
        }
      }
    },
    {
      "fullUrl": "urn:uuid:1f829b4c-1266-4188-9613-1ef5c1833c9a",
      "resource": {
        "resourceType": "Patient",
        "id": "1f829b4c-1266-4188-9613-1ef5c1833c9a",
        "meta": {
          "security": [
            {
              "system": "http://terminology.hl7.org/CodeSystem/v3-ActReason",
              "code": "HTEST"
            },
            {
              "system": "http://terminology.hl7.org/CodeSystem/v3-ActReason",
              "code": "TRAIN"
            }
          ],
          "tag": [
            {
              "system": "https://synderai.net/fhir/CodeSystem/tags",
              "code": "synthetic",
              "display": "SYNDERAI Synthetic data"
            }
          ],
          "profile": [
            "http://hl7.eu/fhir/base/StructureDefinition/patient-eu-core"
          ]
        },
        "identifier": [
          {
            "type": {
              "coding": [
                {
                  "code": "PT",
                  "system": "http://terminology.hl7.org/CodeSystem/v2-0203"
                }
              ]
            },
            "system": "http://ec.europa.eu/identifier/eci",
            "value": "7634-012682-0"
          },
          {
            "type": {
              "coding": [
                {
                  "code": "MR",
                  "system": "http://terminology.hl7.org/CodeSystem/v2-0203"
                }
              ]
            },
            "system": "http://local.setting.eu/identifier",
            "value": "9934a8eb-b6e1-34e1-edf5-57a0262d1bea"
          }
        ],
        "name": [
          {
            "family": "Jenkins"
          },
          {
            "given": [
              "Molly"
            ]
          },
          {
            "text": "Molly Jenkins"
          }
        ],
        "address": [
          {
            "line": [
              "98 Ali field"
            ],
            "use": "home",
            "type": "physical",
            "postalCode": "AB42",
            "city": "Port Jennamouth",
            "country": "United Kingdom"
          }
        ],
        "telecom": [
          {
            "system": "phone",
            "value": "(0118) 496 0334"
          }
        ],
        "extension": [
          {
            "url": "http://hl7.org/fhir/StructureDefinition/patient-nationality",
            "valueCodeableConcept": {
              "coding": [
                {
                  "code": "GB",
                  "system": "http://hl7.org/fhir/ValueSet/country"
                }
              ]
            }
          }
        ],
        "text": {
          "status": "generated",
          "div": "<div xmlns=\"http://www.w3.org/1999/xhtml\"><table class=\"hl7__ips\"><tr><td>Molly Jenkins</td><td>female</td><td>14-Aug-1967</td></tr></table></div>"
        },
        "gender": "female",
        "birthDate": "1967-08-14"
      }
    },
    {
      "fullUrl": "urn:uuid:97c65350-d6c6-4e09-b352-ee107a989151",
      "resource": {
        "resourceType": "ServiceRequest",
        "id": "97c65350-d6c6-4e09-b352-ee107a989151",
        "meta": {
          "profile": [
            "http://hl7.eu/fhir/laboratory/StructureDefinition/ServiceRequest-eu-lab"
          ]
        },
        "identifier": [
          {
            "system": "http://example.org",
            "value": "aed212d4-d207-49c0-89a5-3c91e8289168"
          }
        ],
        "specimen": [
          {
            "reference": "urn:uuid:763a25f4-43bb-4c79-aae2-1cb91b3ece55"
          },
          {
            "reference": "urn:uuid:8b99fb8e-f202-4e28-a006-f6766b499f61"
          },
          {
            "reference": "urn:uuid:f9b88077-fe02-4916-a004-362c58762c7c"
          }
        ],
        "reasonCode": [
          {
            "coding": [
              {
                "code": "431856006",
                "system": "http://snomed.info/sct",
                "display": "Chronic kidney disease stage 2"
              }
            ]
          },
          {
            "coding": [
              {
                "code": "90781000119102",
                "system": "http://snomed.info/sct",
                "display": "Microalbuminuria due to type 2 diabetes mellitus"
              }
            ]
          },
          {
            "coding": [
              {
                "code": "127013003",
                "system": "http://snomed.info/sct",
                "display": "Disorder of kidney due to diabetes mellitus"
              }
            ]
          },
          {
            "coding": [
              {
                "code": "431855005",
                "system": "http://snomed.info/sct",
                "display": "Chronic kidney disease stage 1"
              }
            ]
          },
          {
            "coding": [
              {
                "code": "15777000",
                "system": "http://snomed.info/sct",
                "display": "Prediabetes"
              }
            ]
          },
          {
            "coding": [
              {
                "code": "59621000",
                "system": "http://snomed.info/sct",
                "display": "Essential hypertension"
              }
            ]
          },
          {
            "coding": [
              {
                "code": "53827007",
                "system": "http://snomed.info/sct",
                "display": "Excessive salivation"
              }
            ]
          },
          {
            "coding": [
              {
                "code": "64859006",
                "system": "http://snomed.info/sct",
                "display": "Osteoporosis"
              }
            ]
          },
          {
            "coding": [
              {
                "code": "128188000",
                "system": "http://snomed.info/sct",
                "display": "Cerebral palsy"
              }
            ]
          },
          {
            "coding": [
              {
                "code": "235595009",
                "system": "http://snomed.info/sct",
                "display": "Gastroesophageal reflux disease"
              }
            ]
          }
        ],
        "status": "active",
        "intent": "order",
        "code": {
          "coding": [
            {
              "code": "108252007",
              "system": "http://snomed.info/sct",
              "display": "Laboratory procedure"
            }
          ]
        },
        "subject": {
          "reference": "urn:uuid:1f829b4c-1266-4188-9613-1ef5c1833c9a",
          "display": "Molly Jenkins"
        },
        "requester": {
          "reference": "urn:uuid:0f4cdd0b-cbdd-48fe-9a06-648ed552a274"
        }
      }
    },
    {
      "fullUrl": "urn:uuid:0f4cdd0b-cbdd-48fe-9a06-648ed552a274",
      "resource": {
        "resourceType": "PractitionerRole",
        "id": "0f4cdd0b-cbdd-48fe-9a06-648ed552a274",
        "meta": {
          "profile": [
            "http://hl7.eu/fhir/base/StructureDefinition/practitionerRole-eu"
          ]
        },
        "text": {
          "status": "generated",
          "div": "<div xmlns=\"http://www.w3.org/1999/xhtml\">Provider Role Id: 0f4cdd0b-cbdd-48fe-9a06-648ed552a274</div>"
        },
        "organization": {
          "reference": "urn:uuid:de0d2c49-b81f-4bac-9f45-dcd8fe99a1ea"
        }
      }
    },
    {
      "fullUrl": "urn:uuid:de0d2c49-b81f-4bac-9f45-dcd8fe99a1ea",
      "resource": {
        "resourceType": "Organization",
        "id": "de0d2c49-b81f-4bac-9f45-dcd8fe99a1ea",
        "meta": {
          "profile": [
            "http://hl7.eu/fhir/base/StructureDefinition/organization-eu"
          ]
        },
        "identifier": [
          {
            "assigner": {
              "display": "HL7 Europe"
            },
            "system": "urn:oid:2.16.840.1.113883.2.51.999",
            "value": "cbc0e7b2-a2cb-467f-b845-5f72fb91f22f"
          }
        ],
        "address": [
          {
            "city": "Aberdeen",
            "postalCode": "AB11 6",
            "country": "United Kingdom"
          }
        ],
        "text": {
          "status": "generated",
          "div": "<div xmlns=\"http://www.w3.org/1999/xhtml\">Provider Organization: Aberdeen Community Health and Care Village</div>"
        },
        "name": "Aberdeen Community Health and Care Village"
      }
    },
    {
      "fullUrl": "urn:uuid:763a25f4-43bb-4c79-aae2-1cb91b3ece55",
      "resource": {
        "resourceType": "Specimen",
        "id": "763a25f4-43bb-4c79-aae2-1cb91b3ece55",
        "meta": {
          "profile": [
            "http://hl7.eu/fhir/laboratory/StructureDefinition/Specimen-eu-lab"
          ]
        },
        "collection": {
          "collectedDateTime": "2023-09-21"
        },
        "text": {
          "status": "generated",
          "div": "<div xmlns=\"http://www.w3.org/1999/xhtml\"><table class=\"hl7__eu__lab__report\"><tr><th>Specimen</th><th>Collection Date</th></tr><tr><td>Acellular blood (serum or plasma) specimen</td><td><span class=\"nb\">21-Sep-2023</span></td></tr></table></div>"
        },
        "type": {
          "coding": [
            {
              "code": "122592007",
              "system": "http://snomed.info/sct",
              "display": "Acellular blood (serum or plasma) specimen"
            }
          ]
        }
      }
    },
    {
      "fullUrl": "urn:uuid:8b99fb8e-f202-4e28-a006-f6766b499f61",
      "resource": {
        "resourceType": "Specimen",
        "id": "8b99fb8e-f202-4e28-a006-f6766b499f61",
        "meta": {
          "profile": [
            "http://hl7.eu/fhir/laboratory/StructureDefinition/Specimen-eu-lab"
          ]
        },
        "collection": {
          "collectedDateTime": "2023-09-21"
        },
        "text": {
          "status": "generated",
          "div": "<div xmlns=\"http://www.w3.org/1999/xhtml\"><table class=\"hl7__eu__lab__report\"><tr><th>Specimen</th><th>Collection Date</th></tr><tr><td>Urine specimen</td><td><span class=\"nb\">21-Sep-2023</span></td></tr></table></div>"
        },
        "type": {
          "coding": [
            {
              "code": "122575003",
              "system": "http://snomed.info/sct",
              "display": "Urine specimen"
            }
          ]
        }
      }
    },
    {
      "fullUrl": "urn:uuid:f9b88077-fe02-4916-a004-362c58762c7c",
      "resource": {
        "resourceType": "Specimen",
        "id": "f9b88077-fe02-4916-a004-362c58762c7c",
        "meta": {
          "profile": [
            "http://hl7.eu/fhir/laboratory/StructureDefinition/Specimen-eu-lab"
          ]
        },
        "collection": {
          "collectedDateTime": "2023-09-21"
        },
        "text": {
          "status": "generated",
          "div": "<div xmlns=\"http://www.w3.org/1999/xhtml\"><table class=\"hl7__eu__lab__report\"><tr><th>Specimen</th><th>Collection Date</th></tr><tr><td>Whole blood specimen (specimen)</td><td><span class=\"nb\">21-Sep-2023</span></td></tr></table></div>"
        },
        "type": {
          "coding": [
            {
              "code": "258580003",
              "system": "http://snomed.info/sct",
              "display": "Whole blood specimen (specimen)"
            }
          ]
        }
      }
    },
    {
      "fullUrl": "urn:uuid:0a9cfe4d-9a86-4858-b84f-14be7d4238c9",
      "resource": {
        "resourceType": "Observation",
        "id": "0a9cfe4d-9a86-4858-b84f-14be7d4238c9",
        "meta": {
          "profile": [
            "http://hl7.eu/fhir/laboratory/StructureDefinition/Observation-resultslab-eu-lab"
          ]
        },
        "performer": [
          {
            "display": "The Central European Lab"
          }
        ],
        "category": [
          {
            "coding": [
              {
                "system": "http://terminology.hl7.org/CodeSystem/observation-category",
                "code": "laboratory"
              }
            ]
          }
        ],
        "code": {
          "coding": [
            {
              "code": "2345-7",
              "system": "http://loinc.org",
              "display": "Glucose [Mass/volume] in Serum or Plasma"
            }
          ],
          "text": "Glucose [Mass/volume] in Serum or Plasma"
        },
        "valueQuantity": {
          "system": "http://unitsofmeasure.org",
          "value": 70.1,
          "unit": "mg/dL",
          "code": "mg/dL"
        },
        "referenceRange": [
          {
            "low": {
              "value": 70,
              "code": "mg/dL",
              "system": "http://unitsofmeasure.org"
            }
          },
          {
            "high": {
              "value": 139,
              "code": "mg/dL",
              "system": "http://unitsofmeasure.org"
            }
          }
        ],
        "text": {
          "status": "generated",
          "div": "<div xmlns=\"http://www.w3.org/1999/xhtml\"><table class=\"hl7__eu__lab__report\"><tr><th>Test</th><th>21-Sep-2023</th><th>Reference&#xA0;Range</th><th>Unit</th></tr><tr><td>Glucose [Mass/volume] in Serum or Plasma</td><td>70.1</td><td>70 - 139</td><td></td><td>mg/dL</td></tr></table></div>"
        },
        "status": "final",
        "subject": {
          "reference": "urn:uuid:1f829b4c-1266-4188-9613-1ef5c1833c9a",
          "display": "Molly Jenkins"
        },
        "effectiveDateTime": "2023-09-21T14:42:11Z",
        "specimen": {
          "reference": "urn:uuid:763a25f4-43bb-4c79-aae2-1cb91b3ece55"
        }
      }
    },
    {
      "fullUrl": "urn:uuid:8d5c7c08-d435-45d1-980e-aa10f779eb3e",
      "resource": {
        "resourceType": "Observation",
        "id": "8d5c7c08-d435-45d1-980e-aa10f779eb3e",
        "meta": {
          "profile": [
            "http://hl7.eu/fhir/laboratory/StructureDefinition/Observation-resultslab-eu-lab"
          ]
        },
        "performer": [
          {
            "display": "The Central European Lab"
          }
        ],
        "category": [
          {
            "coding": [
              {
                "system": "http://terminology.hl7.org/CodeSystem/observation-category",
                "code": "laboratory"
              }
            ]
          }
        ],
        "code": {
          "coding": [
            {
              "code": "3094-0",
              "system": "http://loinc.org",
              "display": "Urea nitrogen [Mass/volume] in Serum or Plasma"
            }
          ],
          "text": "Urea nitrogen [Mass/volume] in Serum or Plasma"
        },
        "valueQuantity": {
          "system": "http://unitsofmeasure.org",
          "value": 17,
          "unit": "mg/dL",
          "code": "mg/dL"
        },
        "referenceRange": [
          {
            "low": {
              "value": 7,
              "code": "mg/dL",
              "system": "http://unitsofmeasure.org"
            }
          },
          {
            "high": {
              "value": 20,
              "code": "mg/dL",
              "system": "http://unitsofmeasure.org"
            }
          }
        ],
        "text": {
          "status": "generated",
          "div": "<div xmlns=\"http://www.w3.org/1999/xhtml\"><table class=\"hl7__eu__lab__report\"><tr><th>Test</th><th>21-Sep-2023</th><th>Reference&#xA0;Range</th><th>Unit</th></tr><tr><td>Urea nitrogen [Mass/volume] in Serum or Plasma</td><td>17.0</td><td>7 - 20</td><td></td><td>mg/dL</td></tr></table></div>"
        },
        "status": "final",
        "subject": {
          "reference": "urn:uuid:1f829b4c-1266-4188-9613-1ef5c1833c9a",
          "display": "Molly Jenkins"
        },
        "effectiveDateTime": "2023-09-21T14:42:11Z",
        "specimen": {
          "reference": "urn:uuid:763a25f4-43bb-4c79-aae2-1cb91b3ece55"
        }
      }
    },
    {
      "fullUrl": "urn:uuid:16aa287f-af9b-4dfe-964b-f8b7e91b5f43",
      "resource": {
        "resourceType": "Observation",
        "id": "16aa287f-af9b-4dfe-964b-f8b7e91b5f43",
        "meta": {
          "profile": [
            "http://hl7.eu/fhir/laboratory/StructureDefinition/Observation-resultslab-eu-lab"
          ]
        },
        "performer": [
          {
            "display": "The Central European Lab"
          }
        ],
        "category": [
          {
            "coding": [
              {
                "system": "http://terminology.hl7.org/CodeSystem/observation-category",
                "code": "laboratory"
              }
            ]
          }
        ],
        "code": {
          "coding": [
            {
              "code": "2160-0",
              "system": "http://loinc.org",
              "display": "Creatinine [Mass/volume] in Serum or Plasma"
            }
          ],
          "text": "Creatinine [Mass/volume] in Serum or Plasma"
        },
        "valueQuantity": {
          "system": "http://unitsofmeasure.org",
          "value": 2,
          "unit": "mg/dL",
          "code": "mg/dL"
        },
        "referenceRange": [
          {
            "low": {
              "value": 0.6,
              "code": "mg/dL",
              "system": "http://unitsofmeasure.org"
            }
          },
          {
            "high": {
              "value": 1.1,
              "code": "mg/dL",
              "system": "http://unitsofmeasure.org"
            }
          }
        ],
        "interpretation": [
          {
            "coding": [
              {
                "code": "H",
                "system": "http://terminology.hl7.org/CodeSystem/v3-ObservationInterpretation",
                "display": "High"
              }
            ]
          }
        ],
        "text": {
          "status": "generated",
          "div": "<div xmlns=\"http://www.w3.org/1999/xhtml\"><table class=\"hl7__eu__lab__report\"><tr><th>Test</th><th>21-Sep-2023</th><th>Reference&#xA0;Range</th><th>Unit</th></tr><tr><td>Creatinine [Mass/volume] in Serum or Plasma</td><td>2.0</td><td>0.6 - 1.1</td><td>H</td><td>mg/dL</td></tr></table></div>"
        },
        "status": "final",
        "subject": {
          "reference": "urn:uuid:1f829b4c-1266-4188-9613-1ef5c1833c9a",
          "display": "Molly Jenkins"
        },
        "effectiveDateTime": "2023-09-21T14:42:11Z",
        "specimen": {
          "reference": "urn:uuid:763a25f4-43bb-4c79-aae2-1cb91b3ece55"
        }
      }
    },
    {
      "fullUrl": "urn:uuid:285839d7-6d0d-4d1c-ad4a-edd2f0bb0def",
      "resource": {
        "resourceType": "Observation",
        "id": "285839d7-6d0d-4d1c-ad4a-edd2f0bb0def",
        "meta": {
          "profile": [
            "http://hl7.eu/fhir/laboratory/StructureDefinition/Observation-resultslab-eu-lab"
          ]
        },
        "performer": [
          {
            "display": "The Central European Lab"
          }
        ],
        "category": [
          {
            "coding": [
              {
                "system": "http://terminology.hl7.org/CodeSystem/observation-category",
                "code": "laboratory"
              }
            ]
          }
        ],
        "code": {
          "coding": [
            {
              "code": "17861-6",
              "system": "http://loinc.org",
              "display": "Calcium [Mass/volume] in Serum or Plasma"
            }
          ],
          "text": "Calcium [Mass/volume] in Serum or Plasma"
        },
        "valueQuantity": {
          "system": "http://unitsofmeasure.org",
          "value": 10,
          "unit": "mg/dL",
          "code": "mg/dL"
        },
        "referenceRange": [
          {
            "low": {
              "value": 8.5,
              "code": "mg/dL",
              "system": "http://unitsofmeasure.org"
            }
          },
          {
            "high": {
              "value": 10.4,
              "code": "mg/dL",
              "system": "http://unitsofmeasure.org"
            }
          }
        ],
        "text": {
          "status": "generated",
          "div": "<div xmlns=\"http://www.w3.org/1999/xhtml\"><table class=\"hl7__eu__lab__report\"><tr><th>Test</th><th>21-Sep-2023</th><th>Reference&#xA0;Range</th><th>Unit</th></tr><tr><td>Calcium [Mass/volume] in Serum or Plasma</td><td>10.0</td><td>8.5 - 10.4</td><td></td><td>mg/dL</td></tr></table></div>"
        },
        "status": "final",
        "subject": {
          "reference": "urn:uuid:1f829b4c-1266-4188-9613-1ef5c1833c9a",
          "display": "Molly Jenkins"
        },
        "effectiveDateTime": "2023-09-21T14:42:11Z",
        "specimen": {
          "reference": "urn:uuid:763a25f4-43bb-4c79-aae2-1cb91b3ece55"
        }
      }
    },
    {
      "fullUrl": "urn:uuid:7ee8b8b2-4486-4140-9482-29a11d9ffac5",
      "resource": {
        "resourceType": "Observation",
        "id": "7ee8b8b2-4486-4140-9482-29a11d9ffac5",
        "meta": {
          "profile": [
            "http://hl7.eu/fhir/laboratory/StructureDefinition/Observation-resultslab-eu-lab"
          ]
        },
        "performer": [
          {
            "display": "The Central European Lab"
          }
        ],
        "category": [
          {
            "coding": [
              {
                "system": "http://terminology.hl7.org/CodeSystem/observation-category",
                "code": "laboratory"
              }
            ]
          }
        ],
        "code": {
          "coding": [
            {
              "code": "2951-2",
              "system": "http://loinc.org",
              "display": "Sodium [Moles/volume] in Serum or Plasma"
            }
          ],
          "text": "Sodium [Moles/volume] in Serum or Plasma"
        },
        "valueQuantity": {
          "system": "http://unitsofmeasure.org",
          "value": 136,
          "unit": "mmol/L",
          "code": "mmol/L"
        },
        "referenceRange": [
          {
            "low": {
              "value": 135,
              "code": "mmol/L",
              "system": "http://unitsofmeasure.org"
            }
          },
          {
            "high": {
              "value": 145,
              "code": "mmol/L",
              "system": "http://unitsofmeasure.org"
            }
          }
        ],
        "text": {
          "status": "generated",
          "div": "<div xmlns=\"http://www.w3.org/1999/xhtml\"><table class=\"hl7__eu__lab__report\"><tr><th>Test</th><th>21-Sep-2023</th><th>Reference&#xA0;Range</th><th>Unit</th></tr><tr><td>Sodium [Moles/volume] in Serum or Plasma</td><td>136.0</td><td>135 - 145</td><td></td><td>mmol/L</td></tr></table></div>"
        },
        "status": "final",
        "subject": {
          "reference": "urn:uuid:1f829b4c-1266-4188-9613-1ef5c1833c9a",
          "display": "Molly Jenkins"
        },
        "effectiveDateTime": "2023-09-21T14:42:11Z",
        "specimen": {
          "reference": "urn:uuid:763a25f4-43bb-4c79-aae2-1cb91b3ece55"
        }
      }
    },
    {
      "fullUrl": "urn:uuid:78a2290c-7904-4ae1-8bf2-915c12e8b6cf",
      "resource": {
        "resourceType": "Observation",
        "id": "78a2290c-7904-4ae1-8bf2-915c12e8b6cf",
        "meta": {
          "profile": [
            "http://hl7.eu/fhir/laboratory/StructureDefinition/Observation-resultslab-eu-lab"
          ]
        },
        "performer": [
          {
            "display": "The Central European Lab"
          }
        ],
        "category": [
          {
            "coding": [
              {
                "system": "http://terminology.hl7.org/CodeSystem/observation-category",
                "code": "laboratory"
              }
            ]
          }
        ],
        "code": {
          "coding": [
            {
              "code": "2823-3",
              "system": "http://loinc.org",
              "display": "Potassium [Moles/volume] in Serum or Plasma"
            }
          ],
          "text": "Potassium [Moles/volume] in Serum or Plasma"
        },
        "valueQuantity": {
          "system": "http://unitsofmeasure.org",
          "value": 4.6,
          "unit": "mmol/L",
          "code": "mmol/L"
        },
        "referenceRange": [
          {
            "low": {
              "value": 3.5,
              "code": "mmol/L",
              "system": "http://unitsofmeasure.org"
            }
          },
          {
            "high": {
              "value": 5.1,
              "code": "mmol/L",
              "system": "http://unitsofmeasure.org"
            }
          }
        ],
        "text": {
          "status": "generated",
          "div": "<div xmlns=\"http://www.w3.org/1999/xhtml\"><table class=\"hl7__eu__lab__report\"><tr><th>Test</th><th>21-Sep-2023</th><th>Reference&#xA0;Range</th><th>Unit</th></tr><tr><td>Potassium [Moles/volume] in Serum or Plasma</td><td>4.6</td><td>3.5 - 5.1</td><td></td><td>mmol/L</td></tr></table></div>"
        },
        "status": "final",
        "subject": {
          "reference": "urn:uuid:1f829b4c-1266-4188-9613-1ef5c1833c9a",
          "display": "Molly Jenkins"
        },
        "effectiveDateTime": "2023-09-21T14:42:11Z",
        "specimen": {
          "reference": "urn:uuid:763a25f4-43bb-4c79-aae2-1cb91b3ece55"
        }
      }
    },
    {
      "fullUrl": "urn:uuid:73ea9264-cace-4e3e-b983-1cea51b2c8c6",
      "resource": {
        "resourceType": "Observation",
        "id": "73ea9264-cace-4e3e-b983-1cea51b2c8c6",
        "meta": {
          "profile": [
            "http://hl7.eu/fhir/laboratory/StructureDefinition/Observation-resultslab-eu-lab"
          ]
        },
        "performer": [
          {
            "display": "The Central European Lab"
          }
        ],
        "category": [
          {
            "coding": [
              {
                "system": "http://terminology.hl7.org/CodeSystem/observation-category",
                "code": "laboratory"
              }
            ]
          }
        ],
        "code": {
          "coding": [
            {
              "code": "2075-0",
              "system": "http://loinc.org",
              "display": "Chloride [Moles/volume] in Serum or Plasma"
            }
          ],
          "text": "Chloride [Moles/volume] in Serum or Plasma"
        },
        "valueQuantity": {
          "system": "http://unitsofmeasure.org",
          "value": 103.8,
          "unit": "mmol/L",
          "code": "mmol/L"
        },
        "referenceRange": [
          {
            "low": {
              "value": 98,
              "code": "mmol/L",
              "system": "http://unitsofmeasure.org"
            }
          },
          {
            "high": {
              "value": 110,
              "code": "mmol/L",
              "system": "http://unitsofmeasure.org"
            }
          }
        ],
        "text": {
          "status": "generated",
          "div": "<div xmlns=\"http://www.w3.org/1999/xhtml\"><table class=\"hl7__eu__lab__report\"><tr><th>Test</th><th>21-Sep-2023</th><th>Reference&#xA0;Range</th><th>Unit</th></tr><tr><td>Chloride [Moles/volume] in Serum or Plasma</td><td>103.8</td><td>98 - 110</td><td></td><td>mmol/L</td></tr></table></div>"
        },
        "status": "final",
        "subject": {
          "reference": "urn:uuid:1f829b4c-1266-4188-9613-1ef5c1833c9a",
          "display": "Molly Jenkins"
        },
        "effectiveDateTime": "2023-09-21T14:42:11Z",
        "specimen": {
          "reference": "urn:uuid:763a25f4-43bb-4c79-aae2-1cb91b3ece55"
        }
      }
    },
    {
      "fullUrl": "urn:uuid:7acc19a1-f7f4-4720-91e4-a2348a2a3669",
      "resource": {
        "resourceType": "Observation",
        "id": "7acc19a1-f7f4-4720-91e4-a2348a2a3669",
        "meta": {
          "profile": [
            "http://hl7.eu/fhir/laboratory/StructureDefinition/Observation-resultslab-eu-lab"
          ]
        },
        "performer": [
          {
            "display": "The Central European Lab"
          }
        ],
        "category": [
          {
            "coding": [
              {
                "system": "http://terminology.hl7.org/CodeSystem/observation-category",
                "code": "laboratory"
              }
            ]
          }
        ],
        "code": {
          "coding": [
            {
              "code": "2028-9",
              "system": "http://loinc.org",
              "display": "Carbon dioxide, total [Moles/volume] in Serum or Plasma"
            }
          ],
          "text": "Carbon dioxide, total [Moles/volume] in Serum or Plasma"
        },
        "valueQuantity": {
          "system": "http://unitsofmeasure.org",
          "value": 25.3,
          "unit": "mmol/L",
          "code": "mmol/L"
        },
        "referenceRange": [
          {
            "low": {
              "value": 22,
              "code": "mmol/L",
              "system": "http://unitsofmeasure.org"
            }
          },
          {
            "high": {
              "value": 32,
              "code": "mmol/L",
              "system": "http://unitsofmeasure.org"
            }
          }
        ],
        "text": {
          "status": "generated",
          "div": "<div xmlns=\"http://www.w3.org/1999/xhtml\"><table class=\"hl7__eu__lab__report\"><tr><th>Test</th><th>21-Sep-2023</th><th>Reference&#xA0;Range</th><th>Unit</th></tr><tr><td>Carbon dioxide, total [Moles/volume] in Serum or Plasma</td><td>25.3</td><td>22 - 32</td><td></td><td>mmol/L</td></tr></table></div>"
        },
        "status": "final",
        "subject": {
          "reference": "urn:uuid:1f829b4c-1266-4188-9613-1ef5c1833c9a",
          "display": "Molly Jenkins"
        },
        "effectiveDateTime": "2023-09-21T14:42:11Z",
        "specimen": {
          "reference": "urn:uuid:763a25f4-43bb-4c79-aae2-1cb91b3ece55"
        }
      }
    },
    {
      "fullUrl": "urn:uuid:f8fafe5a-aef0-404a-9731-ce275a67d4db",
      "resource": {
        "resourceType": "Observation",
        "id": "f8fafe5a-aef0-404a-9731-ce275a67d4db",
        "meta": {
          "profile": [
            "http://hl7.eu/fhir/laboratory/StructureDefinition/Observation-resultslab-eu-lab"
          ]
        },
        "performer": [
          {
            "display": "The Central European Lab"
          }
        ],
        "category": [
          {
            "coding": [
              {
                "system": "http://terminology.hl7.org/CodeSystem/observation-category",
                "code": "laboratory"
              }
            ]
          }
        ],
        "code": {
          "coding": [
            {
              "code": "5767-9",
              "system": "http://loinc.org",
              "display": "Appearance of Urine"
            }
          ],
          "text": "Appearance of Urine"
        },
        "text": {
          "status": "generated",
          "div": "<div xmlns=\"http://www.w3.org/1999/xhtml\"><table class=\"hl7__eu__lab__report\"><tr><th>Test</th><th>21-Sep-2023</th><th>Reference&#xA0;Range</th><th>Unit</th></tr><tr><td>Appearance of Urine</td></tr></table></div>"
        },
        "status": "final",
        "subject": {
          "reference": "urn:uuid:1f829b4c-1266-4188-9613-1ef5c1833c9a",
          "display": "Molly Jenkins"
        },
        "effectiveDateTime": "2023-09-21T14:42:11Z",
        "specimen": {
          "reference": "urn:uuid:8b99fb8e-f202-4e28-a006-f6766b499f61"
        }
      }
    },
    {
      "fullUrl": "urn:uuid:2eb8e1f4-a5c0-4c0c-b0bd-53e65eeaeea4",
      "resource": {
        "resourceType": "Observation",
        "id": "2eb8e1f4-a5c0-4c0c-b0bd-53e65eeaeea4",
        "meta": {
          "profile": [
            "http://hl7.eu/fhir/laboratory/StructureDefinition/Observation-resultslab-eu-lab"
          ]
        },
        "performer": [
          {
            "display": "The Central European Lab"
          }
        ],
        "category": [
          {
            "coding": [
              {
                "system": "http://terminology.hl7.org/CodeSystem/observation-category",
                "code": "laboratory"
              }
            ]
          }
        ],
        "code": {
          "coding": [
            {
              "code": "34533-0",
              "system": "http://loinc.org",
              "display": "Odor of Urine"
            }
          ],
          "text": "Odor of Urine"
        },
        "text": {
          "status": "generated",
          "div": "<div xmlns=\"http://www.w3.org/1999/xhtml\"><table class=\"hl7__eu__lab__report\"><tr><th>Test</th><th>21-Sep-2023</th><th>Reference&#xA0;Range</th><th>Unit</th></tr><tr><td>Odor of Urine</td></tr></table></div>"
        },
        "status": "final",
        "subject": {
          "reference": "urn:uuid:1f829b4c-1266-4188-9613-1ef5c1833c9a",
          "display": "Molly Jenkins"
        },
        "effectiveDateTime": "2023-09-21T14:42:11Z",
        "specimen": {
          "reference": "urn:uuid:8b99fb8e-f202-4e28-a006-f6766b499f61"
        }
      }
    },
    {
      "fullUrl": "urn:uuid:c3593a4c-0ac2-4567-ac6d-b9173353bd07",
      "resource": {
        "resourceType": "Observation",
        "id": "c3593a4c-0ac2-4567-ac6d-b9173353bd07",
        "meta": {
          "profile": [
            "http://hl7.eu/fhir/laboratory/StructureDefinition/Observation-resultslab-eu-lab"
          ]
        },
        "performer": [
          {
            "display": "The Central European Lab"
          }
        ],
        "category": [
          {
            "coding": [
              {
                "system": "http://terminology.hl7.org/CodeSystem/observation-category",
                "code": "laboratory"
              }
            ]
          }
        ],
        "code": {
          "coding": [
            {
              "code": "32167-9",
              "system": "http://loinc.org",
              "display": "Clarity of Urine"
            }
          ],
          "text": "Clarity of Urine"
        },
        "text": {
          "status": "generated",
          "div": "<div xmlns=\"http://www.w3.org/1999/xhtml\"><table class=\"hl7__eu__lab__report\"><tr><th>Test</th><th>21-Sep-2023</th><th>Reference&#xA0;Range</th><th>Unit</th></tr><tr><td>Clarity of Urine</td></tr></table></div>"
        },
        "status": "final",
        "subject": {
          "reference": "urn:uuid:1f829b4c-1266-4188-9613-1ef5c1833c9a",
          "display": "Molly Jenkins"
        },
        "effectiveDateTime": "2023-09-21T14:42:11Z",
        "specimen": {
          "reference": "urn:uuid:8b99fb8e-f202-4e28-a006-f6766b499f61"
        }
      }
    },
    {
      "fullUrl": "urn:uuid:8f416775-6184-424d-85df-a1e8b73d79f3",
      "resource": {
        "resourceType": "Observation",
        "id": "8f416775-6184-424d-85df-a1e8b73d79f3",
        "meta": {
          "profile": [
            "http://hl7.eu/fhir/laboratory/StructureDefinition/Observation-resultslab-eu-lab"
          ]
        },
        "performer": [
          {
            "display": "The Central European Lab"
          }
        ],
        "category": [
          {
            "coding": [
              {
                "system": "http://terminology.hl7.org/CodeSystem/observation-category",
                "code": "laboratory"
              }
            ]
          }
        ],
        "code": {
          "coding": [
            {
              "code": "5778-6",
              "system": "http://loinc.org",
              "display": "Color of Urine"
            }
          ],
          "text": "Color of Urine"
        },
        "text": {
          "status": "generated",
          "div": "<div xmlns=\"http://www.w3.org/1999/xhtml\"><table class=\"hl7__eu__lab__report\"><tr><th>Test</th><th>21-Sep-2023</th><th>Reference&#xA0;Range</th><th>Unit</th></tr><tr><td>Color of Urine</td></tr></table></div>"
        },
        "status": "final",
        "subject": {
          "reference": "urn:uuid:1f829b4c-1266-4188-9613-1ef5c1833c9a",
          "display": "Molly Jenkins"
        },
        "effectiveDateTime": "2023-09-21T14:42:11Z",
        "specimen": {
          "reference": "urn:uuid:8b99fb8e-f202-4e28-a006-f6766b499f61"
        }
      }
    },
    {
      "fullUrl": "urn:uuid:d9244433-1cba-4085-baad-41ce6fab758c",
      "resource": {
        "resourceType": "Observation",
        "id": "d9244433-1cba-4085-baad-41ce6fab758c",
        "meta": {
          "profile": [
            "http://hl7.eu/fhir/laboratory/StructureDefinition/Observation-resultslab-eu-lab"
          ]
        },
        "performer": [
          {
            "display": "The Central European Lab"
          }
        ],
        "category": [
          {
            "coding": [
              {
                "system": "http://terminology.hl7.org/CodeSystem/observation-category",
                "code": "laboratory"
              }
            ]
          }
        ],
        "code": {
          "coding": [
            {
              "code": "5792-7",
              "system": "http://loinc.org",
              "display": "Glucose [Mass/volume] in Urine by Test strip"
            }
          ],
          "text": "Glucose [Mass/volume] in Urine by Test strip"
        },
        "valueQuantity": {
          "system": "http://unitsofmeasure.org",
          "value": 1.7,
          "unit": "mg/dL",
          "code": "mg/dL"
        },
        "referenceRange": [
          {
            "low": {
              "value": 0,
              "code": "mg/dL",
              "system": "http://unitsofmeasure.org"
            }
          },
          {
            "high": {
              "value": 0,
              "code": "mg/dL",
              "system": "http://unitsofmeasure.org"
            }
          }
        ],
        "interpretation": [
          {
            "coding": [
              {
                "code": "H",
                "system": "http://terminology.hl7.org/CodeSystem/v3-ObservationInterpretation",
                "display": "High"
              }
            ]
          }
        ],
        "text": {
          "status": "generated",
          "div": "<div xmlns=\"http://www.w3.org/1999/xhtml\"><table class=\"hl7__eu__lab__report\"><tr><th>Test</th><th>21-Sep-2023</th><th>Reference&#xA0;Range</th><th>Unit</th></tr><tr><td>Glucose [Mass/volume] in Urine by Test strip</td><td>1.7</td><td>0 - 0</td><td>H</td><td>mg/dL</td></tr></table></div>"
        },
        "status": "final",
        "subject": {
          "reference": "urn:uuid:1f829b4c-1266-4188-9613-1ef5c1833c9a",
          "display": "Molly Jenkins"
        },
        "effectiveDateTime": "2023-09-21T14:42:11Z",
        "specimen": {
          "reference": "urn:uuid:8b99fb8e-f202-4e28-a006-f6766b499f61"
        }
      }
    },
    {
      "fullUrl": "urn:uuid:bffa6d0c-244d-496a-b4a4-6e828c99a802",
      "resource": {
        "resourceType": "Observation",
        "id": "bffa6d0c-244d-496a-b4a4-6e828c99a802",
        "meta": {
          "profile": [
            "http://hl7.eu/fhir/laboratory/StructureDefinition/Observation-resultslab-eu-lab"
          ]
        },
        "performer": [
          {
            "display": "The Central European Lab"
          }
        ],
        "category": [
          {
            "coding": [
              {
                "system": "http://terminology.hl7.org/CodeSystem/observation-category",
                "code": "laboratory"
              }
            ]
          }
        ],
        "code": {
          "coding": [
            {
              "code": "25428-4",
              "system": "http://loinc.org",
              "display": "Glucose [Presence] in Urine by Test strip"
            }
          ],
          "text": "Glucose [Presence] in Urine by Test strip"
        },
        "text": {
          "status": "generated",
          "div": "<div xmlns=\"http://www.w3.org/1999/xhtml\"><table class=\"hl7__eu__lab__report\"><tr><th>Test</th><th>21-Sep-2023</th><th>Reference&#xA0;Range</th><th>Unit</th></tr><tr><td>Glucose [Presence] in Urine by Test strip</td></tr></table></div>"
        },
        "status": "final",
        "subject": {
          "reference": "urn:uuid:1f829b4c-1266-4188-9613-1ef5c1833c9a",
          "display": "Molly Jenkins"
        },
        "effectiveDateTime": "2023-09-21T14:42:11Z",
        "specimen": {
          "reference": "urn:uuid:8b99fb8e-f202-4e28-a006-f6766b499f61"
        }
      }
    },
    {
      "fullUrl": "urn:uuid:738f01ff-5f73-403c-9007-f80d03bcc990",
      "resource": {
        "resourceType": "Observation",
        "id": "738f01ff-5f73-403c-9007-f80d03bcc990",
        "meta": {
          "profile": [
            "http://hl7.eu/fhir/laboratory/StructureDefinition/Observation-resultslab-eu-lab"
          ]
        },
        "performer": [
          {
            "display": "The Central European Lab"
          }
        ],
        "category": [
          {
            "coding": [
              {
                "system": "http://terminology.hl7.org/CodeSystem/observation-category",
                "code": "laboratory"
              }
            ]
          }
        ],
        "code": {
          "coding": [
            {
              "code": "20505-4",
              "system": "http://loinc.org",
              "display": "Bilirubin.total [Mass/volume] in Urine by Test strip"
            }
          ],
          "text": "Bilirubin.total [Mass/volume] in Urine by Test strip"
        },
        "valueQuantity": {
          "system": "http://unitsofmeasure.org",
          "value": 1.4,
          "unit": "mg/dL",
          "code": "mg/dL"
        },
        "referenceRange": [
          {
            "low": {
              "value": 0,
              "code": "mg/dL",
              "system": "http://unitsofmeasure.org"
            }
          },
          {
            "high": {
              "value": 1.6,
              "code": "mg/dL",
              "system": "http://unitsofmeasure.org"
            }
          }
        ],
        "text": {
          "status": "generated",
          "div": "<div xmlns=\"http://www.w3.org/1999/xhtml\"><table class=\"hl7__eu__lab__report\"><tr><th>Test</th><th>21-Sep-2023</th><th>Reference&#xA0;Range</th><th>Unit</th></tr><tr><td>Bilirubin.total [Mass/volume] in Urine by Test strip</td><td>1.4</td><td>0 - 1.6</td><td></td><td>mg/dL</td></tr></table></div>"
        },
        "status": "final",
        "subject": {
          "reference": "urn:uuid:1f829b4c-1266-4188-9613-1ef5c1833c9a",
          "display": "Molly Jenkins"
        },
        "effectiveDateTime": "2023-09-21T14:42:11Z",
        "specimen": {
          "reference": "urn:uuid:8b99fb8e-f202-4e28-a006-f6766b499f61"
        }
      }
    },
    {
      "fullUrl": "urn:uuid:39a5c02c-bb47-4944-99c3-891a3a3a4bda",
      "resource": {
        "resourceType": "Observation",
        "id": "39a5c02c-bb47-4944-99c3-891a3a3a4bda",
        "meta": {
          "profile": [
            "http://hl7.eu/fhir/laboratory/StructureDefinition/Observation-resultslab-eu-lab"
          ]
        },
        "performer": [
          {
            "display": "The Central European Lab"
          }
        ],
        "category": [
          {
            "coding": [
              {
                "system": "http://terminology.hl7.org/CodeSystem/observation-category",
                "code": "laboratory"
              }
            ]
          }
        ],
        "code": {
          "coding": [
            {
              "code": "5770-3",
              "system": "http://loinc.org",
              "display": "Bilirubin.total [Presence] in Urine by Test strip"
            }
          ],
          "text": "Bilirubin.total [Presence] in Urine by Test strip"
        },
        "text": {
          "status": "generated",
          "div": "<div xmlns=\"http://www.w3.org/1999/xhtml\"><table class=\"hl7__eu__lab__report\"><tr><th>Test</th><th>21-Sep-2023</th><th>Reference&#xA0;Range</th><th>Unit</th></tr><tr><td>Bilirubin.total [Presence] in Urine by Test strip</td></tr></table></div>"
        },
        "status": "final",
        "subject": {
          "reference": "urn:uuid:1f829b4c-1266-4188-9613-1ef5c1833c9a",
          "display": "Molly Jenkins"
        },
        "effectiveDateTime": "2023-09-21T14:42:11Z",
        "specimen": {
          "reference": "urn:uuid:8b99fb8e-f202-4e28-a006-f6766b499f61"
        }
      }
    },
    {
      "fullUrl": "urn:uuid:9a74a4fe-2687-4c56-9a60-abd10810ef10",
      "resource": {
        "resourceType": "Observation",
        "id": "9a74a4fe-2687-4c56-9a60-abd10810ef10",
        "meta": {
          "profile": [
            "http://hl7.eu/fhir/laboratory/StructureDefinition/Observation-resultslab-eu-lab"
          ]
        },
        "performer": [
          {
            "display": "The Central European Lab"
          }
        ],
        "category": [
          {
            "coding": [
              {
                "system": "http://terminology.hl7.org/CodeSystem/observation-category",
                "code": "laboratory"
              }
            ]
          }
        ],
        "code": {
          "coding": [
            {
              "code": "5797-6",
              "system": "http://loinc.org",
              "display": "Ketones [Mass/volume] in Urine by Test strip"
            }
          ],
          "text": "Ketones [Mass/volume] in Urine by Test strip"
        },
        "valueQuantity": {
          "system": "http://unitsofmeasure.org",
          "value": 5.4,
          "unit": "mg/dL",
          "code": "mg/dL"
        },
        "referenceRange": [
          {
            "low": {
              "value": 0,
              "code": "mg/dL",
              "system": "http://unitsofmeasure.org"
            }
          },
          {
            "high": {
              "value": 0.5,
              "code": "mg/dL",
              "system": "http://unitsofmeasure.org"
            }
          }
        ],
        "interpretation": [
          {
            "coding": [
              {
                "code": "H",
                "system": "http://terminology.hl7.org/CodeSystem/v3-ObservationInterpretation",
                "display": "High"
              }
            ]
          }
        ],
        "text": {
          "status": "generated",
          "div": "<div xmlns=\"http://www.w3.org/1999/xhtml\"><table class=\"hl7__eu__lab__report\"><tr><th>Test</th><th>21-Sep-2023</th><th>Reference&#xA0;Range</th><th>Unit</th></tr><tr><td>Ketones [Mass/volume] in Urine by Test strip</td><td>5.4</td><td>0 - 0.5</td><td>H</td><td>mg/dL</td></tr></table></div>"
        },
        "status": "final",
        "subject": {
          "reference": "urn:uuid:1f829b4c-1266-4188-9613-1ef5c1833c9a",
          "display": "Molly Jenkins"
        },
        "effectiveDateTime": "2023-09-21T14:42:11Z",
        "specimen": {
          "reference": "urn:uuid:8b99fb8e-f202-4e28-a006-f6766b499f61"
        }
      }
    },
    {
      "fullUrl": "urn:uuid:731241fc-199d-4620-b51f-0056da704d44",
      "resource": {
        "resourceType": "Observation",
        "id": "731241fc-199d-4620-b51f-0056da704d44",
        "meta": {
          "profile": [
            "http://hl7.eu/fhir/laboratory/StructureDefinition/Observation-resultslab-eu-lab"
          ]
        },
        "performer": [
          {
            "display": "The Central European Lab"
          }
        ],
        "category": [
          {
            "coding": [
              {
                "system": "http://terminology.hl7.org/CodeSystem/observation-category",
                "code": "laboratory"
              }
            ]
          }
        ],
        "code": {
          "coding": [
            {
              "code": "2514-8",
              "system": "http://loinc.org",
              "display": "Ketones [Presence] in Urine by Test strip"
            }
          ],
          "text": "Ketones [Presence] in Urine by Test strip"
        },
        "text": {
          "status": "generated",
          "div": "<div xmlns=\"http://www.w3.org/1999/xhtml\"><table class=\"hl7__eu__lab__report\"><tr><th>Test</th><th>21-Sep-2023</th><th>Reference&#xA0;Range</th><th>Unit</th></tr><tr><td>Ketones [Presence] in Urine by Test strip</td></tr></table></div>"
        },
        "status": "final",
        "subject": {
          "reference": "urn:uuid:1f829b4c-1266-4188-9613-1ef5c1833c9a",
          "display": "Molly Jenkins"
        },
        "effectiveDateTime": "2023-09-21T14:42:11Z",
        "specimen": {
          "reference": "urn:uuid:8b99fb8e-f202-4e28-a006-f6766b499f61"
        }
      }
    },
    {
      "fullUrl": "urn:uuid:185a2a38-fd0b-4e85-b924-64679914b30d",
      "resource": {
        "resourceType": "Observation",
        "id": "185a2a38-fd0b-4e85-b924-64679914b30d",
        "meta": {
          "profile": [
            "http://hl7.eu/fhir/laboratory/StructureDefinition/Observation-resultslab-eu-lab"
          ]
        },
        "performer": [
          {
            "display": "The Central European Lab"
          }
        ],
        "category": [
          {
            "coding": [
              {
                "system": "http://terminology.hl7.org/CodeSystem/observation-category",
                "code": "laboratory"
              }
            ]
          }
        ],
        "code": {
          "coding": [
            {
              "code": "5811-5",
              "system": "http://loinc.org",
              "display": "Specific gravity of Urine by Test strip"
            }
          ],
          "text": "Specific gravity of Urine by Test strip"
        },
        "valueQuantity": {
          "system": "http://unitsofmeasure.org",
          "value": 1,
          "unit": "{nominal}",
          "code": "{nominal}"
        },
        "referenceRange": [
          {
            "low": {
              "value": 1.005,
              "code": "g/mL",
              "system": "http://unitsofmeasure.org"
            }
          },
          {
            "high": {
              "value": 1.03,
              "code": "g/mL",
              "system": "http://unitsofmeasure.org"
            }
          }
        ],
        "interpretation": [
          {
            "coding": [
              {
                "code": "L",
                "system": "http://terminology.hl7.org/CodeSystem/v3-ObservationInterpretation",
                "display": "Low"
              }
            ]
          }
        ],
        "text": {
          "status": "generated",
          "div": "<div xmlns=\"http://www.w3.org/1999/xhtml\"><table class=\"hl7__eu__lab__report\"><tr><th>Test</th><th>21-Sep-2023</th><th>Reference&#xA0;Range</th><th>Unit</th></tr><tr><td>Specific gravity of Urine by Test strip</td><td>1.0</td><td>1.005 - 1.03</td><td>L</td><td>{nominal}</td></tr></table></div>"
        },
        "status": "final",
        "subject": {
          "reference": "urn:uuid:1f829b4c-1266-4188-9613-1ef5c1833c9a",
          "display": "Molly Jenkins"
        },
        "effectiveDateTime": "2023-09-21T14:42:11Z",
        "specimen": {
          "reference": "urn:uuid:8b99fb8e-f202-4e28-a006-f6766b499f61"
        }
      }
    },
    {
      "fullUrl": "urn:uuid:c7d69deb-824e-45a3-9965-ad357f20aa14",
      "resource": {
        "resourceType": "Observation",
        "id": "c7d69deb-824e-45a3-9965-ad357f20aa14",
        "meta": {
          "profile": [
            "http://hl7.eu/fhir/laboratory/StructureDefinition/Observation-resultslab-eu-lab"
          ]
        },
        "performer": [
          {
            "display": "The Central European Lab"
          }
        ],
        "category": [
          {
            "coding": [
              {
                "system": "http://terminology.hl7.org/CodeSystem/observation-category",
                "code": "laboratory"
              }
            ]
          }
        ],
        "code": {
          "coding": [
            {
              "code": "5803-2",
              "system": "http://loinc.org",
              "display": "pH of Urine by Test strip"
            }
          ],
          "text": "pH of Urine by Test strip"
        },
        "valueQuantity": {
          "system": "http://unitsofmeasure.org",
          "value": 5.4,
          "unit": "pH",
          "code": "pH"
        },
        "referenceRange": [
          {
            "low": {
              "value": 4.5,
              "code": "pH",
              "system": "http://unitsofmeasure.org"
            }
          },
          {
            "high": {
              "value": 7.5,
              "code": "pH",
              "system": "http://unitsofmeasure.org"
            }
          }
        ],
        "text": {
          "status": "generated",
          "div": "<div xmlns=\"http://www.w3.org/1999/xhtml\"><table class=\"hl7__eu__lab__report\"><tr><th>Test</th><th>21-Sep-2023</th><th>Reference&#xA0;Range</th><th>Unit</th></tr><tr><td>pH of Urine by Test strip</td><td>5.4</td><td>4.5 - 7.5</td><td></td><td>pH</td></tr></table></div>"
        },
        "status": "final",
        "subject": {
          "reference": "urn:uuid:1f829b4c-1266-4188-9613-1ef5c1833c9a",
          "display": "Molly Jenkins"
        },
        "effectiveDateTime": "2023-09-21T14:42:11Z",
        "specimen": {
          "reference": "urn:uuid:8b99fb8e-f202-4e28-a006-f6766b499f61"
        }
      }
    },
    {
      "fullUrl": "urn:uuid:ec4218a8-f765-4be6-ae6d-36afe6556b65",
      "resource": {
        "resourceType": "Observation",
        "id": "ec4218a8-f765-4be6-ae6d-36afe6556b65",
        "meta": {
          "profile": [
            "http://hl7.eu/fhir/laboratory/StructureDefinition/Observation-resultslab-eu-lab"
          ]
        },
        "performer": [
          {
            "display": "The Central European Lab"
          }
        ],
        "category": [
          {
            "coding": [
              {
                "system": "http://terminology.hl7.org/CodeSystem/observation-category",
                "code": "laboratory"
              }
            ]
          }
        ],
        "code": {
          "coding": [
            {
              "code": "5804-0",
              "system": "http://loinc.org",
              "display": "Protein [Mass/volume] in Urine by Test strip"
            }
          ],
          "text": "Protein [Mass/volume] in Urine by Test strip"
        },
        "valueQuantity": {
          "system": "http://unitsofmeasure.org",
          "value": 203.8,
          "unit": "mg/dL",
          "code": "mg/dL"
        },
        "referenceRange": [
          {
            "low": {
              "value": 0,
              "code": "mg/dL",
              "system": "http://unitsofmeasure.org"
            }
          },
          {
            "high": {
              "value": 15,
              "code": "mg/dL",
              "system": "http://unitsofmeasure.org"
            }
          }
        ],
        "interpretation": [
          {
            "coding": [
              {
                "code": "H",
                "system": "http://terminology.hl7.org/CodeSystem/v3-ObservationInterpretation",
                "display": "High"
              }
            ]
          }
        ],
        "text": {
          "status": "generated",
          "div": "<div xmlns=\"http://www.w3.org/1999/xhtml\"><table class=\"hl7__eu__lab__report\"><tr><th>Test</th><th>21-Sep-2023</th><th>Reference&#xA0;Range</th><th>Unit</th></tr><tr><td>Protein [Mass/volume] in Urine by Test strip</td><td>203.8</td><td>0 - 15</td><td>H</td><td>mg/dL</td></tr></table></div>"
        },
        "status": "final",
        "subject": {
          "reference": "urn:uuid:1f829b4c-1266-4188-9613-1ef5c1833c9a",
          "display": "Molly Jenkins"
        },
        "effectiveDateTime": "2023-09-21T14:42:11Z",
        "specimen": {
          "reference": "urn:uuid:8b99fb8e-f202-4e28-a006-f6766b499f61"
        }
      }
    },
    {
      "fullUrl": "urn:uuid:22afba19-6ac0-4bbf-b7ae-981034193046",
      "resource": {
        "resourceType": "Observation",
        "id": "22afba19-6ac0-4bbf-b7ae-981034193046",
        "meta": {
          "profile": [
            "http://hl7.eu/fhir/laboratory/StructureDefinition/Observation-resultslab-eu-lab"
          ]
        },
        "performer": [
          {
            "display": "The Central European Lab"
          }
        ],
        "category": [
          {
            "coding": [
              {
                "system": "http://terminology.hl7.org/CodeSystem/observation-category",
                "code": "laboratory"
              }
            ]
          }
        ],
        "code": {
          "coding": [
            {
              "code": "20454-5",
              "system": "http://loinc.org",
              "display": "Protein [Presence] in Urine by Test strip"
            }
          ],
          "text": "Protein [Presence] in Urine by Test strip"
        },
        "text": {
          "status": "generated",
          "div": "<div xmlns=\"http://www.w3.org/1999/xhtml\"><table class=\"hl7__eu__lab__report\"><tr><th>Test</th><th>21-Sep-2023</th><th>Reference&#xA0;Range</th><th>Unit</th></tr><tr><td>Protein [Presence] in Urine by Test strip</td></tr></table></div>"
        },
        "status": "final",
        "subject": {
          "reference": "urn:uuid:1f829b4c-1266-4188-9613-1ef5c1833c9a",
          "display": "Molly Jenkins"
        },
        "effectiveDateTime": "2023-09-21T14:42:11Z",
        "specimen": {
          "reference": "urn:uuid:8b99fb8e-f202-4e28-a006-f6766b499f61"
        }
      }
    },
    {
      "fullUrl": "urn:uuid:df6860ff-fd7c-4a1a-ad17-033494d6066c",
      "resource": {
        "resourceType": "Observation",
        "id": "df6860ff-fd7c-4a1a-ad17-033494d6066c",
        "meta": {
          "profile": [
            "http://hl7.eu/fhir/laboratory/StructureDefinition/Observation-resultslab-eu-lab"
          ]
        },
        "performer": [
          {
            "display": "The Central European Lab"
          }
        ],
        "category": [
          {
            "coding": [
              {
                "system": "http://terminology.hl7.org/CodeSystem/observation-category",
                "code": "laboratory"
              }
            ]
          }
        ],
        "code": {
          "coding": [
            {
              "code": "5802-4",
              "system": "http://loinc.org",
              "display": "Nitrite [Presence] in Urine by Test strip"
            }
          ],
          "text": "Nitrite [Presence] in Urine by Test strip"
        },
        "text": {
          "status": "generated",
          "div": "<div xmlns=\"http://www.w3.org/1999/xhtml\"><table class=\"hl7__eu__lab__report\"><tr><th>Test</th><th>21-Sep-2023</th><th>Reference&#xA0;Range</th><th>Unit</th></tr><tr><td>Nitrite [Presence] in Urine by Test strip</td></tr></table></div>"
        },
        "status": "final",
        "subject": {
          "reference": "urn:uuid:1f829b4c-1266-4188-9613-1ef5c1833c9a",
          "display": "Molly Jenkins"
        },
        "effectiveDateTime": "2023-09-21T14:42:11Z",
        "specimen": {
          "reference": "urn:uuid:8b99fb8e-f202-4e28-a006-f6766b499f61"
        }
      }
    },
    {
      "fullUrl": "urn:uuid:a34de1e8-547c-4beb-a132-9b7d9dd76935",
      "resource": {
        "resourceType": "Observation",
        "id": "a34de1e8-547c-4beb-a132-9b7d9dd76935",
        "meta": {
          "profile": [
            "http://hl7.eu/fhir/laboratory/StructureDefinition/Observation-resultslab-eu-lab"
          ]
        },
        "performer": [
          {
            "display": "The Central European Lab"
          }
        ],
        "category": [
          {
            "coding": [
              {
                "system": "http://terminology.hl7.org/CodeSystem/observation-category",
                "code": "laboratory"
              }
            ]
          }
        ],
        "code": {
          "coding": [
            {
              "code": "5794-3",
              "system": "http://loinc.org",
              "display": "Hemoglobin [Presence] in Urine by Test strip"
            }
          ],
          "text": "Hemoglobin [Presence] in Urine by Test strip"
        },
        "text": {
          "status": "generated",
          "div": "<div xmlns=\"http://www.w3.org/1999/xhtml\"><table class=\"hl7__eu__lab__report\"><tr><th>Test</th><th>21-Sep-2023</th><th>Reference&#xA0;Range</th><th>Unit</th></tr><tr><td>Hemoglobin [Presence] in Urine by Test strip</td></tr></table></div>"
        },
        "status": "final",
        "subject": {
          "reference": "urn:uuid:1f829b4c-1266-4188-9613-1ef5c1833c9a",
          "display": "Molly Jenkins"
        },
        "effectiveDateTime": "2023-09-21T14:42:11Z",
        "specimen": {
          "reference": "urn:uuid:8b99fb8e-f202-4e28-a006-f6766b499f61"
        }
      }
    },
    {
      "fullUrl": "urn:uuid:24a952b3-b289-41df-aa25-ea9ce02a8196",
      "resource": {
        "resourceType": "Observation",
        "id": "24a952b3-b289-41df-aa25-ea9ce02a8196",
        "meta": {
          "profile": [
            "http://hl7.eu/fhir/laboratory/StructureDefinition/Observation-resultslab-eu-lab"
          ]
        },
        "performer": [
          {
            "display": "The Central European Lab"
          }
        ],
        "category": [
          {
            "coding": [
              {
                "system": "http://terminology.hl7.org/CodeSystem/observation-category",
                "code": "laboratory"
              }
            ]
          }
        ],
        "code": {
          "coding": [
            {
              "code": "5799-2",
              "system": "http://loinc.org",
              "display": "Leukocyte esterase [Presence] in Urine by Test strip"
            }
          ],
          "text": "Leukocyte esterase [Presence] in Urine by Test strip"
        },
        "text": {
          "status": "generated",
          "div": "<div xmlns=\"http://www.w3.org/1999/xhtml\"><table class=\"hl7__eu__lab__report\"><tr><th>Test</th><th>21-Sep-2023</th><th>Reference&#xA0;Range</th><th>Unit</th></tr><tr><td>Leukocyte esterase [Presence] in Urine by Test strip</td></tr></table></div>"
        },
        "status": "final",
        "subject": {
          "reference": "urn:uuid:1f829b4c-1266-4188-9613-1ef5c1833c9a",
          "display": "Molly Jenkins"
        },
        "effectiveDateTime": "2023-09-21T14:42:11Z",
        "specimen": {
          "reference": "urn:uuid:8b99fb8e-f202-4e28-a006-f6766b499f61"
        }
      }
    },
    {
      "fullUrl": "urn:uuid:b79a1211-87b8-4477-a446-dc4b7d467559",
      "resource": {
        "resourceType": "Observation",
        "id": "b79a1211-87b8-4477-a446-dc4b7d467559",
        "meta": {
          "profile": [
            "http://hl7.eu/fhir/laboratory/StructureDefinition/Observation-resultslab-eu-lab"
          ]
        },
        "performer": [
          {
            "display": "The Central European Lab"
          }
        ],
        "category": [
          {
            "coding": [
              {
                "system": "http://terminology.hl7.org/CodeSystem/observation-category",
                "code": "laboratory"
              }
            ]
          }
        ],
        "code": {
          "coding": [
            {
              "code": "4548-4",
              "system": "http://loinc.org",
              "display": "Hemoglobin A1c/Hemoglobin.total in Blood"
            }
          ],
          "text": "Hemoglobin A1c/Hemoglobin.total in Blood"
        },
        "valueQuantity": {
          "system": "http://unitsofmeasure.org",
          "value": 3.2,
          "unit": "%",
          "code": "%"
        },
        "referenceRange": [
          {
            "low": {
              "value": 4,
              "code": "%",
              "system": "http://unitsofmeasure.org"
            }
          },
          {
            "high": {
              "value": 6,
              "code": "%",
              "system": "http://unitsofmeasure.org"
            }
          }
        ],
        "interpretation": [
          {
            "coding": [
              {
                "code": "L",
                "system": "http://terminology.hl7.org/CodeSystem/v3-ObservationInterpretation",
                "display": "Low"
              }
            ]
          }
        ],
        "text": {
          "status": "generated",
          "div": "<div xmlns=\"http://www.w3.org/1999/xhtml\"><table class=\"hl7__eu__lab__report\"><tr><th>Test</th><th>21-Sep-2023</th><th>Reference&#xA0;Range</th><th>Unit</th></tr><tr><td>Hemoglobin A1c/Hemoglobin.total in Blood</td><td>3.2</td><td>4 - 6</td><td>L</td><td>%</td></tr></table></div>"
        },
        "status": "final",
        "subject": {
          "reference": "urn:uuid:1f829b4c-1266-4188-9613-1ef5c1833c9a",
          "display": "Molly Jenkins"
        },
        "effectiveDateTime": "2023-09-21T14:42:11Z",
        "specimen": {
          "reference": "urn:uuid:f9b88077-fe02-4916-a004-362c58762c7c"
        }
      }
    },
    {
      "fullUrl": "urn:uuid:a2e12cfd-78c9-40ad-863d-c0a7e158b60c",
      "resource": {
        "resourceType": "Device",
        "id": "a2e12cfd-78c9-40ad-863d-c0a7e158b60c",
        "deviceName": [
          {
            "name": "SYNDERAI Synthetic Generator",
            "type": "manufacturer-name"
          }
        ],
        "version": [
          {
            "value": "5.0"
          }
        ],
        "text": {
          "status": "generated",
          "div": "<div xmlns=\"http://www.w3.org/1999/xhtml\">SYNDERAI Synthetic Generator v5.0</div>"
        },
        "status": "active\"",
        "distinctIdentifier": "synderai-generator-50",
        "manufacturer": "SYNDERAI Project"
      }
    },
    {
      "fullUrl": "urn:uuid:0ed2fb9e-4bdd-437d-89d9-09fded4a0c1a",
      "resource": {
        "resourceType": "Provenance",
        "id": "0ed2fb9e-4bdd-437d-89d9-09fded4a0c1a",
        "target": [
          {
            "reference": "Patient/1f829b4c-1266-4188-9613-1ef5c1833c9a"
          },
          {
            "reference": "Bundle/3290cd0d-040d-45ee-acc0-e3aaabb0e646"
          },
          {
            "reference": "Composition/dab63a4e-701d-4e44-9079-874030e9977a"
          },
          {
            "reference": "PractitionerRole/16b38ecd-d91a-4202-9519-df0d8a95d84a"
          },
          {
            "reference": "Practitioner/1729e7ed-7a71-4000-85c7-34a5cb5afbee"
          },
          {
            "reference": "PractitionerRole/0f4cdd0b-cbdd-48fe-9a06-648ed552a274"
          },
          {
            "reference": "Organization/de0d2c49-b81f-4bac-9f45-dcd8fe99a1ea"
          }
        ],
        "activity": {
          "text": "Synthetic Example Data Generation"
        },
        "policy": [
          "https://synderai.net/synderai-synthetic-data-policy"
        ],
        "agent": [
          {
            "type": {
              "text": "author"
            },
            "who": {
              "reference": "Device/a2e12cfd-78c9-40ad-863d-c0a7e158b60c"
            }
          }
        ],
        "reason": [
          {
            "text": "Interoperability Testing and Training (non-clinical use)"
          }
        ],
        "text": {
          "status": "generated",
          "div": "<div xmlns=\"http://www.w3.org/1999/xhtml\">Provenance for SYNDERAI Synthetic Example Data Resource</div>"
        },
        "recorded": "2023-09-21T16:42:11Z"
      }
    },
    {
      "fullUrl": "urn:uuid:16b38ecd-d91a-4202-9519-df0d8a95d84a",
      "resource": {
        "resourceType": "PractitionerRole",
        "id": "16b38ecd-d91a-4202-9519-df0d8a95d84a",
        "meta": {
          "profile": [
            "http://hl7.eu/fhir/base/StructureDefinition/practitionerRole-eu"
          ]
        },
        "text": {
          "status": "generated",
          "div": "<div xmlns=\"http://www.w3.org/1999/xhtml\">Laboratory Role Id: 16b38ecd-d91a-4202-9519-df0d8a95d84a</div>"
        },
        "practitioner": {
          "reference": "urn:uuid:1729e7ed-7a71-4000-85c7-34a5cb5afbee"
        }
      }
    },
    {
      "fullUrl": "urn:uuid:1729e7ed-7a71-4000-85c7-34a5cb5afbee",
      "resource": {
        "resourceType": "Practitioner",
        "id": "1729e7ed-7a71-4000-85c7-34a5cb5afbee",
        "meta": {
          "profile": [
            "http://hl7.eu/fhir/base/StructureDefinition/practitioner-eu"
          ]
        },
        "identifier": [
          {
            "assigner": {
              "display": "HL7 Europe"
            },
            "system": "urn:oid:2.16.840.1.113883.2.51.999",
            "value": "b317587f-f3ea-48eb-a76a-4ac1b1eca4a4"
          }
        ],
        "name": [
          {
            "prefix": [
              "dr"
            ],
            "given": [
              "Ex"
            ],
            "family": "Ample"
          }
        ],
        "address": [
          {
            "line": [
              "Laboratoire Central Europenne",
              "Boulevard du Jardin Botanique 32"
            ],
            "postalCode": "1000",
            "city": "Brussels",
            "country": "Belgium"
          }
        ],
        "text": {
          "status": "generated",
          "div": "<div xmlns=\"http://www.w3.org/1999/xhtml\">Laboratory: Laboratoire Central Europenne, 1000 Brussels, Belgium</div>"
        }
      }
    }
  ],
  "type": "document",
  "timestamp": "2023-09-21T16:42:11Z"
}
