{
  "resourceType": "Bundle",
  "id": "5a4ea498-e170-4bdc-8509-a784808ccf8e",
  "meta": {
    "profile": [
      "http://hl7.eu/fhir/laboratory/StructureDefinition/Bundle-eu-lab"
    ]
  },
  "identifier": {
    "assigner": {
      "display": "HL7 Europe"
    },
    "system": "urn:oid:2.16.840.1.113883.2.51.999",
    "value": "1ffb554f-9e11-4bdc-8676-04040f93bfc2"
  },
  "entry": [
    {
      "fullUrl": "urn:uuid:d0aed849-8a3e-43a4-9b8d-ac6e2047c802",
      "resource": {
        "resourceType": "Composition",
        "id": "d0aed849-8a3e-43a4-9b8d-ac6e2047c802",
        "meta": {
          "profile": [
            "http://hl7.eu/fhir/laboratory/StructureDefinition/Composition-eu-lab"
          ]
        },
        "identifier": {
          "assigner": {
            "display": "HL7 Europe"
          },
          "system": "urn:oid:2.16.840.1.113883.2.51.999",
          "value": "18cd3c54-0439-448a-85b1-dec554e8440a"
        },
        "author": [
          {
            "reference": "urn:uuid:bb515026-b361-4141-a867-7098509cc883"
          }
        ],
        "category": [
          {
            "coding": [
              {
                "code": "26436-6",
                "system": "http://loinc.org",
                "display": "Laboratory studies (set)"
              }
            ]
          }
        ],
        "type": {
          "coding": [
            {
              "code": "11502-2",
              "system": "http://loinc.org",
              "display": "Laboratory report"
            }
          ],
          "text": "Laboratory Report"
        },
        "section": [
          {
            "code": {
              "coding": [
                {
                  "code": "26436-6",
                  "system": "http://loinc.org",
                  "display": "Laboratory studies (set)"
                }
              ],
              "text": "Laboratory studies"
            },
            "section": [
              {
                "code": {
                  "coding": [
                    {
                      "code": "$18719-5",
                      "system": "http://loinc.org",
                      "display": "Chemistry studies (set)"
                    }
                  ],
                  "text": "Chemistry"
                },
                "entry": [
                  {
                    "reference": "urn:uuid:25aa878d-88f9-4324-a402-760ea46e2f98"
                  },
                  {
                    "reference": "urn:uuid:74ec7937-f729-4374-9761-e92a4ea23b20"
                  },
                  {
                    "reference": "urn:uuid:daaf7d5a-73d1-4baf-bfda-ae3a2460970b"
                  },
                  {
                    "reference": "urn:uuid:3b0df896-fbab-40ff-b46b-2b57f2cb9d58"
                  },
                  {
                    "reference": "urn:uuid:2e841738-0016-46f6-bf15-e7a9f974e4a9"
                  },
                  {
                    "reference": "urn:uuid:b3b31380-9af2-42be-8cd0-02e87acc1028"
                  },
                  {
                    "reference": "urn:uuid:70068eb5-87da-4643-9a45-a87e5aff08cd"
                  },
                  {
                    "reference": "urn:uuid:f675359d-95fc-4809-b030-c04ad6b88526"
                  },
                  {
                    "reference": "urn:uuid:65b9c875-1d68-4ca8-bfb4-2ca940d2028f"
                  },
                  {
                    "reference": "urn:uuid:924c317b-fdd8-4a0b-bc24-d1f2f84462c6"
                  },
                  {
                    "reference": "urn:uuid:b67f8686-36ce-466f-a714-9b5e6cd05b99"
                  },
                  {
                    "reference": "urn:uuid:ba03b05a-fd00-48b4-95fb-e07b814894a3"
                  },
                  {
                    "reference": "urn:uuid:a1856c5b-381f-434c-b754-7a842805ec2e"
                  },
                  {
                    "reference": "urn:uuid:8bc8ed5e-44e9-4217-8590-b3a233417092"
                  },
                  {
                    "reference": "urn:uuid:0f185cbe-a380-4963-9001-5192f799cc22"
                  },
                  {
                    "reference": "urn:uuid:6485de02-b217-404f-804b-851e3ef1ef4a"
                  },
                  {
                    "reference": "urn:uuid:fdb6ad09-d5f1-40d5-9f5a-c8b1ae16eea5"
                  },
                  {
                    "reference": "urn:uuid:ab1ba8ef-f8d8-4dc9-8374-fcbe81e70f9e"
                  }
                ],
                "text": {
                  "status": "generated",
                  "div": "<div xmlns=\"http://www.w3.org/1999/xhtml\"><h3>Chemistry</h3><table class=\"hl7__eu__lab__report\"><thead><tr><th>Test</th><th>15-FEB-2019</th><th>Reference&#xA0;Range</th><th>Unit</th></tr></thead><tbody><tr><td>Glucose [Mass/volume] in Serum or Plasma</td><td>78.1</td><td>70 - 140</td><td>mg/dL</td></tr><tr><td>Urea nitrogen [Mass/volume] in Serum or Plasma</td><td>10.6</td><td>7 - 20</td><td>mg/dL</td></tr><tr><td>Creatinine [Mass/volume] in Serum or Plasma</td><td><strong>2.1 H</strong></td><td>0.9 - 1.3</td><td>mg/dL</td></tr><tr><td>Calcium [Mass/volume] in Serum or Plasma</td><td>9.9</td><td>8.5 - 10.5</td><td>mg/dL</td></tr><tr><td>Sodium [Moles/volume] in Serum or Plasma</td><td>142.4</td><td>135 - 145</td><td>mmol/L</td></tr><tr><td>Potassium [Moles/volume] in Serum or Plasma</td><td>4.7</td><td>3.5 - 5.3</td><td>mmol/L</td></tr><tr><td>Chloride [Moles/volume] in Serum or Plasma</td><td><strong>107.4 H</strong></td><td>98 - 107</td><td>mmol/L</td></tr><tr><td>Carbon dioxide, total [Moles/volume] in Serum or Plasma</td><td>26.1</td><td>22 - 33</td><td>mmol/L</td></tr><tr><td>Ketones [Presence] in Urine by Test strip</td><td>Urine ketone test = ++</td><td></td><td></td></tr><tr><td>Hemoglobin A1c/Hemoglobin.total in Blood</td><td><strong>3.2 L</strong></td><td>4.3 - 6</td><td>%</td></tr><tr><td>Glucose [Mass/volume] in Blood</td><td>78.1</td><td>70 - 140</td><td>mg/dL</td></tr><tr><td>Urea nitrogen [Mass/volume] in Blood</td><td>10.6</td><td>7 - 20</td><td>mg/dL</td></tr><tr><td>Creatinine [Mass/volume] in Blood</td><td><strong>4.8 H</strong></td><td>0.9 - 1.3</td><td>mg/dL</td></tr><tr><td>Calcium [Mass/volume] in Blood</td><td>9.9</td><td>8.5 - 10.5</td><td>mg/dL</td></tr><tr><td>Sodium [Moles/volume] in Blood</td><td>142.4</td><td>135 - 145</td><td>mmol/L</td></tr><tr><td>Potassium [Moles/volume] in Blood</td><td>4.7</td><td>3.5 - 5.1</td><td>mmol/L</td></tr><tr><td>Chloride [Moles/volume] in Blood</td><td>107.4</td><td>98 - 108</td><td>mmol/L</td></tr><tr><td>Carbon dioxide, total [Moles/volume] in Blood</td><td>26.1</td><td>22 - 29</td><td>mmol/L</td></tr></tbody></table></div>"
                },
                "title": "Chemistry"
              },
              {
                "code": {
                  "coding": [
                    {
                      "code": "$18729-4",
                      "system": "http://loinc.org",
                      "display": "Urinalysis studies (set)"
                    }
                  ],
                  "text": "Urinalysis"
                },
                "entry": [
                  {
                    "reference": "urn:uuid:c4ae4956-dd53-4d4a-96f1-caa824c48ee1"
                  },
                  {
                    "reference": "urn:uuid:af5ef395-14a0-4c77-a86e-4f8da78d3325"
                  },
                  {
                    "reference": "urn:uuid:afda4320-7785-4d2b-bbfb-0c544fa982c0"
                  },
                  {
                    "reference": "urn:uuid:4fbab98e-965f-477f-84da-a7869a570f82"
                  },
                  {
                    "reference": "urn:uuid:5dd335ca-4ea7-4703-aa60-1999cd9d84f9"
                  },
                  {
                    "reference": "urn:uuid:98cd4981-73aa-4010-b507-2d871940b119"
                  },
                  {
                    "reference": "urn:uuid:0a5e6a10-9017-47f8-9717-8ae05f6bac66"
                  },
                  {
                    "reference": "urn:uuid:92c6b900-0982-4d14-a3f0-3eaa05e163ce"
                  },
                  {
                    "reference": "urn:uuid:822ffaff-1d41-4aaa-a137-99ad40a02912"
                  },
                  {
                    "reference": "urn:uuid:677becab-9af5-4deb-8a63-adfc387003b1"
                  },
                  {
                    "reference": "urn:uuid:65a85649-958f-421a-8c2a-83965b9f9a1d"
                  },
                  {
                    "reference": "urn:uuid:b5486138-20f5-4ae8-a19e-6a35ac820c47"
                  }
                ],
                "text": {
                  "status": "generated",
                  "div": "<div xmlns=\"http://www.w3.org/1999/xhtml\"><h3>Urinalysis</h3><table class=\"hl7__eu__lab__report\"><thead><tr><th>Test</th><th>15-FEB-2019</th><th>Reference&#xA0;Range</th><th>Unit</th></tr></thead><tbody><tr><td>Glucose [Mass/volume] in Urine by Test strip</td><td><strong>2.2 H</strong></td><td>0 - 0.8</td><td>mg/dL</td></tr><tr><td>Glucose [Presence] in Urine by Test strip</td><td>++</td><td></td><td></td></tr><tr><td>Bilirubin.total [Mass/volume] in Urine by Test strip</td><td>0.2</td><td>0 - 1.9</td><td>mg/dL</td></tr><tr><td>Bilirubin.total [Presence] in Urine by Test strip</td><td>Finding of bilirubin in urine</td><td></td><td></td></tr><tr><td>Ketones [Mass/volume] in Urine by Test strip</td><td><strong>10.5 H</strong></td><td>0 - 3</td><td>mg/dL</td></tr><tr><td>Specific gravity of Urine by Test strip</td><td><strong>1.0 L</strong></td><td>1.01 - 1.03</td><td>{nominal}</td></tr><tr><td>pH of Urine by Test strip</td><td>6.7</td><td>4.5 - 7.5</td><td>pH</td></tr><tr><td>Protein [Mass/volume] in Urine by Test strip</td><td><strong>399.5 H</strong></td><td>0 - 149</td><td>mg/dL</td></tr><tr><td>Protein [Presence] in Urine by Test strip</td><td>Urine protein test = ++</td><td></td><td></td></tr><tr><td>Nitrite [Presence] in Urine by Test strip</td><td>Urine nitrite negative</td><td></td><td></td></tr><tr><td>Hemoglobin [Presence] in Urine by Test strip</td><td>Urine blood test = negative</td><td></td><td></td></tr><tr><td>Leukocyte esterase [Presence] in Urine by Test strip</td><td>Urine leukocyte test negative</td><td></td><td></td></tr></tbody></table></div>"
                },
                "title": "Urinalysis"
              },
              {
                "code": {
                  "coding": [
                    {
                      "code": "$LP7846-1",
                      "system": "http://loinc.org",
                      "display": "Specimen information"
                    }
                  ],
                  "text": "Specimen information"
                },
                "entry": [
                  {
                    "reference": "urn:uuid:6e6fdb41-e4d3-4642-81b8-eeae5005a91a"
                  },
                  {
                    "reference": "urn:uuid:35fdb607-a3c0-4c3d-8a91-f218a1b6c8dc"
                  },
                  {
                    "reference": "urn:uuid:ece7a3e6-0204-4afd-a7f3-063e9d69eee0"
                  },
                  {
                    "reference": "urn:uuid:f7985e98-dda6-4c9d-90da-5b4f23d0d184"
                  }
                ],
                "text": {
                  "status": "generated",
                  "div": "<div xmlns=\"http://www.w3.org/1999/xhtml\"><h3>Specimen information</h3><table class=\"hl7__eu__lab__report\"><thead><tr><th>Test</th><th>15-FEB-2019</th><th>Specimen</th><th></th></tr></thead><tbody><tr><td>Appearance of Urine</td><td>Cloudy urine</td><td>Urine</td><td></td></tr><tr><td>Odor of Urine</td><td>Urine smell ammoniacal</td><td>Urine</td><td></td></tr><tr><td>Clarity of Urine</td><td>Translucent</td><td>Urine</td><td></td></tr><tr><td>Color of Urine</td><td>Brown color</td><td>Urine</td><td></td></tr></tbody></table></div>"
                },
                "title": "Specimen information"
              }
            ],
            "title": "Laboratory Report"
          },
          {
            "text": {
              "status": "generated",
              "div": "<div xmlns=\"http://www.w3.org/1999/xhtml\"><h3>Annotation</h3><table class=\"hl7__eu__lab__report\"><tr><th>Conclusion and Recommendations based on this report and previous findings known to us</th></tr><tr><td>The patient shows significant renal impairment (elevated creatinine), proteinuria, glucosuria, and ketonuria, with low urine specific gravity and abnormal urine appearance, suggesting possible acute or chronic kidney disease with impaired concentrating ability. Low HbA1c with glucosuria and ketonuria may indicate recent-onset or poorly controlled diabetes or another metabolic disturbance. Urine findings do not suggest infection. Further clinical correlation and nephrology/endocrinology evaluation are recommended.</td></tr></table></div>"
            },
            "code": {
              "coding": [
                {
                  "system": "http://loinc.org",
                  "code": "48767-8",
                  "display": "Annotation comment"
                }
              ]
            },
            "title": "Annotation comment"
          }
        ],
        "status": "final",
        "subject": {
          "reference": "urn:uuid:74cc3694-47b1-4231-9e3c-fa6ed97bc370",
          "display": "Victor Lagarde"
        },
        "date": "2019-02-15T05:48:18Z",
        "title": "Laboratory Report",
        "confidentiality": "N"
      }
    },
    {
      "fullUrl": "urn:uuid:75a8d62e-3552-4bc1-a274-b2f7c1eab792",
      "resource": {
        "resourceType": "DiagnosticReport",
        "id": "75a8d62e-3552-4bc1-a274-b2f7c1eab792",
        "meta": {
          "profile": [
            "http://hl7.eu/fhir/laboratory/StructureDefinition/DiagnosticReport-eu-lab"
          ]
        },
        "identifier": [
          {
            "assigner": {
              "display": "HL7 Europe"
            },
            "system": "urn:oid:2.16.840.1.113883.2.51.999",
            "value": "3e5f8f1d-478a-4150-84ca-5f6d5929a405"
          }
        ],
        "extension": [
          {
            "url": "http://hl7.org/fhir/5.0/StructureDefinition/extension-DiagnosticReport.composition",
            "valueReference": {
              "reference": "urn:uuid:18cd3c54-0439-448a-85b1-dec554e8440a"
            }
          }
        ],
        "category": [
          {
            "coding": [
              {
                "code": "26436-6",
                "system": "http://loinc.org",
                "display": "Laboratory studies (set)"
              }
            ]
          }
        ],
        "specimen": [
          {
            "reference": "urn:uuid:707478f8-a0a1-49cf-ba25-4ce51f23e908"
          },
          {
            "reference": "urn:uuid:8208999d-8d36-4678-beea-983185d8b7c8"
          },
          {
            "reference": "urn:uuid:65dc90d6-7c25-4319-a2c8-3b1be9fb7ddc"
          }
        ],
        "result": [
          {
            "reference": "urn:uuid:25aa878d-88f9-4324-a402-760ea46e2f98"
          },
          {
            "reference": "urn:uuid:74ec7937-f729-4374-9761-e92a4ea23b20"
          },
          {
            "reference": "urn:uuid:daaf7d5a-73d1-4baf-bfda-ae3a2460970b"
          },
          {
            "reference": "urn:uuid:3b0df896-fbab-40ff-b46b-2b57f2cb9d58"
          },
          {
            "reference": "urn:uuid:2e841738-0016-46f6-bf15-e7a9f974e4a9"
          },
          {
            "reference": "urn:uuid:b3b31380-9af2-42be-8cd0-02e87acc1028"
          },
          {
            "reference": "urn:uuid:70068eb5-87da-4643-9a45-a87e5aff08cd"
          },
          {
            "reference": "urn:uuid:f675359d-95fc-4809-b030-c04ad6b88526"
          },
          {
            "reference": "urn:uuid:6e6fdb41-e4d3-4642-81b8-eeae5005a91a"
          },
          {
            "reference": "urn:uuid:35fdb607-a3c0-4c3d-8a91-f218a1b6c8dc"
          },
          {
            "reference": "urn:uuid:ece7a3e6-0204-4afd-a7f3-063e9d69eee0"
          },
          {
            "reference": "urn:uuid:f7985e98-dda6-4c9d-90da-5b4f23d0d184"
          },
          {
            "reference": "urn:uuid:c4ae4956-dd53-4d4a-96f1-caa824c48ee1"
          },
          {
            "reference": "urn:uuid:af5ef395-14a0-4c77-a86e-4f8da78d3325"
          },
          {
            "reference": "urn:uuid:afda4320-7785-4d2b-bbfb-0c544fa982c0"
          },
          {
            "reference": "urn:uuid:4fbab98e-965f-477f-84da-a7869a570f82"
          },
          {
            "reference": "urn:uuid:5dd335ca-4ea7-4703-aa60-1999cd9d84f9"
          },
          {
            "reference": "urn:uuid:65b9c875-1d68-4ca8-bfb4-2ca940d2028f"
          },
          {
            "reference": "urn:uuid:98cd4981-73aa-4010-b507-2d871940b119"
          },
          {
            "reference": "urn:uuid:0a5e6a10-9017-47f8-9717-8ae05f6bac66"
          },
          {
            "reference": "urn:uuid:92c6b900-0982-4d14-a3f0-3eaa05e163ce"
          },
          {
            "reference": "urn:uuid:822ffaff-1d41-4aaa-a137-99ad40a02912"
          },
          {
            "reference": "urn:uuid:677becab-9af5-4deb-8a63-adfc387003b1"
          },
          {
            "reference": "urn:uuid:65a85649-958f-421a-8c2a-83965b9f9a1d"
          },
          {
            "reference": "urn:uuid:b5486138-20f5-4ae8-a19e-6a35ac820c47"
          },
          {
            "reference": "urn:uuid:924c317b-fdd8-4a0b-bc24-d1f2f84462c6"
          },
          {
            "reference": "urn:uuid:b67f8686-36ce-466f-a714-9b5e6cd05b99"
          },
          {
            "reference": "urn:uuid:ba03b05a-fd00-48b4-95fb-e07b814894a3"
          },
          {
            "reference": "urn:uuid:a1856c5b-381f-434c-b754-7a842805ec2e"
          },
          {
            "reference": "urn:uuid:8bc8ed5e-44e9-4217-8590-b3a233417092"
          },
          {
            "reference": "urn:uuid:0f185cbe-a380-4963-9001-5192f799cc22"
          },
          {
            "reference": "urn:uuid:6485de02-b217-404f-804b-851e3ef1ef4a"
          },
          {
            "reference": "urn:uuid:fdb6ad09-d5f1-40d5-9f5a-c8b1ae16eea5"
          },
          {
            "reference": "urn:uuid:ab1ba8ef-f8d8-4dc9-8374-fcbe81e70f9e"
          }
        ],
        "status": "registered",
        "code": {
          "coding": [
            {
              "code": "11502-2",
              "system": "http://loinc.org",
              "display": "Laboratory report"
            }
          ]
        },
        "subject": {
          "reference": "urn:uuid:74cc3694-47b1-4231-9e3c-fa6ed97bc370",
          "display": "Victor Lagarde"
        }
      }
    },
    {
      "fullUrl": "urn:uuid:74cc3694-47b1-4231-9e3c-fa6ed97bc370",
      "resource": {
        "resourceType": "Patient",
        "id": "74cc3694-47b1-4231-9e3c-fa6ed97bc370",
        "meta": {
          "security": [
            {
              "system": "http://terminology.hl7.org/CodeSystem/v3-ActReason",
              "code": "HTEST"
            },
            {
              "system": "http://terminology.hl7.org/CodeSystem/v3-ActReason",
              "code": "TRAIN"
            }
          ],
          "tag": [
            {
              "system": "https://synderai.net/fhir/CodeSystem/tags",
              "code": "synthetic",
              "display": "SYNDERAI Synthetic data"
            }
          ],
          "profile": [
            "http://hl7.eu/fhir/base/StructureDefinition/patient-eu-core"
          ]
        },
        "identifier": [
          {
            "type": {
              "coding": [
                {
                  "code": "PT",
                  "system": "http://terminology.hl7.org/CodeSystem/v2-0203"
                }
              ]
            },
            "system": "http://ec.europa.eu/identifier/eci",
            "value": "9925-001801-9"
          },
          {
            "type": {
              "coding": [
                {
                  "code": "MR",
                  "system": "http://terminology.hl7.org/CodeSystem/v2-0203"
                }
              ]
            },
            "system": "http://local.setting.eu/identifier",
            "value": "22c2dfd0-ac57-8833-2532-848f180896a4"
          }
        ],
        "name": [
          {
            "family": "Lagarde"
          },
          {
            "given": [
              "Victor"
            ]
          },
          {
            "text": "Victor Lagarde"
          }
        ],
        "address": [
          {
            "line": [
              "avenue Robert"
            ],
            "use": "home",
            "type": "physical",
            "postalCode": "80300",
            "city": "Albert",
            "country": "France"
          }
        ],
        "telecom": [
          {
            "system": "phone",
            "value": "0177941801"
          }
        ],
        "extension": [
          {
            "url": "http://hl7.org/fhir/StructureDefinition/patient-nationality",
            "valueCodeableConcept": {
              "coding": [
                {
                  "code": "FR",
                  "system": "http://hl7.org/fhir/ValueSet/country"
                }
              ]
            }
          }
        ],
        "text": {
          "status": "generated",
          "div": "<div xmlns=\"http://www.w3.org/1999/xhtml\"><table class=\"hl7__ips\"><tr><td>Victor Lagarde</td><td>male</td><td>31-Aug-1939</td></tr></table></div>"
        },
        "gender": "male",
        "birthDate": "1939-08-31"
      }
    },
    {
      "fullUrl": "urn:uuid:c45344e1-b3ba-4cdf-90ac-62f1efe9f5f5",
      "resource": {
        "resourceType": "ServiceRequest",
        "id": "c45344e1-b3ba-4cdf-90ac-62f1efe9f5f5",
        "meta": {
          "profile": [
            "http://hl7.eu/fhir/laboratory/StructureDefinition/ServiceRequest-eu-lab"
          ]
        },
        "identifier": [
          {
            "system": "http://example.org",
            "value": "19025191-a861-4200-86f8-be2572bd37af"
          }
        ],
        "specimen": [
          {
            "reference": "urn:uuid:707478f8-a0a1-49cf-ba25-4ce51f23e908"
          },
          {
            "reference": "urn:uuid:8208999d-8d36-4678-beea-983185d8b7c8"
          },
          {
            "reference": "urn:uuid:65dc90d6-7c25-4319-a2c8-3b1be9fb7ddc"
          }
        ],
        "reasonCode": [
          {
            "coding": [
              {
                "code": "433144002",
                "system": "http://snomed.info/sct",
                "display": "Chronic kidney disease stage 3"
              }
            ]
          },
          {
            "coding": [
              {
                "code": "157141000119108",
                "system": "http://snomed.info/sct",
                "display": "Proteinuria due to type 2 diabetes mellitus"
              }
            ]
          },
          {
            "coding": [
              {
                "code": "431856006",
                "system": "http://snomed.info/sct",
                "display": "Chronic kidney disease stage 2"
              }
            ]
          },
          {
            "coding": [
              {
                "code": "90781000119102",
                "system": "http://snomed.info/sct",
                "display": "Microalbuminuria due to type 2 diabetes mellitus"
              }
            ]
          },
          {
            "coding": [
              {
                "code": "127013003",
                "system": "http://snomed.info/sct",
                "display": "Disorder of kidney due to diabetes mellitus"
              }
            ]
          },
          {
            "coding": [
              {
                "code": "431855005",
                "system": "http://snomed.info/sct",
                "display": "Chronic kidney disease stage 1"
              }
            ]
          },
          {
            "coding": [
              {
                "code": "55822004",
                "system": "http://snomed.info/sct",
                "display": "Hyperlipidemia"
              }
            ]
          },
          {
            "coding": [
              {
                "code": "59621000",
                "system": "http://snomed.info/sct",
                "display": "Essential hypertension"
              }
            ]
          },
          {
            "coding": [
              {
                "code": "237602007",
                "system": "http://snomed.info/sct",
                "display": "Metabolic syndrome X"
              }
            ]
          },
          {
            "coding": [
              {
                "code": "414545008",
                "system": "http://snomed.info/sct",
                "display": "Ischemic heart disease"
              }
            ]
          },
          {
            "coding": [
              {
                "code": "40055000",
                "system": "http://snomed.info/sct",
                "display": "Chronic sinusitis"
              }
            ]
          },
          {
            "coding": [
              {
                "code": "15777000",
                "system": "http://snomed.info/sct",
                "display": "Prediabetes"
              }
            ]
          },
          {
            "coding": [
              {
                "code": "271737000",
                "system": "http://snomed.info/sct",
                "display": "Anemia"
              }
            ]
          }
        ],
        "status": "active",
        "intent": "order",
        "code": {
          "coding": [
            {
              "code": "108252007",
              "system": "http://snomed.info/sct",
              "display": "Laboratory procedure"
            }
          ]
        },
        "subject": {
          "reference": "urn:uuid:74cc3694-47b1-4231-9e3c-fa6ed97bc370",
          "display": "Victor Lagarde"
        },
        "requester": {
          "reference": "urn:uuid:b76442e5-39fa-4919-81f3-989952058acf"
        }
      }
    },
    {
      "fullUrl": "urn:uuid:b76442e5-39fa-4919-81f3-989952058acf",
      "resource": {
        "resourceType": "PractitionerRole",
        "id": "b76442e5-39fa-4919-81f3-989952058acf",
        "meta": {
          "profile": [
            "http://hl7.eu/fhir/base/StructureDefinition/practitionerRole-eu"
          ]
        },
        "text": {
          "status": "generated",
          "div": "<div xmlns=\"http://www.w3.org/1999/xhtml\">Provider Role Id: b76442e5-39fa-4919-81f3-989952058acf</div>"
        },
        "organization": {
          "reference": "urn:uuid:cbcad8a2-01c5-4e81-8c27-89f538976eb8"
        }
      }
    },
    {
      "fullUrl": "urn:uuid:cbcad8a2-01c5-4e81-8c27-89f538976eb8",
      "resource": {
        "resourceType": "Organization",
        "id": "cbcad8a2-01c5-4e81-8c27-89f538976eb8",
        "meta": {
          "profile": [
            "http://hl7.eu/fhir/base/StructureDefinition/organization-eu"
          ]
        },
        "identifier": [
          {
            "assigner": {
              "display": "HL7 Europe"
            },
            "system": "urn:oid:2.16.840.1.113883.2.51.999",
            "value": "c0d7e9f1-bdba-4301-9150-ce9d7abb408f"
          }
        ],
        "address": [
          {
            "city": "Auxerre",
            "postalCode": "89000",
            "country": "France"
          }
        ],
        "text": {
          "status": "generated",
          "div": "<div xmlns=\"http://www.w3.org/1999/xhtml\">Provider Organization: Thiriot Didier (Cardiologie)</div>"
        },
        "name": "Thiriot Didier (Cardiologie)"
      }
    },
    {
      "fullUrl": "urn:uuid:707478f8-a0a1-49cf-ba25-4ce51f23e908",
      "resource": {
        "resourceType": "Specimen",
        "id": "707478f8-a0a1-49cf-ba25-4ce51f23e908",
        "meta": {
          "profile": [
            "http://hl7.eu/fhir/laboratory/StructureDefinition/Specimen-eu-lab"
          ]
        },
        "collection": {
          "collectedDateTime": "2019-02-15"
        },
        "text": {
          "status": "generated",
          "div": "<div xmlns=\"http://www.w3.org/1999/xhtml\"><table class=\"hl7__eu__lab__report\"><tr><th>Specimen</th><th>Collection Date</th></tr><tr><td>Acellular blood (serum or plasma) specimen</td><td><span class=\"nb\">15-Feb-2019</span></td></tr></table></div>"
        },
        "type": {
          "coding": [
            {
              "code": "122592007",
              "system": "http://snomed.info/sct",
              "display": "Acellular blood (serum or plasma) specimen"
            }
          ]
        }
      }
    },
    {
      "fullUrl": "urn:uuid:8208999d-8d36-4678-beea-983185d8b7c8",
      "resource": {
        "resourceType": "Specimen",
        "id": "8208999d-8d36-4678-beea-983185d8b7c8",
        "meta": {
          "profile": [
            "http://hl7.eu/fhir/laboratory/StructureDefinition/Specimen-eu-lab"
          ]
        },
        "collection": {
          "collectedDateTime": "2019-02-15"
        },
        "text": {
          "status": "generated",
          "div": "<div xmlns=\"http://www.w3.org/1999/xhtml\"><table class=\"hl7__eu__lab__report\"><tr><th>Specimen</th><th>Collection Date</th></tr><tr><td>Urine specimen</td><td><span class=\"nb\">15-Feb-2019</span></td></tr></table></div>"
        },
        "type": {
          "coding": [
            {
              "code": "122575003",
              "system": "http://snomed.info/sct",
              "display": "Urine specimen"
            }
          ]
        }
      }
    },
    {
      "fullUrl": "urn:uuid:65dc90d6-7c25-4319-a2c8-3b1be9fb7ddc",
      "resource": {
        "resourceType": "Specimen",
        "id": "65dc90d6-7c25-4319-a2c8-3b1be9fb7ddc",
        "meta": {
          "profile": [
            "http://hl7.eu/fhir/laboratory/StructureDefinition/Specimen-eu-lab"
          ]
        },
        "collection": {
          "collectedDateTime": "2019-02-15"
        },
        "text": {
          "status": "generated",
          "div": "<div xmlns=\"http://www.w3.org/1999/xhtml\"><table class=\"hl7__eu__lab__report\"><tr><th>Specimen</th><th>Collection Date</th></tr><tr><td>Whole blood specimen (specimen)</td><td><span class=\"nb\">15-Feb-2019</span></td></tr></table></div>"
        },
        "type": {
          "coding": [
            {
              "code": "258580003",
              "system": "http://snomed.info/sct",
              "display": "Whole blood specimen (specimen)"
            }
          ]
        }
      }
    },
    {
      "fullUrl": "urn:uuid:25aa878d-88f9-4324-a402-760ea46e2f98",
      "resource": {
        "resourceType": "Observation",
        "id": "25aa878d-88f9-4324-a402-760ea46e2f98",
        "meta": {
          "profile": [
            "http://hl7.eu/fhir/laboratory/StructureDefinition/Observation-resultslab-eu-lab"
          ]
        },
        "performer": [
          {
            "display": "The Central European Lab"
          }
        ],
        "category": [
          {
            "coding": [
              {
                "system": "http://terminology.hl7.org/CodeSystem/observation-category",
                "code": "laboratory"
              }
            ]
          }
        ],
        "code": {
          "coding": [
            {
              "code": "2345-7",
              "system": "http://loinc.org",
              "display": "Glucose [Mass/volume] in Serum or Plasma"
            }
          ],
          "text": "Glucose [Mass/volume] in Serum or Plasma"
        },
        "valueQuantity": {
          "system": "http://unitsofmeasure.org",
          "value": 78.1,
          "unit": "mg/dL",
          "code": "mg/dL"
        },
        "referenceRange": [
          {
            "low": {
              "value": 70,
              "code": "mg/dL",
              "system": "http://unitsofmeasure.org"
            }
          },
          {
            "high": {
              "value": 140,
              "code": "mg/dL",
              "system": "http://unitsofmeasure.org"
            }
          }
        ],
        "text": {
          "status": "generated",
          "div": "<div xmlns=\"http://www.w3.org/1999/xhtml\"><table class=\"hl7__eu__lab__report\"><tr><th>Test</th><th>15-Feb-2019</th><th>Reference&#xA0;Range</th><th>Unit</th></tr><tr><td>Glucose [Mass/volume] in Serum or Plasma</td><td>78.1</td><td>70 - 140</td><td></td><td>mg/dL</td></tr></table></div>"
        },
        "status": "final",
        "subject": {
          "reference": "urn:uuid:74cc3694-47b1-4231-9e3c-fa6ed97bc370",
          "display": "Victor Lagarde"
        },
        "effectiveDateTime": "2019-02-15T04:48:18Z",
        "specimen": {
          "reference": "urn:uuid:707478f8-a0a1-49cf-ba25-4ce51f23e908"
        }
      }
    },
    {
      "fullUrl": "urn:uuid:74ec7937-f729-4374-9761-e92a4ea23b20",
      "resource": {
        "resourceType": "Observation",
        "id": "74ec7937-f729-4374-9761-e92a4ea23b20",
        "meta": {
          "profile": [
            "http://hl7.eu/fhir/laboratory/StructureDefinition/Observation-resultslab-eu-lab"
          ]
        },
        "performer": [
          {
            "display": "The Central European Lab"
          }
        ],
        "category": [
          {
            "coding": [
              {
                "system": "http://terminology.hl7.org/CodeSystem/observation-category",
                "code": "laboratory"
              }
            ]
          }
        ],
        "code": {
          "coding": [
            {
              "code": "3094-0",
              "system": "http://loinc.org",
              "display": "Urea nitrogen [Mass/volume] in Serum or Plasma"
            }
          ],
          "text": "Urea nitrogen [Mass/volume] in Serum or Plasma"
        },
        "valueQuantity": {
          "system": "http://unitsofmeasure.org",
          "value": 10.6,
          "unit": "mg/dL",
          "code": "mg/dL"
        },
        "referenceRange": [
          {
            "low": {
              "value": 7,
              "code": "mg/dL",
              "system": "http://unitsofmeasure.org"
            }
          },
          {
            "high": {
              "value": 20,
              "code": "mg/dL",
              "system": "http://unitsofmeasure.org"
            }
          }
        ],
        "text": {
          "status": "generated",
          "div": "<div xmlns=\"http://www.w3.org/1999/xhtml\"><table class=\"hl7__eu__lab__report\"><tr><th>Test</th><th>15-Feb-2019</th><th>Reference&#xA0;Range</th><th>Unit</th></tr><tr><td>Urea nitrogen [Mass/volume] in Serum or Plasma</td><td>10.6</td><td>7 - 20</td><td></td><td>mg/dL</td></tr></table></div>"
        },
        "status": "final",
        "subject": {
          "reference": "urn:uuid:74cc3694-47b1-4231-9e3c-fa6ed97bc370",
          "display": "Victor Lagarde"
        },
        "effectiveDateTime": "2019-02-15T04:48:18Z",
        "specimen": {
          "reference": "urn:uuid:707478f8-a0a1-49cf-ba25-4ce51f23e908"
        }
      }
    },
    {
      "fullUrl": "urn:uuid:daaf7d5a-73d1-4baf-bfda-ae3a2460970b",
      "resource": {
        "resourceType": "Observation",
        "id": "daaf7d5a-73d1-4baf-bfda-ae3a2460970b",
        "meta": {
          "profile": [
            "http://hl7.eu/fhir/laboratory/StructureDefinition/Observation-resultslab-eu-lab"
          ]
        },
        "performer": [
          {
            "display": "The Central European Lab"
          }
        ],
        "category": [
          {
            "coding": [
              {
                "system": "http://terminology.hl7.org/CodeSystem/observation-category",
                "code": "laboratory"
              }
            ]
          }
        ],
        "code": {
          "coding": [
            {
              "code": "2160-0",
              "system": "http://loinc.org",
              "display": "Creatinine [Mass/volume] in Serum or Plasma"
            }
          ],
          "text": "Creatinine [Mass/volume] in Serum or Plasma"
        },
        "valueQuantity": {
          "system": "http://unitsofmeasure.org",
          "value": 2.1,
          "unit": "mg/dL",
          "code": "mg/dL"
        },
        "referenceRange": [
          {
            "low": {
              "value": 0.9,
              "code": "mg/dL",
              "system": "http://unitsofmeasure.org"
            }
          },
          {
            "high": {
              "value": 1.3,
              "code": "mg/dL",
              "system": "http://unitsofmeasure.org"
            }
          }
        ],
        "interpretation": [
          {
            "coding": [
              {
                "code": "H",
                "system": "http://terminology.hl7.org/CodeSystem/v3-ObservationInterpretation",
                "display": "High"
              }
            ]
          }
        ],
        "text": {
          "status": "generated",
          "div": "<div xmlns=\"http://www.w3.org/1999/xhtml\"><table class=\"hl7__eu__lab__report\"><tr><th>Test</th><th>15-Feb-2019</th><th>Reference&#xA0;Range</th><th>Unit</th></tr><tr><td>Creatinine [Mass/volume] in Serum or Plasma</td><td>2.1</td><td>0.9 - 1.3</td><td>H</td><td>mg/dL</td></tr></table></div>"
        },
        "status": "final",
        "subject": {
          "reference": "urn:uuid:74cc3694-47b1-4231-9e3c-fa6ed97bc370",
          "display": "Victor Lagarde"
        },
        "effectiveDateTime": "2019-02-15T04:48:18Z",
        "specimen": {
          "reference": "urn:uuid:707478f8-a0a1-49cf-ba25-4ce51f23e908"
        }
      }
    },
    {
      "fullUrl": "urn:uuid:3b0df896-fbab-40ff-b46b-2b57f2cb9d58",
      "resource": {
        "resourceType": "Observation",
        "id": "3b0df896-fbab-40ff-b46b-2b57f2cb9d58",
        "meta": {
          "profile": [
            "http://hl7.eu/fhir/laboratory/StructureDefinition/Observation-resultslab-eu-lab"
          ]
        },
        "performer": [
          {
            "display": "The Central European Lab"
          }
        ],
        "category": [
          {
            "coding": [
              {
                "system": "http://terminology.hl7.org/CodeSystem/observation-category",
                "code": "laboratory"
              }
            ]
          }
        ],
        "code": {
          "coding": [
            {
              "code": "17861-6",
              "system": "http://loinc.org",
              "display": "Calcium [Mass/volume] in Serum or Plasma"
            }
          ],
          "text": "Calcium [Mass/volume] in Serum or Plasma"
        },
        "valueQuantity": {
          "system": "http://unitsofmeasure.org",
          "value": 9.9,
          "unit": "mg/dL",
          "code": "mg/dL"
        },
        "referenceRange": [
          {
            "low": {
              "value": 8.5,
              "code": "mg/dL",
              "system": "http://unitsofmeasure.org"
            }
          },
          {
            "high": {
              "value": 10.5,
              "code": "mg/dL",
              "system": "http://unitsofmeasure.org"
            }
          }
        ],
        "text": {
          "status": "generated",
          "div": "<div xmlns=\"http://www.w3.org/1999/xhtml\"><table class=\"hl7__eu__lab__report\"><tr><th>Test</th><th>15-Feb-2019</th><th>Reference&#xA0;Range</th><th>Unit</th></tr><tr><td>Calcium [Mass/volume] in Serum or Plasma</td><td>9.9</td><td>8.5 - 10.5</td><td></td><td>mg/dL</td></tr></table></div>"
        },
        "status": "final",
        "subject": {
          "reference": "urn:uuid:74cc3694-47b1-4231-9e3c-fa6ed97bc370",
          "display": "Victor Lagarde"
        },
        "effectiveDateTime": "2019-02-15T04:48:18Z",
        "specimen": {
          "reference": "urn:uuid:707478f8-a0a1-49cf-ba25-4ce51f23e908"
        }
      }
    },
    {
      "fullUrl": "urn:uuid:2e841738-0016-46f6-bf15-e7a9f974e4a9",
      "resource": {
        "resourceType": "Observation",
        "id": "2e841738-0016-46f6-bf15-e7a9f974e4a9",
        "meta": {
          "profile": [
            "http://hl7.eu/fhir/laboratory/StructureDefinition/Observation-resultslab-eu-lab"
          ]
        },
        "performer": [
          {
            "display": "The Central European Lab"
          }
        ],
        "category": [
          {
            "coding": [
              {
                "system": "http://terminology.hl7.org/CodeSystem/observation-category",
                "code": "laboratory"
              }
            ]
          }
        ],
        "code": {
          "coding": [
            {
              "code": "2951-2",
              "system": "http://loinc.org",
              "display": "Sodium [Moles/volume] in Serum or Plasma"
            }
          ],
          "text": "Sodium [Moles/volume] in Serum or Plasma"
        },
        "valueQuantity": {
          "system": "http://unitsofmeasure.org",
          "value": 142.4,
          "unit": "mmol/L",
          "code": "mmol/L"
        },
        "referenceRange": [
          {
            "low": {
              "value": 135,
              "code": "mmol/L",
              "system": "http://unitsofmeasure.org"
            }
          },
          {
            "high": {
              "value": 145,
              "code": "mmol/L",
              "system": "http://unitsofmeasure.org"
            }
          }
        ],
        "text": {
          "status": "generated",
          "div": "<div xmlns=\"http://www.w3.org/1999/xhtml\"><table class=\"hl7__eu__lab__report\"><tr><th>Test</th><th>15-Feb-2019</th><th>Reference&#xA0;Range</th><th>Unit</th></tr><tr><td>Sodium [Moles/volume] in Serum or Plasma</td><td>142.4</td><td>135 - 145</td><td></td><td>mmol/L</td></tr></table></div>"
        },
        "status": "final",
        "subject": {
          "reference": "urn:uuid:74cc3694-47b1-4231-9e3c-fa6ed97bc370",
          "display": "Victor Lagarde"
        },
        "effectiveDateTime": "2019-02-15T04:48:18Z",
        "specimen": {
          "reference": "urn:uuid:707478f8-a0a1-49cf-ba25-4ce51f23e908"
        }
      }
    },
    {
      "fullUrl": "urn:uuid:b3b31380-9af2-42be-8cd0-02e87acc1028",
      "resource": {
        "resourceType": "Observation",
        "id": "b3b31380-9af2-42be-8cd0-02e87acc1028",
        "meta": {
          "profile": [
            "http://hl7.eu/fhir/laboratory/StructureDefinition/Observation-resultslab-eu-lab"
          ]
        },
        "performer": [
          {
            "display": "The Central European Lab"
          }
        ],
        "category": [
          {
            "coding": [
              {
                "system": "http://terminology.hl7.org/CodeSystem/observation-category",
                "code": "laboratory"
              }
            ]
          }
        ],
        "code": {
          "coding": [
            {
              "code": "2823-3",
              "system": "http://loinc.org",
              "display": "Potassium [Moles/volume] in Serum or Plasma"
            }
          ],
          "text": "Potassium [Moles/volume] in Serum or Plasma"
        },
        "valueQuantity": {
          "system": "http://unitsofmeasure.org",
          "value": 4.7,
          "unit": "mmol/L",
          "code": "mmol/L"
        },
        "referenceRange": [
          {
            "low": {
              "value": 3.5,
              "code": "mmol/L",
              "system": "http://unitsofmeasure.org"
            }
          },
          {
            "high": {
              "value": 5.3,
              "code": "mmol/L",
              "system": "http://unitsofmeasure.org"
            }
          }
        ],
        "text": {
          "status": "generated",
          "div": "<div xmlns=\"http://www.w3.org/1999/xhtml\"><table class=\"hl7__eu__lab__report\"><tr><th>Test</th><th>15-Feb-2019</th><th>Reference&#xA0;Range</th><th>Unit</th></tr><tr><td>Potassium [Moles/volume] in Serum or Plasma</td><td>4.7</td><td>3.5 - 5.3</td><td></td><td>mmol/L</td></tr></table></div>"
        },
        "status": "final",
        "subject": {
          "reference": "urn:uuid:74cc3694-47b1-4231-9e3c-fa6ed97bc370",
          "display": "Victor Lagarde"
        },
        "effectiveDateTime": "2019-02-15T04:48:18Z",
        "specimen": {
          "reference": "urn:uuid:707478f8-a0a1-49cf-ba25-4ce51f23e908"
        }
      }
    },
    {
      "fullUrl": "urn:uuid:70068eb5-87da-4643-9a45-a87e5aff08cd",
      "resource": {
        "resourceType": "Observation",
        "id": "70068eb5-87da-4643-9a45-a87e5aff08cd",
        "meta": {
          "profile": [
            "http://hl7.eu/fhir/laboratory/StructureDefinition/Observation-resultslab-eu-lab"
          ]
        },
        "performer": [
          {
            "display": "The Central European Lab"
          }
        ],
        "category": [
          {
            "coding": [
              {
                "system": "http://terminology.hl7.org/CodeSystem/observation-category",
                "code": "laboratory"
              }
            ]
          }
        ],
        "code": {
          "coding": [
            {
              "code": "2075-0",
              "system": "http://loinc.org",
              "display": "Chloride [Moles/volume] in Serum or Plasma"
            }
          ],
          "text": "Chloride [Moles/volume] in Serum or Plasma"
        },
        "valueQuantity": {
          "system": "http://unitsofmeasure.org",
          "value": 107.4,
          "unit": "mmol/L",
          "code": "mmol/L"
        },
        "referenceRange": [
          {
            "low": {
              "value": 98,
              "code": "mmol/L",
              "system": "http://unitsofmeasure.org"
            }
          },
          {
            "high": {
              "value": 107,
              "code": "mmol/L",
              "system": "http://unitsofmeasure.org"
            }
          }
        ],
        "interpretation": [
          {
            "coding": [
              {
                "code": "H",
                "system": "http://terminology.hl7.org/CodeSystem/v3-ObservationInterpretation",
                "display": "High"
              }
            ]
          }
        ],
        "text": {
          "status": "generated",
          "div": "<div xmlns=\"http://www.w3.org/1999/xhtml\"><table class=\"hl7__eu__lab__report\"><tr><th>Test</th><th>15-Feb-2019</th><th>Reference&#xA0;Range</th><th>Unit</th></tr><tr><td>Chloride [Moles/volume] in Serum or Plasma</td><td>107.4</td><td>98 - 107</td><td>H</td><td>mmol/L</td></tr></table></div>"
        },
        "status": "final",
        "subject": {
          "reference": "urn:uuid:74cc3694-47b1-4231-9e3c-fa6ed97bc370",
          "display": "Victor Lagarde"
        },
        "effectiveDateTime": "2019-02-15T04:48:18Z",
        "specimen": {
          "reference": "urn:uuid:707478f8-a0a1-49cf-ba25-4ce51f23e908"
        }
      }
    },
    {
      "fullUrl": "urn:uuid:f675359d-95fc-4809-b030-c04ad6b88526",
      "resource": {
        "resourceType": "Observation",
        "id": "f675359d-95fc-4809-b030-c04ad6b88526",
        "meta": {
          "profile": [
            "http://hl7.eu/fhir/laboratory/StructureDefinition/Observation-resultslab-eu-lab"
          ]
        },
        "performer": [
          {
            "display": "The Central European Lab"
          }
        ],
        "category": [
          {
            "coding": [
              {
                "system": "http://terminology.hl7.org/CodeSystem/observation-category",
                "code": "laboratory"
              }
            ]
          }
        ],
        "code": {
          "coding": [
            {
              "code": "2028-9",
              "system": "http://loinc.org",
              "display": "Carbon dioxide, total [Moles/volume] in Serum or Plasma"
            }
          ],
          "text": "Carbon dioxide, total [Moles/volume] in Serum or Plasma"
        },
        "valueQuantity": {
          "system": "http://unitsofmeasure.org",
          "value": 26.1,
          "unit": "mmol/L",
          "code": "mmol/L"
        },
        "referenceRange": [
          {
            "low": {
              "value": 22,
              "code": "mmol/L",
              "system": "http://unitsofmeasure.org"
            }
          },
          {
            "high": {
              "value": 33,
              "code": "mmol/L",
              "system": "http://unitsofmeasure.org"
            }
          }
        ],
        "text": {
          "status": "generated",
          "div": "<div xmlns=\"http://www.w3.org/1999/xhtml\"><table class=\"hl7__eu__lab__report\"><tr><th>Test</th><th>15-Feb-2019</th><th>Reference&#xA0;Range</th><th>Unit</th></tr><tr><td>Carbon dioxide, total [Moles/volume] in Serum or Plasma</td><td>26.1</td><td>22 - 33</td><td></td><td>mmol/L</td></tr></table></div>"
        },
        "status": "final",
        "subject": {
          "reference": "urn:uuid:74cc3694-47b1-4231-9e3c-fa6ed97bc370",
          "display": "Victor Lagarde"
        },
        "effectiveDateTime": "2019-02-15T04:48:18Z",
        "specimen": {
          "reference": "urn:uuid:707478f8-a0a1-49cf-ba25-4ce51f23e908"
        }
      }
    },
    {
      "fullUrl": "urn:uuid:6e6fdb41-e4d3-4642-81b8-eeae5005a91a",
      "resource": {
        "resourceType": "Observation",
        "id": "6e6fdb41-e4d3-4642-81b8-eeae5005a91a",
        "meta": {
          "profile": [
            "http://hl7.eu/fhir/laboratory/StructureDefinition/Observation-resultslab-eu-lab"
          ]
        },
        "performer": [
          {
            "display": "The Central European Lab"
          }
        ],
        "category": [
          {
            "coding": [
              {
                "system": "http://terminology.hl7.org/CodeSystem/observation-category",
                "code": "laboratory"
              }
            ]
          }
        ],
        "code": {
          "coding": [
            {
              "code": "5767-9",
              "system": "http://loinc.org",
              "display": "Appearance of Urine"
            }
          ],
          "text": "Appearance of Urine"
        },
        "text": {
          "status": "generated",
          "div": "<div xmlns=\"http://www.w3.org/1999/xhtml\"><table class=\"hl7__eu__lab__report\"><tr><th>Test</th><th>15-Feb-2019</th><th>Reference&#xA0;Range</th><th>Unit</th></tr><tr><td>Appearance of Urine</td></tr></table></div>"
        },
        "status": "final",
        "subject": {
          "reference": "urn:uuid:74cc3694-47b1-4231-9e3c-fa6ed97bc370",
          "display": "Victor Lagarde"
        },
        "effectiveDateTime": "2019-02-15T04:48:18Z",
        "specimen": {
          "reference": "urn:uuid:8208999d-8d36-4678-beea-983185d8b7c8"
        }
      }
    },
    {
      "fullUrl": "urn:uuid:35fdb607-a3c0-4c3d-8a91-f218a1b6c8dc",
      "resource": {
        "resourceType": "Observation",
        "id": "35fdb607-a3c0-4c3d-8a91-f218a1b6c8dc",
        "meta": {
          "profile": [
            "http://hl7.eu/fhir/laboratory/StructureDefinition/Observation-resultslab-eu-lab"
          ]
        },
        "performer": [
          {
            "display": "The Central European Lab"
          }
        ],
        "category": [
          {
            "coding": [
              {
                "system": "http://terminology.hl7.org/CodeSystem/observation-category",
                "code": "laboratory"
              }
            ]
          }
        ],
        "code": {
          "coding": [
            {
              "code": "34533-0",
              "system": "http://loinc.org",
              "display": "Odor of Urine"
            }
          ],
          "text": "Odor of Urine"
        },
        "text": {
          "status": "generated",
          "div": "<div xmlns=\"http://www.w3.org/1999/xhtml\"><table class=\"hl7__eu__lab__report\"><tr><th>Test</th><th>15-Feb-2019</th><th>Reference&#xA0;Range</th><th>Unit</th></tr><tr><td>Odor of Urine</td></tr></table></div>"
        },
        "status": "final",
        "subject": {
          "reference": "urn:uuid:74cc3694-47b1-4231-9e3c-fa6ed97bc370",
          "display": "Victor Lagarde"
        },
        "effectiveDateTime": "2019-02-15T04:48:18Z",
        "specimen": {
          "reference": "urn:uuid:8208999d-8d36-4678-beea-983185d8b7c8"
        }
      }
    },
    {
      "fullUrl": "urn:uuid:ece7a3e6-0204-4afd-a7f3-063e9d69eee0",
      "resource": {
        "resourceType": "Observation",
        "id": "ece7a3e6-0204-4afd-a7f3-063e9d69eee0",
        "meta": {
          "profile": [
            "http://hl7.eu/fhir/laboratory/StructureDefinition/Observation-resultslab-eu-lab"
          ]
        },
        "performer": [
          {
            "display": "The Central European Lab"
          }
        ],
        "category": [
          {
            "coding": [
              {
                "system": "http://terminology.hl7.org/CodeSystem/observation-category",
                "code": "laboratory"
              }
            ]
          }
        ],
        "code": {
          "coding": [
            {
              "code": "32167-9",
              "system": "http://loinc.org",
              "display": "Clarity of Urine"
            }
          ],
          "text": "Clarity of Urine"
        },
        "text": {
          "status": "generated",
          "div": "<div xmlns=\"http://www.w3.org/1999/xhtml\"><table class=\"hl7__eu__lab__report\"><tr><th>Test</th><th>15-Feb-2019</th><th>Reference&#xA0;Range</th><th>Unit</th></tr><tr><td>Clarity of Urine</td></tr></table></div>"
        },
        "status": "final",
        "subject": {
          "reference": "urn:uuid:74cc3694-47b1-4231-9e3c-fa6ed97bc370",
          "display": "Victor Lagarde"
        },
        "effectiveDateTime": "2019-02-15T04:48:18Z",
        "specimen": {
          "reference": "urn:uuid:8208999d-8d36-4678-beea-983185d8b7c8"
        }
      }
    },
    {
      "fullUrl": "urn:uuid:f7985e98-dda6-4c9d-90da-5b4f23d0d184",
      "resource": {
        "resourceType": "Observation",
        "id": "f7985e98-dda6-4c9d-90da-5b4f23d0d184",
        "meta": {
          "profile": [
            "http://hl7.eu/fhir/laboratory/StructureDefinition/Observation-resultslab-eu-lab"
          ]
        },
        "performer": [
          {
            "display": "The Central European Lab"
          }
        ],
        "category": [
          {
            "coding": [
              {
                "system": "http://terminology.hl7.org/CodeSystem/observation-category",
                "code": "laboratory"
              }
            ]
          }
        ],
        "code": {
          "coding": [
            {
              "code": "5778-6",
              "system": "http://loinc.org",
              "display": "Color of Urine"
            }
          ],
          "text": "Color of Urine"
        },
        "text": {
          "status": "generated",
          "div": "<div xmlns=\"http://www.w3.org/1999/xhtml\"><table class=\"hl7__eu__lab__report\"><tr><th>Test</th><th>15-Feb-2019</th><th>Reference&#xA0;Range</th><th>Unit</th></tr><tr><td>Color of Urine</td></tr></table></div>"
        },
        "status": "final",
        "subject": {
          "reference": "urn:uuid:74cc3694-47b1-4231-9e3c-fa6ed97bc370",
          "display": "Victor Lagarde"
        },
        "effectiveDateTime": "2019-02-15T04:48:18Z",
        "specimen": {
          "reference": "urn:uuid:8208999d-8d36-4678-beea-983185d8b7c8"
        }
      }
    },
    {
      "fullUrl": "urn:uuid:c4ae4956-dd53-4d4a-96f1-caa824c48ee1",
      "resource": {
        "resourceType": "Observation",
        "id": "c4ae4956-dd53-4d4a-96f1-caa824c48ee1",
        "meta": {
          "profile": [
            "http://hl7.eu/fhir/laboratory/StructureDefinition/Observation-resultslab-eu-lab"
          ]
        },
        "performer": [
          {
            "display": "The Central European Lab"
          }
        ],
        "category": [
          {
            "coding": [
              {
                "system": "http://terminology.hl7.org/CodeSystem/observation-category",
                "code": "laboratory"
              }
            ]
          }
        ],
        "code": {
          "coding": [
            {
              "code": "5792-7",
              "system": "http://loinc.org",
              "display": "Glucose [Mass/volume] in Urine by Test strip"
            }
          ],
          "text": "Glucose [Mass/volume] in Urine by Test strip"
        },
        "valueQuantity": {
          "system": "http://unitsofmeasure.org",
          "value": 2.2,
          "unit": "mg/dL",
          "code": "mg/dL"
        },
        "referenceRange": [
          {
            "low": {
              "value": 0,
              "code": "mg/dL",
              "system": "http://unitsofmeasure.org"
            }
          },
          {
            "high": {
              "value": 0.8,
              "code": "mg/dL",
              "system": "http://unitsofmeasure.org"
            }
          }
        ],
        "interpretation": [
          {
            "coding": [
              {
                "code": "H",
                "system": "http://terminology.hl7.org/CodeSystem/v3-ObservationInterpretation",
                "display": "High"
              }
            ]
          }
        ],
        "text": {
          "status": "generated",
          "div": "<div xmlns=\"http://www.w3.org/1999/xhtml\"><table class=\"hl7__eu__lab__report\"><tr><th>Test</th><th>15-Feb-2019</th><th>Reference&#xA0;Range</th><th>Unit</th></tr><tr><td>Glucose [Mass/volume] in Urine by Test strip</td><td>2.2</td><td>0 - 0.8</td><td>H</td><td>mg/dL</td></tr></table></div>"
        },
        "status": "final",
        "subject": {
          "reference": "urn:uuid:74cc3694-47b1-4231-9e3c-fa6ed97bc370",
          "display": "Victor Lagarde"
        },
        "effectiveDateTime": "2019-02-15T04:48:18Z",
        "specimen": {
          "reference": "urn:uuid:8208999d-8d36-4678-beea-983185d8b7c8"
        }
      }
    },
    {
      "fullUrl": "urn:uuid:af5ef395-14a0-4c77-a86e-4f8da78d3325",
      "resource": {
        "resourceType": "Observation",
        "id": "af5ef395-14a0-4c77-a86e-4f8da78d3325",
        "meta": {
          "profile": [
            "http://hl7.eu/fhir/laboratory/StructureDefinition/Observation-resultslab-eu-lab"
          ]
        },
        "performer": [
          {
            "display": "The Central European Lab"
          }
        ],
        "category": [
          {
            "coding": [
              {
                "system": "http://terminology.hl7.org/CodeSystem/observation-category",
                "code": "laboratory"
              }
            ]
          }
        ],
        "code": {
          "coding": [
            {
              "code": "25428-4",
              "system": "http://loinc.org",
              "display": "Glucose [Presence] in Urine by Test strip"
            }
          ],
          "text": "Glucose [Presence] in Urine by Test strip"
        },
        "text": {
          "status": "generated",
          "div": "<div xmlns=\"http://www.w3.org/1999/xhtml\"><table class=\"hl7__eu__lab__report\"><tr><th>Test</th><th>15-Feb-2019</th><th>Reference&#xA0;Range</th><th>Unit</th></tr><tr><td>Glucose [Presence] in Urine by Test strip</td></tr></table></div>"
        },
        "status": "final",
        "subject": {
          "reference": "urn:uuid:74cc3694-47b1-4231-9e3c-fa6ed97bc370",
          "display": "Victor Lagarde"
        },
        "effectiveDateTime": "2019-02-15T04:48:18Z",
        "specimen": {
          "reference": "urn:uuid:8208999d-8d36-4678-beea-983185d8b7c8"
        }
      }
    },
    {
      "fullUrl": "urn:uuid:afda4320-7785-4d2b-bbfb-0c544fa982c0",
      "resource": {
        "resourceType": "Observation",
        "id": "afda4320-7785-4d2b-bbfb-0c544fa982c0",
        "meta": {
          "profile": [
            "http://hl7.eu/fhir/laboratory/StructureDefinition/Observation-resultslab-eu-lab"
          ]
        },
        "performer": [
          {
            "display": "The Central European Lab"
          }
        ],
        "category": [
          {
            "coding": [
              {
                "system": "http://terminology.hl7.org/CodeSystem/observation-category",
                "code": "laboratory"
              }
            ]
          }
        ],
        "code": {
          "coding": [
            {
              "code": "20505-4",
              "system": "http://loinc.org",
              "display": "Bilirubin.total [Mass/volume] in Urine by Test strip"
            }
          ],
          "text": "Bilirubin.total [Mass/volume] in Urine by Test strip"
        },
        "valueQuantity": {
          "system": "http://unitsofmeasure.org",
          "value": 0.2,
          "unit": "mg/dL",
          "code": "mg/dL"
        },
        "referenceRange": [
          {
            "low": {
              "value": 0,
              "code": "mg/dL",
              "system": "http://unitsofmeasure.org"
            }
          },
          {
            "high": {
              "value": 1.9,
              "code": "mg/dL",
              "system": "http://unitsofmeasure.org"
            }
          }
        ],
        "text": {
          "status": "generated",
          "div": "<div xmlns=\"http://www.w3.org/1999/xhtml\"><table class=\"hl7__eu__lab__report\"><tr><th>Test</th><th>15-Feb-2019</th><th>Reference&#xA0;Range</th><th>Unit</th></tr><tr><td>Bilirubin.total [Mass/volume] in Urine by Test strip</td><td>0.2</td><td>0 - 1.9</td><td></td><td>mg/dL</td></tr></table></div>"
        },
        "status": "final",
        "subject": {
          "reference": "urn:uuid:74cc3694-47b1-4231-9e3c-fa6ed97bc370",
          "display": "Victor Lagarde"
        },
        "effectiveDateTime": "2019-02-15T04:48:18Z",
        "specimen": {
          "reference": "urn:uuid:8208999d-8d36-4678-beea-983185d8b7c8"
        }
      }
    },
    {
      "fullUrl": "urn:uuid:4fbab98e-965f-477f-84da-a7869a570f82",
      "resource": {
        "resourceType": "Observation",
        "id": "4fbab98e-965f-477f-84da-a7869a570f82",
        "meta": {
          "profile": [
            "http://hl7.eu/fhir/laboratory/StructureDefinition/Observation-resultslab-eu-lab"
          ]
        },
        "performer": [
          {
            "display": "The Central European Lab"
          }
        ],
        "category": [
          {
            "coding": [
              {
                "system": "http://terminology.hl7.org/CodeSystem/observation-category",
                "code": "laboratory"
              }
            ]
          }
        ],
        "code": {
          "coding": [
            {
              "code": "5770-3",
              "system": "http://loinc.org",
              "display": "Bilirubin.total [Presence] in Urine by Test strip"
            }
          ],
          "text": "Bilirubin.total [Presence] in Urine by Test strip"
        },
        "text": {
          "status": "generated",
          "div": "<div xmlns=\"http://www.w3.org/1999/xhtml\"><table class=\"hl7__eu__lab__report\"><tr><th>Test</th><th>15-Feb-2019</th><th>Reference&#xA0;Range</th><th>Unit</th></tr><tr><td>Bilirubin.total [Presence] in Urine by Test strip</td></tr></table></div>"
        },
        "status": "final",
        "subject": {
          "reference": "urn:uuid:74cc3694-47b1-4231-9e3c-fa6ed97bc370",
          "display": "Victor Lagarde"
        },
        "effectiveDateTime": "2019-02-15T04:48:18Z",
        "specimen": {
          "reference": "urn:uuid:8208999d-8d36-4678-beea-983185d8b7c8"
        }
      }
    },
    {
      "fullUrl": "urn:uuid:5dd335ca-4ea7-4703-aa60-1999cd9d84f9",
      "resource": {
        "resourceType": "Observation",
        "id": "5dd335ca-4ea7-4703-aa60-1999cd9d84f9",
        "meta": {
          "profile": [
            "http://hl7.eu/fhir/laboratory/StructureDefinition/Observation-resultslab-eu-lab"
          ]
        },
        "performer": [
          {
            "display": "The Central European Lab"
          }
        ],
        "category": [
          {
            "coding": [
              {
                "system": "http://terminology.hl7.org/CodeSystem/observation-category",
                "code": "laboratory"
              }
            ]
          }
        ],
        "code": {
          "coding": [
            {
              "code": "5797-6",
              "system": "http://loinc.org",
              "display": "Ketones [Mass/volume] in Urine by Test strip"
            }
          ],
          "text": "Ketones [Mass/volume] in Urine by Test strip"
        },
        "valueQuantity": {
          "system": "http://unitsofmeasure.org",
          "value": 10.5,
          "unit": "mg/dL",
          "code": "mg/dL"
        },
        "referenceRange": [
          {
            "low": {
              "value": 0,
              "code": "mg/dL",
              "system": "http://unitsofmeasure.org"
            }
          },
          {
            "high": {
              "value": 3,
              "code": "mg/dL",
              "system": "http://unitsofmeasure.org"
            }
          }
        ],
        "interpretation": [
          {
            "coding": [
              {
                "code": "H",
                "system": "http://terminology.hl7.org/CodeSystem/v3-ObservationInterpretation",
                "display": "High"
              }
            ]
          }
        ],
        "text": {
          "status": "generated",
          "div": "<div xmlns=\"http://www.w3.org/1999/xhtml\"><table class=\"hl7__eu__lab__report\"><tr><th>Test</th><th>15-Feb-2019</th><th>Reference&#xA0;Range</th><th>Unit</th></tr><tr><td>Ketones [Mass/volume] in Urine by Test strip</td><td>10.5</td><td>0 - 3</td><td>H</td><td>mg/dL</td></tr></table></div>"
        },
        "status": "final",
        "subject": {
          "reference": "urn:uuid:74cc3694-47b1-4231-9e3c-fa6ed97bc370",
          "display": "Victor Lagarde"
        },
        "effectiveDateTime": "2019-02-15T04:48:18Z",
        "specimen": {
          "reference": "urn:uuid:8208999d-8d36-4678-beea-983185d8b7c8"
        }
      }
    },
    {
      "fullUrl": "urn:uuid:65b9c875-1d68-4ca8-bfb4-2ca940d2028f",
      "resource": {
        "resourceType": "Observation",
        "id": "65b9c875-1d68-4ca8-bfb4-2ca940d2028f",
        "meta": {
          "profile": [
            "http://hl7.eu/fhir/laboratory/StructureDefinition/Observation-resultslab-eu-lab"
          ]
        },
        "performer": [
          {
            "display": "The Central European Lab"
          }
        ],
        "category": [
          {
            "coding": [
              {
                "system": "http://terminology.hl7.org/CodeSystem/observation-category",
                "code": "laboratory"
              }
            ]
          }
        ],
        "code": {
          "coding": [
            {
              "code": "2514-8",
              "system": "http://loinc.org",
              "display": "Ketones [Presence] in Urine by Test strip"
            }
          ],
          "text": "Ketones [Presence] in Urine by Test strip"
        },
        "text": {
          "status": "generated",
          "div": "<div xmlns=\"http://www.w3.org/1999/xhtml\"><table class=\"hl7__eu__lab__report\"><tr><th>Test</th><th>15-Feb-2019</th><th>Reference&#xA0;Range</th><th>Unit</th></tr><tr><td>Ketones [Presence] in Urine by Test strip</td></tr></table></div>"
        },
        "status": "final",
        "subject": {
          "reference": "urn:uuid:74cc3694-47b1-4231-9e3c-fa6ed97bc370",
          "display": "Victor Lagarde"
        },
        "effectiveDateTime": "2019-02-15T04:48:18Z",
        "specimen": {
          "reference": "urn:uuid:8208999d-8d36-4678-beea-983185d8b7c8"
        }
      }
    },
    {
      "fullUrl": "urn:uuid:98cd4981-73aa-4010-b507-2d871940b119",
      "resource": {
        "resourceType": "Observation",
        "id": "98cd4981-73aa-4010-b507-2d871940b119",
        "meta": {
          "profile": [
            "http://hl7.eu/fhir/laboratory/StructureDefinition/Observation-resultslab-eu-lab"
          ]
        },
        "performer": [
          {
            "display": "The Central European Lab"
          }
        ],
        "category": [
          {
            "coding": [
              {
                "system": "http://terminology.hl7.org/CodeSystem/observation-category",
                "code": "laboratory"
              }
            ]
          }
        ],
        "code": {
          "coding": [
            {
              "code": "5811-5",
              "system": "http://loinc.org",
              "display": "Specific gravity of Urine by Test strip"
            }
          ],
          "text": "Specific gravity of Urine by Test strip"
        },
        "valueQuantity": {
          "system": "http://unitsofmeasure.org",
          "value": 1,
          "unit": "{nominal}",
          "code": "{nominal}"
        },
        "referenceRange": [
          {
            "low": {
              "value": 1.01,
              "code": "g/mL",
              "system": "http://unitsofmeasure.org"
            }
          },
          {
            "high": {
              "value": 1.03,
              "code": "g/mL",
              "system": "http://unitsofmeasure.org"
            }
          }
        ],
        "interpretation": [
          {
            "coding": [
              {
                "code": "L",
                "system": "http://terminology.hl7.org/CodeSystem/v3-ObservationInterpretation",
                "display": "Low"
              }
            ]
          }
        ],
        "text": {
          "status": "generated",
          "div": "<div xmlns=\"http://www.w3.org/1999/xhtml\"><table class=\"hl7__eu__lab__report\"><tr><th>Test</th><th>15-Feb-2019</th><th>Reference&#xA0;Range</th><th>Unit</th></tr><tr><td>Specific gravity of Urine by Test strip</td><td>1.0</td><td>1.01 - 1.03</td><td>L</td><td>{nominal}</td></tr></table></div>"
        },
        "status": "final",
        "subject": {
          "reference": "urn:uuid:74cc3694-47b1-4231-9e3c-fa6ed97bc370",
          "display": "Victor Lagarde"
        },
        "effectiveDateTime": "2019-02-15T04:48:18Z",
        "specimen": {
          "reference": "urn:uuid:8208999d-8d36-4678-beea-983185d8b7c8"
        }
      }
    },
    {
      "fullUrl": "urn:uuid:0a5e6a10-9017-47f8-9717-8ae05f6bac66",
      "resource": {
        "resourceType": "Observation",
        "id": "0a5e6a10-9017-47f8-9717-8ae05f6bac66",
        "meta": {
          "profile": [
            "http://hl7.eu/fhir/laboratory/StructureDefinition/Observation-resultslab-eu-lab"
          ]
        },
        "performer": [
          {
            "display": "The Central European Lab"
          }
        ],
        "category": [
          {
            "coding": [
              {
                "system": "http://terminology.hl7.org/CodeSystem/observation-category",
                "code": "laboratory"
              }
            ]
          }
        ],
        "code": {
          "coding": [
            {
              "code": "5803-2",
              "system": "http://loinc.org",
              "display": "pH of Urine by Test strip"
            }
          ],
          "text": "pH of Urine by Test strip"
        },
        "valueQuantity": {
          "system": "http://unitsofmeasure.org",
          "value": 6.7,
          "unit": "pH",
          "code": "pH"
        },
        "referenceRange": [
          {
            "low": {
              "value": 4.5,
              "code": "pH",
              "system": "http://unitsofmeasure.org"
            }
          },
          {
            "high": {
              "value": 7.5,
              "code": "pH",
              "system": "http://unitsofmeasure.org"
            }
          }
        ],
        "text": {
          "status": "generated",
          "div": "<div xmlns=\"http://www.w3.org/1999/xhtml\"><table class=\"hl7__eu__lab__report\"><tr><th>Test</th><th>15-Feb-2019</th><th>Reference&#xA0;Range</th><th>Unit</th></tr><tr><td>pH of Urine by Test strip</td><td>6.7</td><td>4.5 - 7.5</td><td></td><td>pH</td></tr></table></div>"
        },
        "status": "final",
        "subject": {
          "reference": "urn:uuid:74cc3694-47b1-4231-9e3c-fa6ed97bc370",
          "display": "Victor Lagarde"
        },
        "effectiveDateTime": "2019-02-15T04:48:18Z",
        "specimen": {
          "reference": "urn:uuid:8208999d-8d36-4678-beea-983185d8b7c8"
        }
      }
    },
    {
      "fullUrl": "urn:uuid:92c6b900-0982-4d14-a3f0-3eaa05e163ce",
      "resource": {
        "resourceType": "Observation",
        "id": "92c6b900-0982-4d14-a3f0-3eaa05e163ce",
        "meta": {
          "profile": [
            "http://hl7.eu/fhir/laboratory/StructureDefinition/Observation-resultslab-eu-lab"
          ]
        },
        "performer": [
          {
            "display": "The Central European Lab"
          }
        ],
        "category": [
          {
            "coding": [
              {
                "system": "http://terminology.hl7.org/CodeSystem/observation-category",
                "code": "laboratory"
              }
            ]
          }
        ],
        "code": {
          "coding": [
            {
              "code": "5804-0",
              "system": "http://loinc.org",
              "display": "Protein [Mass/volume] in Urine by Test strip"
            }
          ],
          "text": "Protein [Mass/volume] in Urine by Test strip"
        },
        "valueQuantity": {
          "system": "http://unitsofmeasure.org",
          "value": 399.5,
          "unit": "mg/dL",
          "code": "mg/dL"
        },
        "referenceRange": [
          {
            "low": {
              "value": 0,
              "code": "mg/dL",
              "system": "http://unitsofmeasure.org"
            }
          },
          {
            "high": {
              "value": 149,
              "code": "mg/dL",
              "system": "http://unitsofmeasure.org"
            }
          }
        ],
        "interpretation": [
          {
            "coding": [
              {
                "code": "H",
                "system": "http://terminology.hl7.org/CodeSystem/v3-ObservationInterpretation",
                "display": "High"
              }
            ]
          }
        ],
        "text": {
          "status": "generated",
          "div": "<div xmlns=\"http://www.w3.org/1999/xhtml\"><table class=\"hl7__eu__lab__report\"><tr><th>Test</th><th>15-Feb-2019</th><th>Reference&#xA0;Range</th><th>Unit</th></tr><tr><td>Protein [Mass/volume] in Urine by Test strip</td><td>399.5</td><td>0 - 149</td><td>H</td><td>mg/dL</td></tr></table></div>"
        },
        "status": "final",
        "subject": {
          "reference": "urn:uuid:74cc3694-47b1-4231-9e3c-fa6ed97bc370",
          "display": "Victor Lagarde"
        },
        "effectiveDateTime": "2019-02-15T04:48:18Z",
        "specimen": {
          "reference": "urn:uuid:8208999d-8d36-4678-beea-983185d8b7c8"
        }
      }
    },
    {
      "fullUrl": "urn:uuid:822ffaff-1d41-4aaa-a137-99ad40a02912",
      "resource": {
        "resourceType": "Observation",
        "id": "822ffaff-1d41-4aaa-a137-99ad40a02912",
        "meta": {
          "profile": [
            "http://hl7.eu/fhir/laboratory/StructureDefinition/Observation-resultslab-eu-lab"
          ]
        },
        "performer": [
          {
            "display": "The Central European Lab"
          }
        ],
        "category": [
          {
            "coding": [
              {
                "system": "http://terminology.hl7.org/CodeSystem/observation-category",
                "code": "laboratory"
              }
            ]
          }
        ],
        "code": {
          "coding": [
            {
              "code": "20454-5",
              "system": "http://loinc.org",
              "display": "Protein [Presence] in Urine by Test strip"
            }
          ],
          "text": "Protein [Presence] in Urine by Test strip"
        },
        "text": {
          "status": "generated",
          "div": "<div xmlns=\"http://www.w3.org/1999/xhtml\"><table class=\"hl7__eu__lab__report\"><tr><th>Test</th><th>15-Feb-2019</th><th>Reference&#xA0;Range</th><th>Unit</th></tr><tr><td>Protein [Presence] in Urine by Test strip</td></tr></table></div>"
        },
        "status": "final",
        "subject": {
          "reference": "urn:uuid:74cc3694-47b1-4231-9e3c-fa6ed97bc370",
          "display": "Victor Lagarde"
        },
        "effectiveDateTime": "2019-02-15T04:48:18Z",
        "specimen": {
          "reference": "urn:uuid:8208999d-8d36-4678-beea-983185d8b7c8"
        }
      }
    },
    {
      "fullUrl": "urn:uuid:677becab-9af5-4deb-8a63-adfc387003b1",
      "resource": {
        "resourceType": "Observation",
        "id": "677becab-9af5-4deb-8a63-adfc387003b1",
        "meta": {
          "profile": [
            "http://hl7.eu/fhir/laboratory/StructureDefinition/Observation-resultslab-eu-lab"
          ]
        },
        "performer": [
          {
            "display": "The Central European Lab"
          }
        ],
        "category": [
          {
            "coding": [
              {
                "system": "http://terminology.hl7.org/CodeSystem/observation-category",
                "code": "laboratory"
              }
            ]
          }
        ],
        "code": {
          "coding": [
            {
              "code": "5802-4",
              "system": "http://loinc.org",
              "display": "Nitrite [Presence] in Urine by Test strip"
            }
          ],
          "text": "Nitrite [Presence] in Urine by Test strip"
        },
        "text": {
          "status": "generated",
          "div": "<div xmlns=\"http://www.w3.org/1999/xhtml\"><table class=\"hl7__eu__lab__report\"><tr><th>Test</th><th>15-Feb-2019</th><th>Reference&#xA0;Range</th><th>Unit</th></tr><tr><td>Nitrite [Presence] in Urine by Test strip</td></tr></table></div>"
        },
        "status": "final",
        "subject": {
          "reference": "urn:uuid:74cc3694-47b1-4231-9e3c-fa6ed97bc370",
          "display": "Victor Lagarde"
        },
        "effectiveDateTime": "2019-02-15T04:48:18Z",
        "specimen": {
          "reference": "urn:uuid:8208999d-8d36-4678-beea-983185d8b7c8"
        }
      }
    },
    {
      "fullUrl": "urn:uuid:65a85649-958f-421a-8c2a-83965b9f9a1d",
      "resource": {
        "resourceType": "Observation",
        "id": "65a85649-958f-421a-8c2a-83965b9f9a1d",
        "meta": {
          "profile": [
            "http://hl7.eu/fhir/laboratory/StructureDefinition/Observation-resultslab-eu-lab"
          ]
        },
        "performer": [
          {
            "display": "The Central European Lab"
          }
        ],
        "category": [
          {
            "coding": [
              {
                "system": "http://terminology.hl7.org/CodeSystem/observation-category",
                "code": "laboratory"
              }
            ]
          }
        ],
        "code": {
          "coding": [
            {
              "code": "5794-3",
              "system": "http://loinc.org",
              "display": "Hemoglobin [Presence] in Urine by Test strip"
            }
          ],
          "text": "Hemoglobin [Presence] in Urine by Test strip"
        },
        "text": {
          "status": "generated",
          "div": "<div xmlns=\"http://www.w3.org/1999/xhtml\"><table class=\"hl7__eu__lab__report\"><tr><th>Test</th><th>15-Feb-2019</th><th>Reference&#xA0;Range</th><th>Unit</th></tr><tr><td>Hemoglobin [Presence] in Urine by Test strip</td></tr></table></div>"
        },
        "status": "final",
        "subject": {
          "reference": "urn:uuid:74cc3694-47b1-4231-9e3c-fa6ed97bc370",
          "display": "Victor Lagarde"
        },
        "effectiveDateTime": "2019-02-15T04:48:18Z",
        "specimen": {
          "reference": "urn:uuid:8208999d-8d36-4678-beea-983185d8b7c8"
        }
      }
    },
    {
      "fullUrl": "urn:uuid:b5486138-20f5-4ae8-a19e-6a35ac820c47",
      "resource": {
        "resourceType": "Observation",
        "id": "b5486138-20f5-4ae8-a19e-6a35ac820c47",
        "meta": {
          "profile": [
            "http://hl7.eu/fhir/laboratory/StructureDefinition/Observation-resultslab-eu-lab"
          ]
        },
        "performer": [
          {
            "display": "The Central European Lab"
          }
        ],
        "category": [
          {
            "coding": [
              {
                "system": "http://terminology.hl7.org/CodeSystem/observation-category",
                "code": "laboratory"
              }
            ]
          }
        ],
        "code": {
          "coding": [
            {
              "code": "5799-2",
              "system": "http://loinc.org",
              "display": "Leukocyte esterase [Presence] in Urine by Test strip"
            }
          ],
          "text": "Leukocyte esterase [Presence] in Urine by Test strip"
        },
        "text": {
          "status": "generated",
          "div": "<div xmlns=\"http://www.w3.org/1999/xhtml\"><table class=\"hl7__eu__lab__report\"><tr><th>Test</th><th>15-Feb-2019</th><th>Reference&#xA0;Range</th><th>Unit</th></tr><tr><td>Leukocyte esterase [Presence] in Urine by Test strip</td></tr></table></div>"
        },
        "status": "final",
        "subject": {
          "reference": "urn:uuid:74cc3694-47b1-4231-9e3c-fa6ed97bc370",
          "display": "Victor Lagarde"
        },
        "effectiveDateTime": "2019-02-15T04:48:18Z",
        "specimen": {
          "reference": "urn:uuid:8208999d-8d36-4678-beea-983185d8b7c8"
        }
      }
    },
    {
      "fullUrl": "urn:uuid:924c317b-fdd8-4a0b-bc24-d1f2f84462c6",
      "resource": {
        "resourceType": "Observation",
        "id": "924c317b-fdd8-4a0b-bc24-d1f2f84462c6",
        "meta": {
          "profile": [
            "http://hl7.eu/fhir/laboratory/StructureDefinition/Observation-resultslab-eu-lab"
          ]
        },
        "performer": [
          {
            "display": "The Central European Lab"
          }
        ],
        "category": [
          {
            "coding": [
              {
                "system": "http://terminology.hl7.org/CodeSystem/observation-category",
                "code": "laboratory"
              }
            ]
          }
        ],
        "code": {
          "coding": [
            {
              "code": "4548-4",
              "system": "http://loinc.org",
              "display": "Hemoglobin A1c/Hemoglobin.total in Blood"
            }
          ],
          "text": "Hemoglobin A1c/Hemoglobin.total in Blood"
        },
        "valueQuantity": {
          "system": "http://unitsofmeasure.org",
          "value": 3.2,
          "unit": "%",
          "code": "%"
        },
        "referenceRange": [
          {
            "low": {
              "value": 4.3,
              "code": "%",
              "system": "http://unitsofmeasure.org"
            }
          },
          {
            "high": {
              "value": 6,
              "code": "%",
              "system": "http://unitsofmeasure.org"
            }
          }
        ],
        "interpretation": [
          {
            "coding": [
              {
                "code": "L",
                "system": "http://terminology.hl7.org/CodeSystem/v3-ObservationInterpretation",
                "display": "Low"
              }
            ]
          }
        ],
        "text": {
          "status": "generated",
          "div": "<div xmlns=\"http://www.w3.org/1999/xhtml\"><table class=\"hl7__eu__lab__report\"><tr><th>Test</th><th>15-Feb-2019</th><th>Reference&#xA0;Range</th><th>Unit</th></tr><tr><td>Hemoglobin A1c/Hemoglobin.total in Blood</td><td>3.2</td><td>4.3 - 6</td><td>L</td><td>%</td></tr></table></div>"
        },
        "status": "final",
        "subject": {
          "reference": "urn:uuid:74cc3694-47b1-4231-9e3c-fa6ed97bc370",
          "display": "Victor Lagarde"
        },
        "effectiveDateTime": "2019-02-15T04:48:18Z",
        "specimen": {
          "reference": "urn:uuid:65dc90d6-7c25-4319-a2c8-3b1be9fb7ddc"
        }
      }
    },
    {
      "fullUrl": "urn:uuid:b67f8686-36ce-466f-a714-9b5e6cd05b99",
      "resource": {
        "resourceType": "Observation",
        "id": "b67f8686-36ce-466f-a714-9b5e6cd05b99",
        "meta": {
          "profile": [
            "http://hl7.eu/fhir/laboratory/StructureDefinition/Observation-resultslab-eu-lab"
          ]
        },
        "performer": [
          {
            "display": "The Central European Lab"
          }
        ],
        "category": [
          {
            "coding": [
              {
                "system": "http://terminology.hl7.org/CodeSystem/observation-category",
                "code": "laboratory"
              }
            ]
          }
        ],
        "code": {
          "coding": [
            {
              "code": "2339-0",
              "system": "http://loinc.org",
              "display": "Glucose [Mass/volume] in Blood"
            }
          ],
          "text": "Glucose [Mass/volume] in Blood"
        },
        "valueQuantity": {
          "system": "http://unitsofmeasure.org",
          "value": 78.1,
          "unit": "mg/dL",
          "code": "mg/dL"
        },
        "referenceRange": [
          {
            "low": {
              "value": 70,
              "code": "mg/dL",
              "system": "http://unitsofmeasure.org"
            }
          },
          {
            "high": {
              "value": 140,
              "code": "mg/dL",
              "system": "http://unitsofmeasure.org"
            }
          }
        ],
        "text": {
          "status": "generated",
          "div": "<div xmlns=\"http://www.w3.org/1999/xhtml\"><table class=\"hl7__eu__lab__report\"><tr><th>Test</th><th>15-Feb-2019</th><th>Reference&#xA0;Range</th><th>Unit</th></tr><tr><td>Glucose [Mass/volume] in Blood</td><td>78.1</td><td>70 - 140</td><td></td><td>mg/dL</td></tr></table></div>"
        },
        "status": "final",
        "subject": {
          "reference": "urn:uuid:74cc3694-47b1-4231-9e3c-fa6ed97bc370",
          "display": "Victor Lagarde"
        },
        "effectiveDateTime": "2019-02-15T04:48:18Z",
        "specimen": {
          "reference": "urn:uuid:65dc90d6-7c25-4319-a2c8-3b1be9fb7ddc"
        }
      }
    },
    {
      "fullUrl": "urn:uuid:ba03b05a-fd00-48b4-95fb-e07b814894a3",
      "resource": {
        "resourceType": "Observation",
        "id": "ba03b05a-fd00-48b4-95fb-e07b814894a3",
        "meta": {
          "profile": [
            "http://hl7.eu/fhir/laboratory/StructureDefinition/Observation-resultslab-eu-lab"
          ]
        },
        "performer": [
          {
            "display": "The Central European Lab"
          }
        ],
        "category": [
          {
            "coding": [
              {
                "system": "http://terminology.hl7.org/CodeSystem/observation-category",
                "code": "laboratory"
              }
            ]
          }
        ],
        "code": {
          "coding": [
            {
              "code": "6299-2",
              "system": "http://loinc.org",
              "display": "Urea nitrogen [Mass/volume] in Blood"
            }
          ],
          "text": "Urea nitrogen [Mass/volume] in Blood"
        },
        "valueQuantity": {
          "system": "http://unitsofmeasure.org",
          "value": 10.6,
          "unit": "mg/dL",
          "code": "mg/dL"
        },
        "referenceRange": [
          {
            "low": {
              "value": 7,
              "code": "mg/dL",
              "system": "http://unitsofmeasure.org"
            }
          },
          {
            "high": {
              "value": 20,
              "code": "mg/dL",
              "system": "http://unitsofmeasure.org"
            }
          }
        ],
        "text": {
          "status": "generated",
          "div": "<div xmlns=\"http://www.w3.org/1999/xhtml\"><table class=\"hl7__eu__lab__report\"><tr><th>Test</th><th>15-Feb-2019</th><th>Reference&#xA0;Range</th><th>Unit</th></tr><tr><td>Urea nitrogen [Mass/volume] in Blood</td><td>10.6</td><td>7 - 20</td><td></td><td>mg/dL</td></tr></table></div>"
        },
        "status": "final",
        "subject": {
          "reference": "urn:uuid:74cc3694-47b1-4231-9e3c-fa6ed97bc370",
          "display": "Victor Lagarde"
        },
        "effectiveDateTime": "2019-02-15T04:48:18Z",
        "specimen": {
          "reference": "urn:uuid:65dc90d6-7c25-4319-a2c8-3b1be9fb7ddc"
        }
      }
    },
    {
      "fullUrl": "urn:uuid:a1856c5b-381f-434c-b754-7a842805ec2e",
      "resource": {
        "resourceType": "Observation",
        "id": "a1856c5b-381f-434c-b754-7a842805ec2e",
        "meta": {
          "profile": [
            "http://hl7.eu/fhir/laboratory/StructureDefinition/Observation-resultslab-eu-lab"
          ]
        },
        "performer": [
          {
            "display": "The Central European Lab"
          }
        ],
        "category": [
          {
            "coding": [
              {
                "system": "http://terminology.hl7.org/CodeSystem/observation-category",
                "code": "laboratory"
              }
            ]
          }
        ],
        "code": {
          "coding": [
            {
              "code": "38483-4",
              "system": "http://loinc.org",
              "display": "Creatinine [Mass/volume] in Blood"
            }
          ],
          "text": "Creatinine [Mass/volume] in Blood"
        },
        "valueQuantity": {
          "system": "http://unitsofmeasure.org",
          "value": 4.8,
          "unit": "mg/dL",
          "code": "mg/dL"
        },
        "referenceRange": [
          {
            "low": {
              "value": 0.9,
              "code": "mg/dL",
              "system": "http://unitsofmeasure.org"
            }
          },
          {
            "high": {
              "value": 1.3,
              "code": "mg/dL",
              "system": "http://unitsofmeasure.org"
            }
          }
        ],
        "interpretation": [
          {
            "coding": [
              {
                "code": "H",
                "system": "http://terminology.hl7.org/CodeSystem/v3-ObservationInterpretation",
                "display": "High"
              }
            ]
          }
        ],
        "text": {
          "status": "generated",
          "div": "<div xmlns=\"http://www.w3.org/1999/xhtml\"><table class=\"hl7__eu__lab__report\"><tr><th>Test</th><th>15-Feb-2019</th><th>Reference&#xA0;Range</th><th>Unit</th></tr><tr><td>Creatinine [Mass/volume] in Blood</td><td>4.8</td><td>0.9 - 1.3</td><td>H</td><td>mg/dL</td></tr></table></div>"
        },
        "status": "final",
        "subject": {
          "reference": "urn:uuid:74cc3694-47b1-4231-9e3c-fa6ed97bc370",
          "display": "Victor Lagarde"
        },
        "effectiveDateTime": "2019-02-15T04:48:18Z",
        "specimen": {
          "reference": "urn:uuid:65dc90d6-7c25-4319-a2c8-3b1be9fb7ddc"
        }
      }
    },
    {
      "fullUrl": "urn:uuid:8bc8ed5e-44e9-4217-8590-b3a233417092",
      "resource": {
        "resourceType": "Observation",
        "id": "8bc8ed5e-44e9-4217-8590-b3a233417092",
        "meta": {
          "profile": [
            "http://hl7.eu/fhir/laboratory/StructureDefinition/Observation-resultslab-eu-lab"
          ]
        },
        "performer": [
          {
            "display": "The Central European Lab"
          }
        ],
        "category": [
          {
            "coding": [
              {
                "system": "http://terminology.hl7.org/CodeSystem/observation-category",
                "code": "laboratory"
              }
            ]
          }
        ],
        "code": {
          "coding": [
            {
              "code": "49765-1",
              "system": "http://loinc.org",
              "display": "Calcium [Mass/volume] in Blood"
            }
          ],
          "text": "Calcium [Mass/volume] in Blood"
        },
        "valueQuantity": {
          "system": "http://unitsofmeasure.org",
          "value": 9.9,
          "unit": "mg/dL",
          "code": "mg/dL"
        },
        "referenceRange": [
          {
            "low": {
              "value": 8.5,
              "code": "mg/dL",
              "system": "http://unitsofmeasure.org"
            }
          },
          {
            "high": {
              "value": 10.5,
              "code": "mg/dL",
              "system": "http://unitsofmeasure.org"
            }
          }
        ],
        "text": {
          "status": "generated",
          "div": "<div xmlns=\"http://www.w3.org/1999/xhtml\"><table class=\"hl7__eu__lab__report\"><tr><th>Test</th><th>15-Feb-2019</th><th>Reference&#xA0;Range</th><th>Unit</th></tr><tr><td>Calcium [Mass/volume] in Blood</td><td>9.9</td><td>8.5 - 10.5</td><td></td><td>mg/dL</td></tr></table></div>"
        },
        "status": "final",
        "subject": {
          "reference": "urn:uuid:74cc3694-47b1-4231-9e3c-fa6ed97bc370",
          "display": "Victor Lagarde"
        },
        "effectiveDateTime": "2019-02-15T04:48:18Z",
        "specimen": {
          "reference": "urn:uuid:65dc90d6-7c25-4319-a2c8-3b1be9fb7ddc"
        }
      }
    },
    {
      "fullUrl": "urn:uuid:0f185cbe-a380-4963-9001-5192f799cc22",
      "resource": {
        "resourceType": "Observation",
        "id": "0f185cbe-a380-4963-9001-5192f799cc22",
        "meta": {
          "profile": [
            "http://hl7.eu/fhir/laboratory/StructureDefinition/Observation-resultslab-eu-lab"
          ]
        },
        "performer": [
          {
            "display": "The Central European Lab"
          }
        ],
        "category": [
          {
            "coding": [
              {
                "system": "http://terminology.hl7.org/CodeSystem/observation-category",
                "code": "laboratory"
              }
            ]
          }
        ],
        "code": {
          "coding": [
            {
              "code": "2947-0",
              "system": "http://loinc.org",
              "display": "Sodium [Moles/volume] in Blood"
            }
          ],
          "text": "Sodium [Moles/volume] in Blood"
        },
        "valueQuantity": {
          "system": "http://unitsofmeasure.org",
          "value": 142.4,
          "unit": "mmol/L",
          "code": "mmol/L"
        },
        "referenceRange": [
          {
            "low": {
              "value": 135,
              "code": "mmol/L",
              "system": "http://unitsofmeasure.org"
            }
          },
          {
            "high": {
              "value": 145,
              "code": "mmol/L",
              "system": "http://unitsofmeasure.org"
            }
          }
        ],
        "text": {
          "status": "generated",
          "div": "<div xmlns=\"http://www.w3.org/1999/xhtml\"><table class=\"hl7__eu__lab__report\"><tr><th>Test</th><th>15-Feb-2019</th><th>Reference&#xA0;Range</th><th>Unit</th></tr><tr><td>Sodium [Moles/volume] in Blood</td><td>142.4</td><td>135 - 145</td><td></td><td>mmol/L</td></tr></table></div>"
        },
        "status": "final",
        "subject": {
          "reference": "urn:uuid:74cc3694-47b1-4231-9e3c-fa6ed97bc370",
          "display": "Victor Lagarde"
        },
        "effectiveDateTime": "2019-02-15T04:48:18Z",
        "specimen": {
          "reference": "urn:uuid:65dc90d6-7c25-4319-a2c8-3b1be9fb7ddc"
        }
      }
    },
    {
      "fullUrl": "urn:uuid:6485de02-b217-404f-804b-851e3ef1ef4a",
      "resource": {
        "resourceType": "Observation",
        "id": "6485de02-b217-404f-804b-851e3ef1ef4a",
        "meta": {
          "profile": [
            "http://hl7.eu/fhir/laboratory/StructureDefinition/Observation-resultslab-eu-lab"
          ]
        },
        "performer": [
          {
            "display": "The Central European Lab"
          }
        ],
        "category": [
          {
            "coding": [
              {
                "system": "http://terminology.hl7.org/CodeSystem/observation-category",
                "code": "laboratory"
              }
            ]
          }
        ],
        "code": {
          "coding": [
            {
              "code": "6298-4",
              "system": "http://loinc.org",
              "display": "Potassium [Moles/volume] in Blood"
            }
          ],
          "text": "Potassium [Moles/volume] in Blood"
        },
        "valueQuantity": {
          "system": "http://unitsofmeasure.org",
          "value": 4.7,
          "unit": "mmol/L",
          "code": "mmol/L"
        },
        "referenceRange": [
          {
            "low": {
              "value": 3.5,
              "code": "mmol/L",
              "system": "http://unitsofmeasure.org"
            }
          },
          {
            "high": {
              "value": 5.1,
              "code": "mmol/L",
              "system": "http://unitsofmeasure.org"
            }
          }
        ],
        "text": {
          "status": "generated",
          "div": "<div xmlns=\"http://www.w3.org/1999/xhtml\"><table class=\"hl7__eu__lab__report\"><tr><th>Test</th><th>15-Feb-2019</th><th>Reference&#xA0;Range</th><th>Unit</th></tr><tr><td>Potassium [Moles/volume] in Blood</td><td>4.7</td><td>3.5 - 5.1</td><td></td><td>mmol/L</td></tr></table></div>"
        },
        "status": "final",
        "subject": {
          "reference": "urn:uuid:74cc3694-47b1-4231-9e3c-fa6ed97bc370",
          "display": "Victor Lagarde"
        },
        "effectiveDateTime": "2019-02-15T04:48:18Z",
        "specimen": {
          "reference": "urn:uuid:65dc90d6-7c25-4319-a2c8-3b1be9fb7ddc"
        }
      }
    },
    {
      "fullUrl": "urn:uuid:fdb6ad09-d5f1-40d5-9f5a-c8b1ae16eea5",
      "resource": {
        "resourceType": "Observation",
        "id": "fdb6ad09-d5f1-40d5-9f5a-c8b1ae16eea5",
        "meta": {
          "profile": [
            "http://hl7.eu/fhir/laboratory/StructureDefinition/Observation-resultslab-eu-lab"
          ]
        },
        "performer": [
          {
            "display": "The Central European Lab"
          }
        ],
        "category": [
          {
            "coding": [
              {
                "system": "http://terminology.hl7.org/CodeSystem/observation-category",
                "code": "laboratory"
              }
            ]
          }
        ],
        "code": {
          "coding": [
            {
              "code": "2069-3",
              "system": "http://loinc.org",
              "display": "Chloride [Moles/volume] in Blood"
            }
          ],
          "text": "Chloride [Moles/volume] in Blood"
        },
        "valueQuantity": {
          "system": "http://unitsofmeasure.org",
          "value": 107.4,
          "unit": "mmol/L",
          "code": "mmol/L"
        },
        "referenceRange": [
          {
            "low": {
              "value": 98,
              "code": "mmol/L",
              "system": "http://unitsofmeasure.org"
            }
          },
          {
            "high": {
              "value": 108,
              "code": "mmol/L",
              "system": "http://unitsofmeasure.org"
            }
          }
        ],
        "text": {
          "status": "generated",
          "div": "<div xmlns=\"http://www.w3.org/1999/xhtml\"><table class=\"hl7__eu__lab__report\"><tr><th>Test</th><th>15-Feb-2019</th><th>Reference&#xA0;Range</th><th>Unit</th></tr><tr><td>Chloride [Moles/volume] in Blood</td><td>107.4</td><td>98 - 108</td><td></td><td>mmol/L</td></tr></table></div>"
        },
        "status": "final",
        "subject": {
          "reference": "urn:uuid:74cc3694-47b1-4231-9e3c-fa6ed97bc370",
          "display": "Victor Lagarde"
        },
        "effectiveDateTime": "2019-02-15T04:48:18Z",
        "specimen": {
          "reference": "urn:uuid:65dc90d6-7c25-4319-a2c8-3b1be9fb7ddc"
        }
      }
    },
    {
      "fullUrl": "urn:uuid:ab1ba8ef-f8d8-4dc9-8374-fcbe81e70f9e",
      "resource": {
        "resourceType": "Observation",
        "id": "ab1ba8ef-f8d8-4dc9-8374-fcbe81e70f9e",
        "meta": {
          "profile": [
            "http://hl7.eu/fhir/laboratory/StructureDefinition/Observation-resultslab-eu-lab"
          ]
        },
        "performer": [
          {
            "display": "The Central European Lab"
          }
        ],
        "category": [
          {
            "coding": [
              {
                "system": "http://terminology.hl7.org/CodeSystem/observation-category",
                "code": "laboratory"
              }
            ]
          }
        ],
        "code": {
          "coding": [
            {
              "code": "20565-8",
              "system": "http://loinc.org",
              "display": "Carbon dioxide, total [Moles/volume] in Blood"
            }
          ],
          "text": "Carbon dioxide, total [Moles/volume] in Blood"
        },
        "valueQuantity": {
          "system": "http://unitsofmeasure.org",
          "value": 26.1,
          "unit": "mmol/L",
          "code": "mmol/L"
        },
        "referenceRange": [
          {
            "low": {
              "value": 22,
              "code": "mmol/L",
              "system": "http://unitsofmeasure.org"
            }
          },
          {
            "high": {
              "value": 29,
              "code": "mmol/L",
              "system": "http://unitsofmeasure.org"
            }
          }
        ],
        "text": {
          "status": "generated",
          "div": "<div xmlns=\"http://www.w3.org/1999/xhtml\"><table class=\"hl7__eu__lab__report\"><tr><th>Test</th><th>15-Feb-2019</th><th>Reference&#xA0;Range</th><th>Unit</th></tr><tr><td>Carbon dioxide, total [Moles/volume] in Blood</td><td>26.1</td><td>22 - 29</td><td></td><td>mmol/L</td></tr></table></div>"
        },
        "status": "final",
        "subject": {
          "reference": "urn:uuid:74cc3694-47b1-4231-9e3c-fa6ed97bc370",
          "display": "Victor Lagarde"
        },
        "effectiveDateTime": "2019-02-15T04:48:18Z",
        "specimen": {
          "reference": "urn:uuid:65dc90d6-7c25-4319-a2c8-3b1be9fb7ddc"
        }
      }
    },
    {
      "fullUrl": "urn:uuid:a694f021-e5ea-4d61-8055-d2af34494077",
      "resource": {
        "resourceType": "Device",
        "id": "a694f021-e5ea-4d61-8055-d2af34494077",
        "deviceName": [
          {
            "name": "SYNDERAI Synthetic Generator",
            "type": "manufacturer-name"
          }
        ],
        "version": [
          {
            "value": "5.0"
          }
        ],
        "text": {
          "status": "generated",
          "div": "<div xmlns=\"http://www.w3.org/1999/xhtml\">SYNDERAI Synthetic Generator v5.0</div>"
        },
        "status": "active\"",
        "distinctIdentifier": "synderai-generator-50",
        "manufacturer": "SYNDERAI Project"
      }
    },
    {
      "fullUrl": "urn:uuid:09119e35-8a12-47a1-87c8-0800d059b9f9",
      "resource": {
        "resourceType": "Provenance",
        "id": "09119e35-8a12-47a1-87c8-0800d059b9f9",
        "target": [
          {
            "reference": "Patient/74cc3694-47b1-4231-9e3c-fa6ed97bc370"
          },
          {
            "reference": "Bundle/5a4ea498-e170-4bdc-8509-a784808ccf8e"
          },
          {
            "reference": "Composition/d0aed849-8a3e-43a4-9b8d-ac6e2047c802"
          },
          {
            "reference": "PractitionerRole/bb515026-b361-4141-a867-7098509cc883"
          },
          {
            "reference": "Practitioner/2045e913-1dee-42f4-9d48-ab10df19b148"
          },
          {
            "reference": "PractitionerRole/b76442e5-39fa-4919-81f3-989952058acf"
          },
          {
            "reference": "Organization/cbcad8a2-01c5-4e81-8c27-89f538976eb8"
          }
        ],
        "activity": {
          "text": "Synthetic Example Data Generation"
        },
        "policy": [
          "https://synderai.net/synderai-synthetic-data-policy"
        ],
        "agent": [
          {
            "type": {
              "text": "author"
            },
            "who": {
              "reference": "Device/a694f021-e5ea-4d61-8055-d2af34494077"
            }
          }
        ],
        "reason": [
          {
            "text": "Interoperability Testing and Training (non-clinical use)"
          }
        ],
        "text": {
          "status": "generated",
          "div": "<div xmlns=\"http://www.w3.org/1999/xhtml\">Provenance for SYNDERAI Synthetic Example Data Resource</div>"
        },
        "recorded": "2019-02-15T05:48:18Z"
      }
    },
    {
      "fullUrl": "urn:uuid:bb515026-b361-4141-a867-7098509cc883",
      "resource": {
        "resourceType": "PractitionerRole",
        "id": "bb515026-b361-4141-a867-7098509cc883",
        "meta": {
          "profile": [
            "http://hl7.eu/fhir/base/StructureDefinition/practitionerRole-eu"
          ]
        },
        "text": {
          "status": "generated",
          "div": "<div xmlns=\"http://www.w3.org/1999/xhtml\">Laboratory Role Id: bb515026-b361-4141-a867-7098509cc883</div>"
        },
        "practitioner": {
          "reference": "urn:uuid:2045e913-1dee-42f4-9d48-ab10df19b148"
        }
      }
    },
    {
      "fullUrl": "urn:uuid:2045e913-1dee-42f4-9d48-ab10df19b148",
      "resource": {
        "resourceType": "Practitioner",
        "id": "2045e913-1dee-42f4-9d48-ab10df19b148",
        "meta": {
          "profile": [
            "http://hl7.eu/fhir/base/StructureDefinition/practitioner-eu"
          ]
        },
        "identifier": [
          {
            "assigner": {
              "display": "HL7 Europe"
            },
            "system": "urn:oid:2.16.840.1.113883.2.51.999",
            "value": "4200dc4f-fceb-44a9-ae02-be5099d2638b"
          }
        ],
        "name": [
          {
            "prefix": [
              "dr"
            ],
            "given": [
              "Ex"
            ],
            "family": "Ample"
          }
        ],
        "address": [
          {
            "line": [
              "Laboratoire Central Européenne",
              "Boulevard du Jardin Botanique 32"
            ],
            "postalCode": "1000",
            "city": "Brussels",
            "country": "Belgium"
          }
        ],
        "text": {
          "status": "generated",
          "div": "<div xmlns=\"http://www.w3.org/1999/xhtml\">Laboratory: Laboratoire Central Européenne, 1000 Brussels, Belgium</div>"
        }
      }
    }
  ],
  "type": "document",
  "timestamp": "2019-02-15T05:48:18Z"
}
