{
  "resourceType": "Bundle",
  "id": "a8e30764-4ab9-4456-803f-62dd154c4d44",
  "meta": {
    "profile": [
      "http://hl7.eu/fhir/laboratory/StructureDefinition/Bundle-eu-lab"
    ]
  },
  "identifier": {
    "assigner": {
      "display": "HL7 Europe"
    },
    "system": "urn:oid:2.16.840.1.113883.2.51.999",
    "value": "e6af21e4-06ba-4e0f-8c89-a8c1fe97623c"
  },
  "entry": [
    {
      "fullUrl": "urn:uuid:293ec90f-c2df-42af-9ca1-e9b3bed71566",
      "resource": {
        "resourceType": "Composition",
        "id": "293ec90f-c2df-42af-9ca1-e9b3bed71566",
        "meta": {
          "profile": [
            "http://hl7.eu/fhir/laboratory/StructureDefinition/Composition-eu-lab"
          ]
        },
        "identifier": {
          "assigner": {
            "display": "HL7 Europe"
          },
          "system": "urn:oid:2.16.840.1.113883.2.51.999",
          "value": "7f0a4248-8e50-4f5e-a492-c14cc64ee760"
        },
        "author": [
          {
            "reference": "urn:uuid:c24b9b7f-d767-4005-8e59-f888e57b9212"
          }
        ],
        "category": [
          {
            "coding": [
              {
                "code": "26436-6",
                "system": "http://loinc.org",
                "display": "Laboratory studies (set)"
              }
            ]
          }
        ],
        "type": {
          "coding": [
            {
              "code": "11502-2",
              "system": "http://loinc.org",
              "display": "Laboratory report"
            }
          ],
          "text": "Laboratory Report"
        },
        "section": [
          {
            "code": {
              "coding": [
                {
                  "code": "26436-6",
                  "system": "http://loinc.org",
                  "display": "Laboratory studies (set)"
                }
              ],
              "text": "Laboratory studies"
            },
            "section": [
              {
                "code": {
                  "coding": [
                    {
                      "code": "$18719-5",
                      "system": "http://loinc.org",
                      "display": "Chemistry studies (set)"
                    }
                  ],
                  "text": "Chemistry"
                },
                "entry": [
                  {
                    "reference": "urn:uuid:01db12d7-e20b-4b89-a78a-4e71073fd9b0"
                  },
                  {
                    "reference": "urn:uuid:edb826a0-aab2-4db2-9a70-893b10bca63b"
                  },
                  {
                    "reference": "urn:uuid:f88e65f6-aad6-41fd-ad79-7fa0e70ff2c5"
                  },
                  {
                    "reference": "urn:uuid:f297f6f1-d11e-4126-abc1-3ebd786458ac"
                  },
                  {
                    "reference": "urn:uuid:99fda87e-19b0-4951-a8c1-78c62a25e3ff"
                  },
                  {
                    "reference": "urn:uuid:f072f626-95b4-4f4f-a495-ba5280d69ec7"
                  },
                  {
                    "reference": "urn:uuid:879a1359-ea5d-4449-aa2d-3068797db4d6"
                  },
                  {
                    "reference": "urn:uuid:e4205eab-c604-4cb5-ac22-aa18362c2405"
                  },
                  {
                    "reference": "urn:uuid:9cc26f66-27a4-4fb3-a4c8-1fe5be0fa130"
                  },
                  {
                    "reference": "urn:uuid:658e5070-677a-4dc5-ac67-ac062db05018"
                  },
                  {
                    "reference": "urn:uuid:495d03f4-22d0-4f6b-8d70-6a5efadd85d4"
                  },
                  {
                    "reference": "urn:uuid:86bf8b9a-19a2-47da-98df-15fc7fc0e804"
                  },
                  {
                    "reference": "urn:uuid:648d2f2d-88c6-4f50-bd18-814860a66eb6"
                  },
                  {
                    "reference": "urn:uuid:15b0ec28-b317-41e6-9bc0-284f36d61428"
                  },
                  {
                    "reference": "urn:uuid:74af661e-25f9-4df8-8cf6-57f391297173"
                  },
                  {
                    "reference": "urn:uuid:cbbda8b3-1491-4f19-ad33-292b65210e1d"
                  },
                  {
                    "reference": "urn:uuid:55e3f142-13ff-46d3-a77e-1353c7e082a7"
                  },
                  {
                    "reference": "urn:uuid:17b312c2-4da9-4189-a58d-0909faa221ba"
                  }
                ],
                "text": {
                  "status": "generated",
                  "div": "<div xmlns=\"http://www.w3.org/1999/xhtml\"><h3>Chemistry</h3><table class=\"hl7__eu__lab__report\"><thead><tr><th>Test</th><th>07-AUG-2020</th><th>Reference&#xA0;Range</th><th>Unit</th></tr></thead><tbody><tr><td>Glucose [Mass/volume] in Serum or Plasma</td><td>87.8</td><td>70 - 140</td><td>mg/dL</td></tr><tr><td>Urea nitrogen [Mass/volume] in Serum or Plasma</td><td>16.7</td><td>7 - 20</td><td>mg/dL</td></tr><tr><td>Creatinine [Mass/volume] in Serum or Plasma</td><td><strong>2.1 H</strong></td><td>0.9 - 1.3</td><td>mg/dL</td></tr><tr><td>Calcium [Mass/volume] in Serum or Plasma</td><td>10.0</td><td>8.5 - 10.5</td><td>mg/dL</td></tr><tr><td>Sodium [Moles/volume] in Serum or Plasma</td><td>136.3</td><td>135 - 145</td><td>mmol/L</td></tr><tr><td>Potassium [Moles/volume] in Serum or Plasma</td><td>5.1</td><td>3.5 - 5.3</td><td>mmol/L</td></tr><tr><td>Chloride [Moles/volume] in Serum or Plasma</td><td><strong>107.1 H</strong></td><td>98 - 107</td><td>mmol/L</td></tr><tr><td>Carbon dioxide, total [Moles/volume] in Serum or Plasma</td><td><strong>21.1 L</strong></td><td>22 - 33</td><td>mmol/L</td></tr><tr><td>Ketones [Presence] in Urine by Test strip</td><td>Urine ketone test = ++</td><td></td><td></td></tr><tr><td>Hemoglobin A1c/Hemoglobin.total in Blood</td><td><strong>3.0 L</strong></td><td>4.3 - 6</td><td>%</td></tr><tr><td>Glucose [Mass/volume] in Blood</td><td>87.8</td><td>70 - 140</td><td>mg/dL</td></tr><tr><td>Urea nitrogen [Mass/volume] in Blood</td><td>16.7</td><td>7 - 20</td><td>mg/dL</td></tr><tr><td>Creatinine [Mass/volume] in Blood</td><td><strong>3.7 H</strong></td><td>0.9 - 1.3</td><td>mg/dL</td></tr><tr><td>Calcium [Mass/volume] in Blood</td><td>10.0</td><td>8.5 - 10.5</td><td>mg/dL</td></tr><tr><td>Sodium [Moles/volume] in Blood</td><td>136.3</td><td>135 - 145</td><td>mmol/L</td></tr><tr><td>Potassium [Moles/volume] in Blood</td><td>5.1</td><td>3.5 - 5.1</td><td>mmol/L</td></tr><tr><td>Chloride [Moles/volume] in Blood</td><td>107.1</td><td>98 - 108</td><td>mmol/L</td></tr><tr><td>Carbon dioxide, total [Moles/volume] in Blood</td><td><strong>21.1 L</strong></td><td>22 - 29</td><td>mmol/L</td></tr></tbody></table></div>"
                },
                "title": "Chemistry"
              },
              {
                "code": {
                  "coding": [
                    {
                      "code": "$18729-4",
                      "system": "http://loinc.org",
                      "display": "Urinalysis studies (set)"
                    }
                  ],
                  "text": "Urinalysis"
                },
                "entry": [
                  {
                    "reference": "urn:uuid:f94238aa-42f9-498f-b92c-0bc9f38b4e57"
                  },
                  {
                    "reference": "urn:uuid:df1732f6-7e23-4a95-af0f-25e9eb709a7c"
                  },
                  {
                    "reference": "urn:uuid:d9fd9b2f-2b74-49f9-a7ad-29ebd3176155"
                  },
                  {
                    "reference": "urn:uuid:ba2e4553-eda3-4bbd-be70-6c1ecb4bdf20"
                  },
                  {
                    "reference": "urn:uuid:84a3e032-8346-4b56-b12a-0d3673ca350f"
                  },
                  {
                    "reference": "urn:uuid:95013c98-b7f0-4b94-bc67-48793ca9c4f2"
                  },
                  {
                    "reference": "urn:uuid:1c5e6ce3-022e-4fab-96db-3549cfb57b27"
                  },
                  {
                    "reference": "urn:uuid:48c2e437-4c16-4e68-bcca-817518b0e722"
                  },
                  {
                    "reference": "urn:uuid:467ba81c-6ebd-4852-afbd-265cab44a8ba"
                  },
                  {
                    "reference": "urn:uuid:d7a5843d-7c40-4315-ae47-6af7f73fb3ff"
                  },
                  {
                    "reference": "urn:uuid:68acfa2b-d5ec-45b0-a412-81acd2e28e65"
                  },
                  {
                    "reference": "urn:uuid:0a760db5-720c-46f6-8921-639a139412b8"
                  }
                ],
                "text": {
                  "status": "generated",
                  "div": "<div xmlns=\"http://www.w3.org/1999/xhtml\"><h3>Urinalysis</h3><table class=\"hl7__eu__lab__report\"><thead><tr><th>Test</th><th>07-AUG-2020</th><th>Reference&#xA0;Range</th><th>Unit</th></tr></thead><tbody><tr><td>Glucose [Mass/volume] in Urine by Test strip</td><td><strong>1.9 H</strong></td><td>0 - 0.8</td><td>mg/dL</td></tr><tr><td>Glucose [Presence] in Urine by Test strip</td><td>++</td><td></td><td></td></tr><tr><td>Bilirubin.total [Mass/volume] in Urine by Test strip</td><td>0.2</td><td>0 - 1.9</td><td>mg/dL</td></tr><tr><td>Bilirubin.total [Presence] in Urine by Test strip</td><td>Finding of bilirubin in urine</td><td></td><td></td></tr><tr><td>Ketones [Mass/volume] in Urine by Test strip</td><td><strong>19.5 H</strong></td><td>0 - 3</td><td>mg/dL</td></tr><tr><td>Specific gravity of Urine by Test strip</td><td><strong>1.0 L</strong></td><td>1.01 - 1.03</td><td>{nominal}</td></tr><tr><td>pH of Urine by Test strip</td><td>6.9</td><td>4.5 - 7.5</td><td>pH</td></tr><tr><td>Protein [Mass/volume] in Urine by Test strip</td><td><strong>378.4 H</strong></td><td>0 - 149</td><td>mg/dL</td></tr><tr><td>Protein [Presence] in Urine by Test strip</td><td>Urine protein test = ++</td><td></td><td></td></tr><tr><td>Nitrite [Presence] in Urine by Test strip</td><td>Urine nitrite negative</td><td></td><td></td></tr><tr><td>Hemoglobin [Presence] in Urine by Test strip</td><td>Urine blood test = negative</td><td></td><td></td></tr><tr><td>Leukocyte esterase [Presence] in Urine by Test strip</td><td>Urine leukocyte test negative</td><td></td><td></td></tr></tbody></table></div>"
                },
                "title": "Urinalysis"
              },
              {
                "code": {
                  "coding": [
                    {
                      "code": "$LP7846-1",
                      "system": "http://loinc.org",
                      "display": "Specimen information"
                    }
                  ],
                  "text": "Specimen information"
                },
                "entry": [
                  {
                    "reference": "urn:uuid:1ca0ecc0-89fa-4d17-b62a-05a2349d3214"
                  },
                  {
                    "reference": "urn:uuid:230099dc-8a11-4130-a354-b226a8805b2e"
                  },
                  {
                    "reference": "urn:uuid:f9ccaec4-6a8e-4e0c-82a5-1e71ada95b4d"
                  },
                  {
                    "reference": "urn:uuid:9835bf63-9941-43a1-82e4-7d055f52d689"
                  }
                ],
                "text": {
                  "status": "generated",
                  "div": "<div xmlns=\"http://www.w3.org/1999/xhtml\"><h3>Specimen information</h3><table class=\"hl7__eu__lab__report\"><thead><tr><th>Test</th><th>07-AUG-2020</th><th>Specimen</th><th></th></tr></thead><tbody><tr><td>Appearance of Urine</td><td>Cloudy urine</td><td>Urine</td><td></td></tr><tr><td>Odor of Urine</td><td>Urine smell ammoniacal</td><td>Urine</td><td></td></tr><tr><td>Clarity of Urine</td><td>Translucent</td><td>Urine</td><td></td></tr><tr><td>Color of Urine</td><td>Brown color</td><td>Urine</td><td></td></tr></tbody></table></div>"
                },
                "title": "Specimen information"
              }
            ],
            "title": "Laboratory Report"
          },
          {
            "text": {
              "status": "generated",
              "div": "<div xmlns=\"http://www.w3.org/1999/xhtml\"><h3>Annotation</h3><table class=\"hl7__eu__lab__report\"><tr><th>Conclusion and Recommendations based on this report and previous findings known to us</th></tr><tr><td>The patient shows significant renal impairment (elevated creatinine), metabolic acidosis (low CO₂), and marked proteinuria, glycosuria, and ketonuria, suggesting possible diabetic nephropathy or another renal pathology despite low HbA1c. Urine findings (cloudy, brown, low specific gravity) further support renal dysfunction. No evidence of urinary infection. Clinical correlation and nephrology evaluation are recommended.</td></tr></table></div>"
            },
            "code": {
              "coding": [
                {
                  "system": "http://loinc.org",
                  "code": "48767-8",
                  "display": "Annotation comment"
                }
              ]
            },
            "title": "Annotation comment"
          }
        ],
        "status": "final",
        "subject": {
          "reference": "urn:uuid:1d731d29-c457-4da4-abad-f4e47a10479e",
          "display": "Victor Lagarde"
        },
        "date": "2020-08-07T06:48:18Z",
        "title": "Laboratory Report",
        "confidentiality": "N"
      }
    },
    {
      "fullUrl": "urn:uuid:0a6b164f-820a-46a3-a648-06f2bf377879",
      "resource": {
        "resourceType": "DiagnosticReport",
        "id": "0a6b164f-820a-46a3-a648-06f2bf377879",
        "meta": {
          "profile": [
            "http://hl7.eu/fhir/laboratory/StructureDefinition/DiagnosticReport-eu-lab"
          ]
        },
        "identifier": [
          {
            "assigner": {
              "display": "HL7 Europe"
            },
            "system": "urn:oid:2.16.840.1.113883.2.51.999",
            "value": "797c80ce-f581-417f-a7de-21a059b527ef"
          }
        ],
        "extension": [
          {
            "url": "http://hl7.org/fhir/5.0/StructureDefinition/extension-DiagnosticReport.composition",
            "valueReference": {
              "reference": "urn:uuid:7f0a4248-8e50-4f5e-a492-c14cc64ee760"
            }
          }
        ],
        "category": [
          {
            "coding": [
              {
                "code": "26436-6",
                "system": "http://loinc.org",
                "display": "Laboratory studies (set)"
              }
            ]
          }
        ],
        "specimen": [
          {
            "reference": "urn:uuid:585c0e94-aee6-4d7c-9bf3-4e71da31daca"
          },
          {
            "reference": "urn:uuid:07db3f4f-5e40-4742-b0a2-911b05cc7548"
          },
          {
            "reference": "urn:uuid:d0d0cac8-b9ca-4d2a-a38c-541c591850c9"
          }
        ],
        "result": [
          {
            "reference": "urn:uuid:01db12d7-e20b-4b89-a78a-4e71073fd9b0"
          },
          {
            "reference": "urn:uuid:edb826a0-aab2-4db2-9a70-893b10bca63b"
          },
          {
            "reference": "urn:uuid:f88e65f6-aad6-41fd-ad79-7fa0e70ff2c5"
          },
          {
            "reference": "urn:uuid:f297f6f1-d11e-4126-abc1-3ebd786458ac"
          },
          {
            "reference": "urn:uuid:99fda87e-19b0-4951-a8c1-78c62a25e3ff"
          },
          {
            "reference": "urn:uuid:f072f626-95b4-4f4f-a495-ba5280d69ec7"
          },
          {
            "reference": "urn:uuid:879a1359-ea5d-4449-aa2d-3068797db4d6"
          },
          {
            "reference": "urn:uuid:e4205eab-c604-4cb5-ac22-aa18362c2405"
          },
          {
            "reference": "urn:uuid:1ca0ecc0-89fa-4d17-b62a-05a2349d3214"
          },
          {
            "reference": "urn:uuid:230099dc-8a11-4130-a354-b226a8805b2e"
          },
          {
            "reference": "urn:uuid:f9ccaec4-6a8e-4e0c-82a5-1e71ada95b4d"
          },
          {
            "reference": "urn:uuid:9835bf63-9941-43a1-82e4-7d055f52d689"
          },
          {
            "reference": "urn:uuid:f94238aa-42f9-498f-b92c-0bc9f38b4e57"
          },
          {
            "reference": "urn:uuid:df1732f6-7e23-4a95-af0f-25e9eb709a7c"
          },
          {
            "reference": "urn:uuid:d9fd9b2f-2b74-49f9-a7ad-29ebd3176155"
          },
          {
            "reference": "urn:uuid:ba2e4553-eda3-4bbd-be70-6c1ecb4bdf20"
          },
          {
            "reference": "urn:uuid:84a3e032-8346-4b56-b12a-0d3673ca350f"
          },
          {
            "reference": "urn:uuid:9cc26f66-27a4-4fb3-a4c8-1fe5be0fa130"
          },
          {
            "reference": "urn:uuid:95013c98-b7f0-4b94-bc67-48793ca9c4f2"
          },
          {
            "reference": "urn:uuid:1c5e6ce3-022e-4fab-96db-3549cfb57b27"
          },
          {
            "reference": "urn:uuid:48c2e437-4c16-4e68-bcca-817518b0e722"
          },
          {
            "reference": "urn:uuid:467ba81c-6ebd-4852-afbd-265cab44a8ba"
          },
          {
            "reference": "urn:uuid:d7a5843d-7c40-4315-ae47-6af7f73fb3ff"
          },
          {
            "reference": "urn:uuid:68acfa2b-d5ec-45b0-a412-81acd2e28e65"
          },
          {
            "reference": "urn:uuid:0a760db5-720c-46f6-8921-639a139412b8"
          },
          {
            "reference": "urn:uuid:658e5070-677a-4dc5-ac67-ac062db05018"
          },
          {
            "reference": "urn:uuid:495d03f4-22d0-4f6b-8d70-6a5efadd85d4"
          },
          {
            "reference": "urn:uuid:86bf8b9a-19a2-47da-98df-15fc7fc0e804"
          },
          {
            "reference": "urn:uuid:648d2f2d-88c6-4f50-bd18-814860a66eb6"
          },
          {
            "reference": "urn:uuid:15b0ec28-b317-41e6-9bc0-284f36d61428"
          },
          {
            "reference": "urn:uuid:74af661e-25f9-4df8-8cf6-57f391297173"
          },
          {
            "reference": "urn:uuid:cbbda8b3-1491-4f19-ad33-292b65210e1d"
          },
          {
            "reference": "urn:uuid:55e3f142-13ff-46d3-a77e-1353c7e082a7"
          },
          {
            "reference": "urn:uuid:17b312c2-4da9-4189-a58d-0909faa221ba"
          }
        ],
        "status": "registered",
        "code": {
          "coding": [
            {
              "code": "11502-2",
              "system": "http://loinc.org",
              "display": "Laboratory report"
            }
          ]
        },
        "subject": {
          "reference": "urn:uuid:1d731d29-c457-4da4-abad-f4e47a10479e",
          "display": "Victor Lagarde"
        }
      }
    },
    {
      "fullUrl": "urn:uuid:1d731d29-c457-4da4-abad-f4e47a10479e",
      "resource": {
        "resourceType": "Patient",
        "id": "1d731d29-c457-4da4-abad-f4e47a10479e",
        "meta": {
          "security": [
            {
              "system": "http://terminology.hl7.org/CodeSystem/v3-ActReason",
              "code": "HTEST"
            },
            {
              "system": "http://terminology.hl7.org/CodeSystem/v3-ActReason",
              "code": "TRAIN"
            }
          ],
          "tag": [
            {
              "system": "https://synderai.net/fhir/CodeSystem/tags",
              "code": "synthetic",
              "display": "SYNDERAI Synthetic data"
            }
          ],
          "profile": [
            "http://hl7.eu/fhir/base/StructureDefinition/patient-eu-core"
          ]
        },
        "identifier": [
          {
            "type": {
              "coding": [
                {
                  "code": "PT",
                  "system": "http://terminology.hl7.org/CodeSystem/v2-0203"
                }
              ]
            },
            "system": "http://ec.europa.eu/identifier/eci",
            "value": "9925-001801-9"
          },
          {
            "type": {
              "coding": [
                {
                  "code": "MR",
                  "system": "http://terminology.hl7.org/CodeSystem/v2-0203"
                }
              ]
            },
            "system": "http://local.setting.eu/identifier",
            "value": "22c2dfd0-ac57-8833-2532-848f180896a4"
          }
        ],
        "name": [
          {
            "family": "Lagarde"
          },
          {
            "given": [
              "Victor"
            ]
          },
          {
            "text": "Victor Lagarde"
          }
        ],
        "address": [
          {
            "line": [
              "avenue Robert"
            ],
            "use": "home",
            "type": "physical",
            "postalCode": "80300",
            "city": "Albert",
            "country": "France"
          }
        ],
        "telecom": [
          {
            "system": "phone",
            "value": "0177941801"
          }
        ],
        "extension": [
          {
            "url": "http://hl7.org/fhir/StructureDefinition/patient-nationality",
            "valueCodeableConcept": {
              "coding": [
                {
                  "code": "FR",
                  "system": "http://hl7.org/fhir/ValueSet/country"
                }
              ]
            }
          }
        ],
        "text": {
          "status": "generated",
          "div": "<div xmlns=\"http://www.w3.org/1999/xhtml\"><table class=\"hl7__ips\"><tr><td>Victor Lagarde</td><td>male</td><td>31-Aug-1939</td></tr></table></div>"
        },
        "gender": "male",
        "birthDate": "1939-08-31"
      }
    },
    {
      "fullUrl": "urn:uuid:e62063ba-126a-49ee-87b5-88c1bd46b9a8",
      "resource": {
        "resourceType": "ServiceRequest",
        "id": "e62063ba-126a-49ee-87b5-88c1bd46b9a8",
        "meta": {
          "profile": [
            "http://hl7.eu/fhir/laboratory/StructureDefinition/ServiceRequest-eu-lab"
          ]
        },
        "identifier": [
          {
            "system": "http://example.org",
            "value": "e46f1124-1558-4572-acf1-8472ab5da640"
          }
        ],
        "specimen": [
          {
            "reference": "urn:uuid:585c0e94-aee6-4d7c-9bf3-4e71da31daca"
          },
          {
            "reference": "urn:uuid:07db3f4f-5e40-4742-b0a2-911b05cc7548"
          },
          {
            "reference": "urn:uuid:d0d0cac8-b9ca-4d2a-a38c-541c591850c9"
          }
        ],
        "reasonCode": [
          {
            "coding": [
              {
                "code": "433144002",
                "system": "http://snomed.info/sct",
                "display": "Chronic kidney disease stage 3"
              }
            ]
          },
          {
            "coding": [
              {
                "code": "157141000119108",
                "system": "http://snomed.info/sct",
                "display": "Proteinuria due to type 2 diabetes mellitus"
              }
            ]
          },
          {
            "coding": [
              {
                "code": "431856006",
                "system": "http://snomed.info/sct",
                "display": "Chronic kidney disease stage 2"
              }
            ]
          },
          {
            "coding": [
              {
                "code": "90781000119102",
                "system": "http://snomed.info/sct",
                "display": "Microalbuminuria due to type 2 diabetes mellitus"
              }
            ]
          },
          {
            "coding": [
              {
                "code": "127013003",
                "system": "http://snomed.info/sct",
                "display": "Disorder of kidney due to diabetes mellitus"
              }
            ]
          },
          {
            "coding": [
              {
                "code": "431855005",
                "system": "http://snomed.info/sct",
                "display": "Chronic kidney disease stage 1"
              }
            ]
          },
          {
            "coding": [
              {
                "code": "55822004",
                "system": "http://snomed.info/sct",
                "display": "Hyperlipidemia"
              }
            ]
          },
          {
            "coding": [
              {
                "code": "59621000",
                "system": "http://snomed.info/sct",
                "display": "Essential hypertension"
              }
            ]
          },
          {
            "coding": [
              {
                "code": "237602007",
                "system": "http://snomed.info/sct",
                "display": "Metabolic syndrome X"
              }
            ]
          },
          {
            "coding": [
              {
                "code": "414545008",
                "system": "http://snomed.info/sct",
                "display": "Ischemic heart disease"
              }
            ]
          },
          {
            "coding": [
              {
                "code": "40055000",
                "system": "http://snomed.info/sct",
                "display": "Chronic sinusitis"
              }
            ]
          },
          {
            "coding": [
              {
                "code": "15777000",
                "system": "http://snomed.info/sct",
                "display": "Prediabetes"
              }
            ]
          },
          {
            "coding": [
              {
                "code": "271737000",
                "system": "http://snomed.info/sct",
                "display": "Anemia"
              }
            ]
          }
        ],
        "status": "active",
        "intent": "order",
        "code": {
          "coding": [
            {
              "code": "108252007",
              "system": "http://snomed.info/sct",
              "display": "Laboratory procedure"
            }
          ]
        },
        "subject": {
          "reference": "urn:uuid:1d731d29-c457-4da4-abad-f4e47a10479e",
          "display": "Victor Lagarde"
        },
        "requester": {
          "reference": "urn:uuid:206f55fe-e60f-4b3f-b761-35b02d0390cc"
        }
      }
    },
    {
      "fullUrl": "urn:uuid:206f55fe-e60f-4b3f-b761-35b02d0390cc",
      "resource": {
        "resourceType": "PractitionerRole",
        "id": "206f55fe-e60f-4b3f-b761-35b02d0390cc",
        "meta": {
          "profile": [
            "http://hl7.eu/fhir/base/StructureDefinition/practitionerRole-eu"
          ]
        },
        "text": {
          "status": "generated",
          "div": "<div xmlns=\"http://www.w3.org/1999/xhtml\">Provider Role Id: 206f55fe-e60f-4b3f-b761-35b02d0390cc</div>"
        },
        "organization": {
          "reference": "urn:uuid:ad08ba4a-7b2a-44eb-bd20-434bd5de1087"
        }
      }
    },
    {
      "fullUrl": "urn:uuid:ad08ba4a-7b2a-44eb-bd20-434bd5de1087",
      "resource": {
        "resourceType": "Organization",
        "id": "ad08ba4a-7b2a-44eb-bd20-434bd5de1087",
        "meta": {
          "profile": [
            "http://hl7.eu/fhir/base/StructureDefinition/organization-eu"
          ]
        },
        "identifier": [
          {
            "assigner": {
              "display": "HL7 Europe"
            },
            "system": "urn:oid:2.16.840.1.113883.2.51.999",
            "value": "ab6b495d-ca6a-43e5-a2f5-9825a698a8b1"
          }
        ],
        "address": [
          {
            "city": "Auxerre",
            "postalCode": "89000",
            "country": "France"
          }
        ],
        "text": {
          "status": "generated",
          "div": "<div xmlns=\"http://www.w3.org/1999/xhtml\">Provider Organization: Thiriot Didier (Cardiologie)</div>"
        },
        "name": "Thiriot Didier (Cardiologie)"
      }
    },
    {
      "fullUrl": "urn:uuid:585c0e94-aee6-4d7c-9bf3-4e71da31daca",
      "resource": {
        "resourceType": "Specimen",
        "id": "585c0e94-aee6-4d7c-9bf3-4e71da31daca",
        "meta": {
          "profile": [
            "http://hl7.eu/fhir/laboratory/StructureDefinition/Specimen-eu-lab"
          ]
        },
        "collection": {
          "collectedDateTime": "2020-08-07"
        },
        "text": {
          "status": "generated",
          "div": "<div xmlns=\"http://www.w3.org/1999/xhtml\"><table class=\"hl7__eu__lab__report\"><tr><th>Specimen</th><th>Collection Date</th></tr><tr><td>Acellular blood (serum or plasma) specimen</td><td><span class=\"nb\">07-Aug-2020</span></td></tr></table></div>"
        },
        "type": {
          "coding": [
            {
              "code": "122592007",
              "system": "http://snomed.info/sct",
              "display": "Acellular blood (serum or plasma) specimen"
            }
          ]
        }
      }
    },
    {
      "fullUrl": "urn:uuid:07db3f4f-5e40-4742-b0a2-911b05cc7548",
      "resource": {
        "resourceType": "Specimen",
        "id": "07db3f4f-5e40-4742-b0a2-911b05cc7548",
        "meta": {
          "profile": [
            "http://hl7.eu/fhir/laboratory/StructureDefinition/Specimen-eu-lab"
          ]
        },
        "collection": {
          "collectedDateTime": "2020-08-07"
        },
        "text": {
          "status": "generated",
          "div": "<div xmlns=\"http://www.w3.org/1999/xhtml\"><table class=\"hl7__eu__lab__report\"><tr><th>Specimen</th><th>Collection Date</th></tr><tr><td>Urine specimen</td><td><span class=\"nb\">07-Aug-2020</span></td></tr></table></div>"
        },
        "type": {
          "coding": [
            {
              "code": "122575003",
              "system": "http://snomed.info/sct",
              "display": "Urine specimen"
            }
          ]
        }
      }
    },
    {
      "fullUrl": "urn:uuid:d0d0cac8-b9ca-4d2a-a38c-541c591850c9",
      "resource": {
        "resourceType": "Specimen",
        "id": "d0d0cac8-b9ca-4d2a-a38c-541c591850c9",
        "meta": {
          "profile": [
            "http://hl7.eu/fhir/laboratory/StructureDefinition/Specimen-eu-lab"
          ]
        },
        "collection": {
          "collectedDateTime": "2020-08-07"
        },
        "text": {
          "status": "generated",
          "div": "<div xmlns=\"http://www.w3.org/1999/xhtml\"><table class=\"hl7__eu__lab__report\"><tr><th>Specimen</th><th>Collection Date</th></tr><tr><td>Whole blood specimen (specimen)</td><td><span class=\"nb\">07-Aug-2020</span></td></tr></table></div>"
        },
        "type": {
          "coding": [
            {
              "code": "258580003",
              "system": "http://snomed.info/sct",
              "display": "Whole blood specimen (specimen)"
            }
          ]
        }
      }
    },
    {
      "fullUrl": "urn:uuid:01db12d7-e20b-4b89-a78a-4e71073fd9b0",
      "resource": {
        "resourceType": "Observation",
        "id": "01db12d7-e20b-4b89-a78a-4e71073fd9b0",
        "meta": {
          "profile": [
            "http://hl7.eu/fhir/laboratory/StructureDefinition/Observation-resultslab-eu-lab"
          ]
        },
        "performer": [
          {
            "display": "The Central European Lab"
          }
        ],
        "category": [
          {
            "coding": [
              {
                "system": "http://terminology.hl7.org/CodeSystem/observation-category",
                "code": "laboratory"
              }
            ]
          }
        ],
        "code": {
          "coding": [
            {
              "code": "2345-7",
              "system": "http://loinc.org",
              "display": "Glucose [Mass/volume] in Serum or Plasma"
            }
          ],
          "text": "Glucose [Mass/volume] in Serum or Plasma"
        },
        "valueQuantity": {
          "system": "http://unitsofmeasure.org",
          "value": 87.8,
          "unit": "mg/dL",
          "code": "mg/dL"
        },
        "referenceRange": [
          {
            "low": {
              "value": 70,
              "code": "mg/dL",
              "system": "http://unitsofmeasure.org"
            }
          },
          {
            "high": {
              "value": 140,
              "code": "mg/dL",
              "system": "http://unitsofmeasure.org"
            }
          }
        ],
        "text": {
          "status": "generated",
          "div": "<div xmlns=\"http://www.w3.org/1999/xhtml\"><table class=\"hl7__eu__lab__report\"><tr><th>Test</th><th>07-Aug-2020</th><th>Reference&#xA0;Range</th><th>Unit</th></tr><tr><td>Glucose [Mass/volume] in Serum or Plasma</td><td>87.8</td><td>70 - 140</td><td></td><td>mg/dL</td></tr></table></div>"
        },
        "status": "final",
        "subject": {
          "reference": "urn:uuid:1d731d29-c457-4da4-abad-f4e47a10479e",
          "display": "Victor Lagarde"
        },
        "effectiveDateTime": "2020-08-07T04:48:18Z",
        "specimen": {
          "reference": "urn:uuid:585c0e94-aee6-4d7c-9bf3-4e71da31daca"
        }
      }
    },
    {
      "fullUrl": "urn:uuid:edb826a0-aab2-4db2-9a70-893b10bca63b",
      "resource": {
        "resourceType": "Observation",
        "id": "edb826a0-aab2-4db2-9a70-893b10bca63b",
        "meta": {
          "profile": [
            "http://hl7.eu/fhir/laboratory/StructureDefinition/Observation-resultslab-eu-lab"
          ]
        },
        "performer": [
          {
            "display": "The Central European Lab"
          }
        ],
        "category": [
          {
            "coding": [
              {
                "system": "http://terminology.hl7.org/CodeSystem/observation-category",
                "code": "laboratory"
              }
            ]
          }
        ],
        "code": {
          "coding": [
            {
              "code": "3094-0",
              "system": "http://loinc.org",
              "display": "Urea nitrogen [Mass/volume] in Serum or Plasma"
            }
          ],
          "text": "Urea nitrogen [Mass/volume] in Serum or Plasma"
        },
        "valueQuantity": {
          "system": "http://unitsofmeasure.org",
          "value": 16.7,
          "unit": "mg/dL",
          "code": "mg/dL"
        },
        "referenceRange": [
          {
            "low": {
              "value": 7,
              "code": "mg/dL",
              "system": "http://unitsofmeasure.org"
            }
          },
          {
            "high": {
              "value": 20,
              "code": "mg/dL",
              "system": "http://unitsofmeasure.org"
            }
          }
        ],
        "text": {
          "status": "generated",
          "div": "<div xmlns=\"http://www.w3.org/1999/xhtml\"><table class=\"hl7__eu__lab__report\"><tr><th>Test</th><th>07-Aug-2020</th><th>Reference&#xA0;Range</th><th>Unit</th></tr><tr><td>Urea nitrogen [Mass/volume] in Serum or Plasma</td><td>16.7</td><td>7 - 20</td><td></td><td>mg/dL</td></tr></table></div>"
        },
        "status": "final",
        "subject": {
          "reference": "urn:uuid:1d731d29-c457-4da4-abad-f4e47a10479e",
          "display": "Victor Lagarde"
        },
        "effectiveDateTime": "2020-08-07T04:48:18Z",
        "specimen": {
          "reference": "urn:uuid:585c0e94-aee6-4d7c-9bf3-4e71da31daca"
        }
      }
    },
    {
      "fullUrl": "urn:uuid:f88e65f6-aad6-41fd-ad79-7fa0e70ff2c5",
      "resource": {
        "resourceType": "Observation",
        "id": "f88e65f6-aad6-41fd-ad79-7fa0e70ff2c5",
        "meta": {
          "profile": [
            "http://hl7.eu/fhir/laboratory/StructureDefinition/Observation-resultslab-eu-lab"
          ]
        },
        "performer": [
          {
            "display": "The Central European Lab"
          }
        ],
        "category": [
          {
            "coding": [
              {
                "system": "http://terminology.hl7.org/CodeSystem/observation-category",
                "code": "laboratory"
              }
            ]
          }
        ],
        "code": {
          "coding": [
            {
              "code": "2160-0",
              "system": "http://loinc.org",
              "display": "Creatinine [Mass/volume] in Serum or Plasma"
            }
          ],
          "text": "Creatinine [Mass/volume] in Serum or Plasma"
        },
        "valueQuantity": {
          "system": "http://unitsofmeasure.org",
          "value": 2.1,
          "unit": "mg/dL",
          "code": "mg/dL"
        },
        "referenceRange": [
          {
            "low": {
              "value": 0.9,
              "code": "mg/dL",
              "system": "http://unitsofmeasure.org"
            }
          },
          {
            "high": {
              "value": 1.3,
              "code": "mg/dL",
              "system": "http://unitsofmeasure.org"
            }
          }
        ],
        "interpretation": [
          {
            "coding": [
              {
                "code": "H",
                "system": "http://terminology.hl7.org/CodeSystem/v3-ObservationInterpretation",
                "display": "High"
              }
            ]
          }
        ],
        "text": {
          "status": "generated",
          "div": "<div xmlns=\"http://www.w3.org/1999/xhtml\"><table class=\"hl7__eu__lab__report\"><tr><th>Test</th><th>07-Aug-2020</th><th>Reference&#xA0;Range</th><th>Unit</th></tr><tr><td>Creatinine [Mass/volume] in Serum or Plasma</td><td>2.1</td><td>0.9 - 1.3</td><td>H</td><td>mg/dL</td></tr></table></div>"
        },
        "status": "final",
        "subject": {
          "reference": "urn:uuid:1d731d29-c457-4da4-abad-f4e47a10479e",
          "display": "Victor Lagarde"
        },
        "effectiveDateTime": "2020-08-07T04:48:18Z",
        "specimen": {
          "reference": "urn:uuid:585c0e94-aee6-4d7c-9bf3-4e71da31daca"
        }
      }
    },
    {
      "fullUrl": "urn:uuid:f297f6f1-d11e-4126-abc1-3ebd786458ac",
      "resource": {
        "resourceType": "Observation",
        "id": "f297f6f1-d11e-4126-abc1-3ebd786458ac",
        "meta": {
          "profile": [
            "http://hl7.eu/fhir/laboratory/StructureDefinition/Observation-resultslab-eu-lab"
          ]
        },
        "performer": [
          {
            "display": "The Central European Lab"
          }
        ],
        "category": [
          {
            "coding": [
              {
                "system": "http://terminology.hl7.org/CodeSystem/observation-category",
                "code": "laboratory"
              }
            ]
          }
        ],
        "code": {
          "coding": [
            {
              "code": "17861-6",
              "system": "http://loinc.org",
              "display": "Calcium [Mass/volume] in Serum or Plasma"
            }
          ],
          "text": "Calcium [Mass/volume] in Serum or Plasma"
        },
        "valueQuantity": {
          "system": "http://unitsofmeasure.org",
          "value": 10,
          "unit": "mg/dL",
          "code": "mg/dL"
        },
        "referenceRange": [
          {
            "low": {
              "value": 8.5,
              "code": "mg/dL",
              "system": "http://unitsofmeasure.org"
            }
          },
          {
            "high": {
              "value": 10.5,
              "code": "mg/dL",
              "system": "http://unitsofmeasure.org"
            }
          }
        ],
        "text": {
          "status": "generated",
          "div": "<div xmlns=\"http://www.w3.org/1999/xhtml\"><table class=\"hl7__eu__lab__report\"><tr><th>Test</th><th>07-Aug-2020</th><th>Reference&#xA0;Range</th><th>Unit</th></tr><tr><td>Calcium [Mass/volume] in Serum or Plasma</td><td>10.0</td><td>8.5 - 10.5</td><td></td><td>mg/dL</td></tr></table></div>"
        },
        "status": "final",
        "subject": {
          "reference": "urn:uuid:1d731d29-c457-4da4-abad-f4e47a10479e",
          "display": "Victor Lagarde"
        },
        "effectiveDateTime": "2020-08-07T04:48:18Z",
        "specimen": {
          "reference": "urn:uuid:585c0e94-aee6-4d7c-9bf3-4e71da31daca"
        }
      }
    },
    {
      "fullUrl": "urn:uuid:99fda87e-19b0-4951-a8c1-78c62a25e3ff",
      "resource": {
        "resourceType": "Observation",
        "id": "99fda87e-19b0-4951-a8c1-78c62a25e3ff",
        "meta": {
          "profile": [
            "http://hl7.eu/fhir/laboratory/StructureDefinition/Observation-resultslab-eu-lab"
          ]
        },
        "performer": [
          {
            "display": "The Central European Lab"
          }
        ],
        "category": [
          {
            "coding": [
              {
                "system": "http://terminology.hl7.org/CodeSystem/observation-category",
                "code": "laboratory"
              }
            ]
          }
        ],
        "code": {
          "coding": [
            {
              "code": "2951-2",
              "system": "http://loinc.org",
              "display": "Sodium [Moles/volume] in Serum or Plasma"
            }
          ],
          "text": "Sodium [Moles/volume] in Serum or Plasma"
        },
        "valueQuantity": {
          "system": "http://unitsofmeasure.org",
          "value": 136.3,
          "unit": "mmol/L",
          "code": "mmol/L"
        },
        "referenceRange": [
          {
            "low": {
              "value": 135,
              "code": "mmol/L",
              "system": "http://unitsofmeasure.org"
            }
          },
          {
            "high": {
              "value": 145,
              "code": "mmol/L",
              "system": "http://unitsofmeasure.org"
            }
          }
        ],
        "text": {
          "status": "generated",
          "div": "<div xmlns=\"http://www.w3.org/1999/xhtml\"><table class=\"hl7__eu__lab__report\"><tr><th>Test</th><th>07-Aug-2020</th><th>Reference&#xA0;Range</th><th>Unit</th></tr><tr><td>Sodium [Moles/volume] in Serum or Plasma</td><td>136.3</td><td>135 - 145</td><td></td><td>mmol/L</td></tr></table></div>"
        },
        "status": "final",
        "subject": {
          "reference": "urn:uuid:1d731d29-c457-4da4-abad-f4e47a10479e",
          "display": "Victor Lagarde"
        },
        "effectiveDateTime": "2020-08-07T04:48:18Z",
        "specimen": {
          "reference": "urn:uuid:585c0e94-aee6-4d7c-9bf3-4e71da31daca"
        }
      }
    },
    {
      "fullUrl": "urn:uuid:f072f626-95b4-4f4f-a495-ba5280d69ec7",
      "resource": {
        "resourceType": "Observation",
        "id": "f072f626-95b4-4f4f-a495-ba5280d69ec7",
        "meta": {
          "profile": [
            "http://hl7.eu/fhir/laboratory/StructureDefinition/Observation-resultslab-eu-lab"
          ]
        },
        "performer": [
          {
            "display": "The Central European Lab"
          }
        ],
        "category": [
          {
            "coding": [
              {
                "system": "http://terminology.hl7.org/CodeSystem/observation-category",
                "code": "laboratory"
              }
            ]
          }
        ],
        "code": {
          "coding": [
            {
              "code": "2823-3",
              "system": "http://loinc.org",
              "display": "Potassium [Moles/volume] in Serum or Plasma"
            }
          ],
          "text": "Potassium [Moles/volume] in Serum or Plasma"
        },
        "valueQuantity": {
          "system": "http://unitsofmeasure.org",
          "value": 5.1,
          "unit": "mmol/L",
          "code": "mmol/L"
        },
        "referenceRange": [
          {
            "low": {
              "value": 3.5,
              "code": "mmol/L",
              "system": "http://unitsofmeasure.org"
            }
          },
          {
            "high": {
              "value": 5.3,
              "code": "mmol/L",
              "system": "http://unitsofmeasure.org"
            }
          }
        ],
        "text": {
          "status": "generated",
          "div": "<div xmlns=\"http://www.w3.org/1999/xhtml\"><table class=\"hl7__eu__lab__report\"><tr><th>Test</th><th>07-Aug-2020</th><th>Reference&#xA0;Range</th><th>Unit</th></tr><tr><td>Potassium [Moles/volume] in Serum or Plasma</td><td>5.1</td><td>3.5 - 5.3</td><td></td><td>mmol/L</td></tr></table></div>"
        },
        "status": "final",
        "subject": {
          "reference": "urn:uuid:1d731d29-c457-4da4-abad-f4e47a10479e",
          "display": "Victor Lagarde"
        },
        "effectiveDateTime": "2020-08-07T04:48:18Z",
        "specimen": {
          "reference": "urn:uuid:585c0e94-aee6-4d7c-9bf3-4e71da31daca"
        }
      }
    },
    {
      "fullUrl": "urn:uuid:879a1359-ea5d-4449-aa2d-3068797db4d6",
      "resource": {
        "resourceType": "Observation",
        "id": "879a1359-ea5d-4449-aa2d-3068797db4d6",
        "meta": {
          "profile": [
            "http://hl7.eu/fhir/laboratory/StructureDefinition/Observation-resultslab-eu-lab"
          ]
        },
        "performer": [
          {
            "display": "The Central European Lab"
          }
        ],
        "category": [
          {
            "coding": [
              {
                "system": "http://terminology.hl7.org/CodeSystem/observation-category",
                "code": "laboratory"
              }
            ]
          }
        ],
        "code": {
          "coding": [
            {
              "code": "2075-0",
              "system": "http://loinc.org",
              "display": "Chloride [Moles/volume] in Serum or Plasma"
            }
          ],
          "text": "Chloride [Moles/volume] in Serum or Plasma"
        },
        "valueQuantity": {
          "system": "http://unitsofmeasure.org",
          "value": 107.1,
          "unit": "mmol/L",
          "code": "mmol/L"
        },
        "referenceRange": [
          {
            "low": {
              "value": 98,
              "code": "mmol/L",
              "system": "http://unitsofmeasure.org"
            }
          },
          {
            "high": {
              "value": 107,
              "code": "mmol/L",
              "system": "http://unitsofmeasure.org"
            }
          }
        ],
        "interpretation": [
          {
            "coding": [
              {
                "code": "H",
                "system": "http://terminology.hl7.org/CodeSystem/v3-ObservationInterpretation",
                "display": "High"
              }
            ]
          }
        ],
        "text": {
          "status": "generated",
          "div": "<div xmlns=\"http://www.w3.org/1999/xhtml\"><table class=\"hl7__eu__lab__report\"><tr><th>Test</th><th>07-Aug-2020</th><th>Reference&#xA0;Range</th><th>Unit</th></tr><tr><td>Chloride [Moles/volume] in Serum or Plasma</td><td>107.1</td><td>98 - 107</td><td>H</td><td>mmol/L</td></tr></table></div>"
        },
        "status": "final",
        "subject": {
          "reference": "urn:uuid:1d731d29-c457-4da4-abad-f4e47a10479e",
          "display": "Victor Lagarde"
        },
        "effectiveDateTime": "2020-08-07T04:48:18Z",
        "specimen": {
          "reference": "urn:uuid:585c0e94-aee6-4d7c-9bf3-4e71da31daca"
        }
      }
    },
    {
      "fullUrl": "urn:uuid:e4205eab-c604-4cb5-ac22-aa18362c2405",
      "resource": {
        "resourceType": "Observation",
        "id": "e4205eab-c604-4cb5-ac22-aa18362c2405",
        "meta": {
          "profile": [
            "http://hl7.eu/fhir/laboratory/StructureDefinition/Observation-resultslab-eu-lab"
          ]
        },
        "performer": [
          {
            "display": "The Central European Lab"
          }
        ],
        "category": [
          {
            "coding": [
              {
                "system": "http://terminology.hl7.org/CodeSystem/observation-category",
                "code": "laboratory"
              }
            ]
          }
        ],
        "code": {
          "coding": [
            {
              "code": "2028-9",
              "system": "http://loinc.org",
              "display": "Carbon dioxide, total [Moles/volume] in Serum or Plasma"
            }
          ],
          "text": "Carbon dioxide, total [Moles/volume] in Serum or Plasma"
        },
        "valueQuantity": {
          "system": "http://unitsofmeasure.org",
          "value": 21.1,
          "unit": "mmol/L",
          "code": "mmol/L"
        },
        "referenceRange": [
          {
            "low": {
              "value": 22,
              "code": "mmol/L",
              "system": "http://unitsofmeasure.org"
            }
          },
          {
            "high": {
              "value": 33,
              "code": "mmol/L",
              "system": "http://unitsofmeasure.org"
            }
          }
        ],
        "interpretation": [
          {
            "coding": [
              {
                "code": "L",
                "system": "http://terminology.hl7.org/CodeSystem/v3-ObservationInterpretation",
                "display": "Low"
              }
            ]
          }
        ],
        "text": {
          "status": "generated",
          "div": "<div xmlns=\"http://www.w3.org/1999/xhtml\"><table class=\"hl7__eu__lab__report\"><tr><th>Test</th><th>07-Aug-2020</th><th>Reference&#xA0;Range</th><th>Unit</th></tr><tr><td>Carbon dioxide, total [Moles/volume] in Serum or Plasma</td><td>21.1</td><td>22 - 33</td><td>L</td><td>mmol/L</td></tr></table></div>"
        },
        "status": "final",
        "subject": {
          "reference": "urn:uuid:1d731d29-c457-4da4-abad-f4e47a10479e",
          "display": "Victor Lagarde"
        },
        "effectiveDateTime": "2020-08-07T04:48:18Z",
        "specimen": {
          "reference": "urn:uuid:585c0e94-aee6-4d7c-9bf3-4e71da31daca"
        }
      }
    },
    {
      "fullUrl": "urn:uuid:1ca0ecc0-89fa-4d17-b62a-05a2349d3214",
      "resource": {
        "resourceType": "Observation",
        "id": "1ca0ecc0-89fa-4d17-b62a-05a2349d3214",
        "meta": {
          "profile": [
            "http://hl7.eu/fhir/laboratory/StructureDefinition/Observation-resultslab-eu-lab"
          ]
        },
        "performer": [
          {
            "display": "The Central European Lab"
          }
        ],
        "category": [
          {
            "coding": [
              {
                "system": "http://terminology.hl7.org/CodeSystem/observation-category",
                "code": "laboratory"
              }
            ]
          }
        ],
        "code": {
          "coding": [
            {
              "code": "5767-9",
              "system": "http://loinc.org",
              "display": "Appearance of Urine"
            }
          ],
          "text": "Appearance of Urine"
        },
        "text": {
          "status": "generated",
          "div": "<div xmlns=\"http://www.w3.org/1999/xhtml\"><table class=\"hl7__eu__lab__report\"><tr><th>Test</th><th>07-Aug-2020</th><th>Reference&#xA0;Range</th><th>Unit</th></tr><tr><td>Appearance of Urine</td></tr></table></div>"
        },
        "status": "final",
        "subject": {
          "reference": "urn:uuid:1d731d29-c457-4da4-abad-f4e47a10479e",
          "display": "Victor Lagarde"
        },
        "effectiveDateTime": "2020-08-07T04:48:18Z",
        "specimen": {
          "reference": "urn:uuid:07db3f4f-5e40-4742-b0a2-911b05cc7548"
        }
      }
    },
    {
      "fullUrl": "urn:uuid:230099dc-8a11-4130-a354-b226a8805b2e",
      "resource": {
        "resourceType": "Observation",
        "id": "230099dc-8a11-4130-a354-b226a8805b2e",
        "meta": {
          "profile": [
            "http://hl7.eu/fhir/laboratory/StructureDefinition/Observation-resultslab-eu-lab"
          ]
        },
        "performer": [
          {
            "display": "The Central European Lab"
          }
        ],
        "category": [
          {
            "coding": [
              {
                "system": "http://terminology.hl7.org/CodeSystem/observation-category",
                "code": "laboratory"
              }
            ]
          }
        ],
        "code": {
          "coding": [
            {
              "code": "34533-0",
              "system": "http://loinc.org",
              "display": "Odor of Urine"
            }
          ],
          "text": "Odor of Urine"
        },
        "text": {
          "status": "generated",
          "div": "<div xmlns=\"http://www.w3.org/1999/xhtml\"><table class=\"hl7__eu__lab__report\"><tr><th>Test</th><th>07-Aug-2020</th><th>Reference&#xA0;Range</th><th>Unit</th></tr><tr><td>Odor of Urine</td></tr></table></div>"
        },
        "status": "final",
        "subject": {
          "reference": "urn:uuid:1d731d29-c457-4da4-abad-f4e47a10479e",
          "display": "Victor Lagarde"
        },
        "effectiveDateTime": "2020-08-07T04:48:18Z",
        "specimen": {
          "reference": "urn:uuid:07db3f4f-5e40-4742-b0a2-911b05cc7548"
        }
      }
    },
    {
      "fullUrl": "urn:uuid:f9ccaec4-6a8e-4e0c-82a5-1e71ada95b4d",
      "resource": {
        "resourceType": "Observation",
        "id": "f9ccaec4-6a8e-4e0c-82a5-1e71ada95b4d",
        "meta": {
          "profile": [
            "http://hl7.eu/fhir/laboratory/StructureDefinition/Observation-resultslab-eu-lab"
          ]
        },
        "performer": [
          {
            "display": "The Central European Lab"
          }
        ],
        "category": [
          {
            "coding": [
              {
                "system": "http://terminology.hl7.org/CodeSystem/observation-category",
                "code": "laboratory"
              }
            ]
          }
        ],
        "code": {
          "coding": [
            {
              "code": "32167-9",
              "system": "http://loinc.org",
              "display": "Clarity of Urine"
            }
          ],
          "text": "Clarity of Urine"
        },
        "text": {
          "status": "generated",
          "div": "<div xmlns=\"http://www.w3.org/1999/xhtml\"><table class=\"hl7__eu__lab__report\"><tr><th>Test</th><th>07-Aug-2020</th><th>Reference&#xA0;Range</th><th>Unit</th></tr><tr><td>Clarity of Urine</td></tr></table></div>"
        },
        "status": "final",
        "subject": {
          "reference": "urn:uuid:1d731d29-c457-4da4-abad-f4e47a10479e",
          "display": "Victor Lagarde"
        },
        "effectiveDateTime": "2020-08-07T04:48:18Z",
        "specimen": {
          "reference": "urn:uuid:07db3f4f-5e40-4742-b0a2-911b05cc7548"
        }
      }
    },
    {
      "fullUrl": "urn:uuid:9835bf63-9941-43a1-82e4-7d055f52d689",
      "resource": {
        "resourceType": "Observation",
        "id": "9835bf63-9941-43a1-82e4-7d055f52d689",
        "meta": {
          "profile": [
            "http://hl7.eu/fhir/laboratory/StructureDefinition/Observation-resultslab-eu-lab"
          ]
        },
        "performer": [
          {
            "display": "The Central European Lab"
          }
        ],
        "category": [
          {
            "coding": [
              {
                "system": "http://terminology.hl7.org/CodeSystem/observation-category",
                "code": "laboratory"
              }
            ]
          }
        ],
        "code": {
          "coding": [
            {
              "code": "5778-6",
              "system": "http://loinc.org",
              "display": "Color of Urine"
            }
          ],
          "text": "Color of Urine"
        },
        "text": {
          "status": "generated",
          "div": "<div xmlns=\"http://www.w3.org/1999/xhtml\"><table class=\"hl7__eu__lab__report\"><tr><th>Test</th><th>07-Aug-2020</th><th>Reference&#xA0;Range</th><th>Unit</th></tr><tr><td>Color of Urine</td></tr></table></div>"
        },
        "status": "final",
        "subject": {
          "reference": "urn:uuid:1d731d29-c457-4da4-abad-f4e47a10479e",
          "display": "Victor Lagarde"
        },
        "effectiveDateTime": "2020-08-07T04:48:18Z",
        "specimen": {
          "reference": "urn:uuid:07db3f4f-5e40-4742-b0a2-911b05cc7548"
        }
      }
    },
    {
      "fullUrl": "urn:uuid:f94238aa-42f9-498f-b92c-0bc9f38b4e57",
      "resource": {
        "resourceType": "Observation",
        "id": "f94238aa-42f9-498f-b92c-0bc9f38b4e57",
        "meta": {
          "profile": [
            "http://hl7.eu/fhir/laboratory/StructureDefinition/Observation-resultslab-eu-lab"
          ]
        },
        "performer": [
          {
            "display": "The Central European Lab"
          }
        ],
        "category": [
          {
            "coding": [
              {
                "system": "http://terminology.hl7.org/CodeSystem/observation-category",
                "code": "laboratory"
              }
            ]
          }
        ],
        "code": {
          "coding": [
            {
              "code": "5792-7",
              "system": "http://loinc.org",
              "display": "Glucose [Mass/volume] in Urine by Test strip"
            }
          ],
          "text": "Glucose [Mass/volume] in Urine by Test strip"
        },
        "valueQuantity": {
          "system": "http://unitsofmeasure.org",
          "value": 1.9,
          "unit": "mg/dL",
          "code": "mg/dL"
        },
        "referenceRange": [
          {
            "low": {
              "value": 0,
              "code": "mg/dL",
              "system": "http://unitsofmeasure.org"
            }
          },
          {
            "high": {
              "value": 0.8,
              "code": "mg/dL",
              "system": "http://unitsofmeasure.org"
            }
          }
        ],
        "interpretation": [
          {
            "coding": [
              {
                "code": "H",
                "system": "http://terminology.hl7.org/CodeSystem/v3-ObservationInterpretation",
                "display": "High"
              }
            ]
          }
        ],
        "text": {
          "status": "generated",
          "div": "<div xmlns=\"http://www.w3.org/1999/xhtml\"><table class=\"hl7__eu__lab__report\"><tr><th>Test</th><th>07-Aug-2020</th><th>Reference&#xA0;Range</th><th>Unit</th></tr><tr><td>Glucose [Mass/volume] in Urine by Test strip</td><td>1.9</td><td>0 - 0.8</td><td>H</td><td>mg/dL</td></tr></table></div>"
        },
        "status": "final",
        "subject": {
          "reference": "urn:uuid:1d731d29-c457-4da4-abad-f4e47a10479e",
          "display": "Victor Lagarde"
        },
        "effectiveDateTime": "2020-08-07T04:48:18Z",
        "specimen": {
          "reference": "urn:uuid:07db3f4f-5e40-4742-b0a2-911b05cc7548"
        }
      }
    },
    {
      "fullUrl": "urn:uuid:df1732f6-7e23-4a95-af0f-25e9eb709a7c",
      "resource": {
        "resourceType": "Observation",
        "id": "df1732f6-7e23-4a95-af0f-25e9eb709a7c",
        "meta": {
          "profile": [
            "http://hl7.eu/fhir/laboratory/StructureDefinition/Observation-resultslab-eu-lab"
          ]
        },
        "performer": [
          {
            "display": "The Central European Lab"
          }
        ],
        "category": [
          {
            "coding": [
              {
                "system": "http://terminology.hl7.org/CodeSystem/observation-category",
                "code": "laboratory"
              }
            ]
          }
        ],
        "code": {
          "coding": [
            {
              "code": "25428-4",
              "system": "http://loinc.org",
              "display": "Glucose [Presence] in Urine by Test strip"
            }
          ],
          "text": "Glucose [Presence] in Urine by Test strip"
        },
        "text": {
          "status": "generated",
          "div": "<div xmlns=\"http://www.w3.org/1999/xhtml\"><table class=\"hl7__eu__lab__report\"><tr><th>Test</th><th>07-Aug-2020</th><th>Reference&#xA0;Range</th><th>Unit</th></tr><tr><td>Glucose [Presence] in Urine by Test strip</td></tr></table></div>"
        },
        "status": "final",
        "subject": {
          "reference": "urn:uuid:1d731d29-c457-4da4-abad-f4e47a10479e",
          "display": "Victor Lagarde"
        },
        "effectiveDateTime": "2020-08-07T04:48:18Z",
        "specimen": {
          "reference": "urn:uuid:07db3f4f-5e40-4742-b0a2-911b05cc7548"
        }
      }
    },
    {
      "fullUrl": "urn:uuid:d9fd9b2f-2b74-49f9-a7ad-29ebd3176155",
      "resource": {
        "resourceType": "Observation",
        "id": "d9fd9b2f-2b74-49f9-a7ad-29ebd3176155",
        "meta": {
          "profile": [
            "http://hl7.eu/fhir/laboratory/StructureDefinition/Observation-resultslab-eu-lab"
          ]
        },
        "performer": [
          {
            "display": "The Central European Lab"
          }
        ],
        "category": [
          {
            "coding": [
              {
                "system": "http://terminology.hl7.org/CodeSystem/observation-category",
                "code": "laboratory"
              }
            ]
          }
        ],
        "code": {
          "coding": [
            {
              "code": "20505-4",
              "system": "http://loinc.org",
              "display": "Bilirubin.total [Mass/volume] in Urine by Test strip"
            }
          ],
          "text": "Bilirubin.total [Mass/volume] in Urine by Test strip"
        },
        "valueQuantity": {
          "system": "http://unitsofmeasure.org",
          "value": 0.2,
          "unit": "mg/dL",
          "code": "mg/dL"
        },
        "referenceRange": [
          {
            "low": {
              "value": 0,
              "code": "mg/dL",
              "system": "http://unitsofmeasure.org"
            }
          },
          {
            "high": {
              "value": 1.9,
              "code": "mg/dL",
              "system": "http://unitsofmeasure.org"
            }
          }
        ],
        "text": {
          "status": "generated",
          "div": "<div xmlns=\"http://www.w3.org/1999/xhtml\"><table class=\"hl7__eu__lab__report\"><tr><th>Test</th><th>07-Aug-2020</th><th>Reference&#xA0;Range</th><th>Unit</th></tr><tr><td>Bilirubin.total [Mass/volume] in Urine by Test strip</td><td>0.2</td><td>0 - 1.9</td><td></td><td>mg/dL</td></tr></table></div>"
        },
        "status": "final",
        "subject": {
          "reference": "urn:uuid:1d731d29-c457-4da4-abad-f4e47a10479e",
          "display": "Victor Lagarde"
        },
        "effectiveDateTime": "2020-08-07T04:48:18Z",
        "specimen": {
          "reference": "urn:uuid:07db3f4f-5e40-4742-b0a2-911b05cc7548"
        }
      }
    },
    {
      "fullUrl": "urn:uuid:ba2e4553-eda3-4bbd-be70-6c1ecb4bdf20",
      "resource": {
        "resourceType": "Observation",
        "id": "ba2e4553-eda3-4bbd-be70-6c1ecb4bdf20",
        "meta": {
          "profile": [
            "http://hl7.eu/fhir/laboratory/StructureDefinition/Observation-resultslab-eu-lab"
          ]
        },
        "performer": [
          {
            "display": "The Central European Lab"
          }
        ],
        "category": [
          {
            "coding": [
              {
                "system": "http://terminology.hl7.org/CodeSystem/observation-category",
                "code": "laboratory"
              }
            ]
          }
        ],
        "code": {
          "coding": [
            {
              "code": "5770-3",
              "system": "http://loinc.org",
              "display": "Bilirubin.total [Presence] in Urine by Test strip"
            }
          ],
          "text": "Bilirubin.total [Presence] in Urine by Test strip"
        },
        "text": {
          "status": "generated",
          "div": "<div xmlns=\"http://www.w3.org/1999/xhtml\"><table class=\"hl7__eu__lab__report\"><tr><th>Test</th><th>07-Aug-2020</th><th>Reference&#xA0;Range</th><th>Unit</th></tr><tr><td>Bilirubin.total [Presence] in Urine by Test strip</td></tr></table></div>"
        },
        "status": "final",
        "subject": {
          "reference": "urn:uuid:1d731d29-c457-4da4-abad-f4e47a10479e",
          "display": "Victor Lagarde"
        },
        "effectiveDateTime": "2020-08-07T04:48:18Z",
        "specimen": {
          "reference": "urn:uuid:07db3f4f-5e40-4742-b0a2-911b05cc7548"
        }
      }
    },
    {
      "fullUrl": "urn:uuid:84a3e032-8346-4b56-b12a-0d3673ca350f",
      "resource": {
        "resourceType": "Observation",
        "id": "84a3e032-8346-4b56-b12a-0d3673ca350f",
        "meta": {
          "profile": [
            "http://hl7.eu/fhir/laboratory/StructureDefinition/Observation-resultslab-eu-lab"
          ]
        },
        "performer": [
          {
            "display": "The Central European Lab"
          }
        ],
        "category": [
          {
            "coding": [
              {
                "system": "http://terminology.hl7.org/CodeSystem/observation-category",
                "code": "laboratory"
              }
            ]
          }
        ],
        "code": {
          "coding": [
            {
              "code": "5797-6",
              "system": "http://loinc.org",
              "display": "Ketones [Mass/volume] in Urine by Test strip"
            }
          ],
          "text": "Ketones [Mass/volume] in Urine by Test strip"
        },
        "valueQuantity": {
          "system": "http://unitsofmeasure.org",
          "value": 19.5,
          "unit": "mg/dL",
          "code": "mg/dL"
        },
        "referenceRange": [
          {
            "low": {
              "value": 0,
              "code": "mg/dL",
              "system": "http://unitsofmeasure.org"
            }
          },
          {
            "high": {
              "value": 3,
              "code": "mg/dL",
              "system": "http://unitsofmeasure.org"
            }
          }
        ],
        "interpretation": [
          {
            "coding": [
              {
                "code": "H",
                "system": "http://terminology.hl7.org/CodeSystem/v3-ObservationInterpretation",
                "display": "High"
              }
            ]
          }
        ],
        "text": {
          "status": "generated",
          "div": "<div xmlns=\"http://www.w3.org/1999/xhtml\"><table class=\"hl7__eu__lab__report\"><tr><th>Test</th><th>07-Aug-2020</th><th>Reference&#xA0;Range</th><th>Unit</th></tr><tr><td>Ketones [Mass/volume] in Urine by Test strip</td><td>19.5</td><td>0 - 3</td><td>H</td><td>mg/dL</td></tr></table></div>"
        },
        "status": "final",
        "subject": {
          "reference": "urn:uuid:1d731d29-c457-4da4-abad-f4e47a10479e",
          "display": "Victor Lagarde"
        },
        "effectiveDateTime": "2020-08-07T04:48:18Z",
        "specimen": {
          "reference": "urn:uuid:07db3f4f-5e40-4742-b0a2-911b05cc7548"
        }
      }
    },
    {
      "fullUrl": "urn:uuid:9cc26f66-27a4-4fb3-a4c8-1fe5be0fa130",
      "resource": {
        "resourceType": "Observation",
        "id": "9cc26f66-27a4-4fb3-a4c8-1fe5be0fa130",
        "meta": {
          "profile": [
            "http://hl7.eu/fhir/laboratory/StructureDefinition/Observation-resultslab-eu-lab"
          ]
        },
        "performer": [
          {
            "display": "The Central European Lab"
          }
        ],
        "category": [
          {
            "coding": [
              {
                "system": "http://terminology.hl7.org/CodeSystem/observation-category",
                "code": "laboratory"
              }
            ]
          }
        ],
        "code": {
          "coding": [
            {
              "code": "2514-8",
              "system": "http://loinc.org",
              "display": "Ketones [Presence] in Urine by Test strip"
            }
          ],
          "text": "Ketones [Presence] in Urine by Test strip"
        },
        "text": {
          "status": "generated",
          "div": "<div xmlns=\"http://www.w3.org/1999/xhtml\"><table class=\"hl7__eu__lab__report\"><tr><th>Test</th><th>07-Aug-2020</th><th>Reference&#xA0;Range</th><th>Unit</th></tr><tr><td>Ketones [Presence] in Urine by Test strip</td></tr></table></div>"
        },
        "status": "final",
        "subject": {
          "reference": "urn:uuid:1d731d29-c457-4da4-abad-f4e47a10479e",
          "display": "Victor Lagarde"
        },
        "effectiveDateTime": "2020-08-07T04:48:18Z",
        "specimen": {
          "reference": "urn:uuid:07db3f4f-5e40-4742-b0a2-911b05cc7548"
        }
      }
    },
    {
      "fullUrl": "urn:uuid:95013c98-b7f0-4b94-bc67-48793ca9c4f2",
      "resource": {
        "resourceType": "Observation",
        "id": "95013c98-b7f0-4b94-bc67-48793ca9c4f2",
        "meta": {
          "profile": [
            "http://hl7.eu/fhir/laboratory/StructureDefinition/Observation-resultslab-eu-lab"
          ]
        },
        "performer": [
          {
            "display": "The Central European Lab"
          }
        ],
        "category": [
          {
            "coding": [
              {
                "system": "http://terminology.hl7.org/CodeSystem/observation-category",
                "code": "laboratory"
              }
            ]
          }
        ],
        "code": {
          "coding": [
            {
              "code": "5811-5",
              "system": "http://loinc.org",
              "display": "Specific gravity of Urine by Test strip"
            }
          ],
          "text": "Specific gravity of Urine by Test strip"
        },
        "valueQuantity": {
          "system": "http://unitsofmeasure.org",
          "value": 1,
          "unit": "{nominal}",
          "code": "{nominal}"
        },
        "referenceRange": [
          {
            "low": {
              "value": 1.01,
              "code": "g/mL",
              "system": "http://unitsofmeasure.org"
            }
          },
          {
            "high": {
              "value": 1.03,
              "code": "g/mL",
              "system": "http://unitsofmeasure.org"
            }
          }
        ],
        "interpretation": [
          {
            "coding": [
              {
                "code": "L",
                "system": "http://terminology.hl7.org/CodeSystem/v3-ObservationInterpretation",
                "display": "Low"
              }
            ]
          }
        ],
        "text": {
          "status": "generated",
          "div": "<div xmlns=\"http://www.w3.org/1999/xhtml\"><table class=\"hl7__eu__lab__report\"><tr><th>Test</th><th>07-Aug-2020</th><th>Reference&#xA0;Range</th><th>Unit</th></tr><tr><td>Specific gravity of Urine by Test strip</td><td>1.0</td><td>1.01 - 1.03</td><td>L</td><td>{nominal}</td></tr></table></div>"
        },
        "status": "final",
        "subject": {
          "reference": "urn:uuid:1d731d29-c457-4da4-abad-f4e47a10479e",
          "display": "Victor Lagarde"
        },
        "effectiveDateTime": "2020-08-07T04:48:18Z",
        "specimen": {
          "reference": "urn:uuid:07db3f4f-5e40-4742-b0a2-911b05cc7548"
        }
      }
    },
    {
      "fullUrl": "urn:uuid:1c5e6ce3-022e-4fab-96db-3549cfb57b27",
      "resource": {
        "resourceType": "Observation",
        "id": "1c5e6ce3-022e-4fab-96db-3549cfb57b27",
        "meta": {
          "profile": [
            "http://hl7.eu/fhir/laboratory/StructureDefinition/Observation-resultslab-eu-lab"
          ]
        },
        "performer": [
          {
            "display": "The Central European Lab"
          }
        ],
        "category": [
          {
            "coding": [
              {
                "system": "http://terminology.hl7.org/CodeSystem/observation-category",
                "code": "laboratory"
              }
            ]
          }
        ],
        "code": {
          "coding": [
            {
              "code": "5803-2",
              "system": "http://loinc.org",
              "display": "pH of Urine by Test strip"
            }
          ],
          "text": "pH of Urine by Test strip"
        },
        "valueQuantity": {
          "system": "http://unitsofmeasure.org",
          "value": 6.9,
          "unit": "pH",
          "code": "pH"
        },
        "referenceRange": [
          {
            "low": {
              "value": 4.5,
              "code": "pH",
              "system": "http://unitsofmeasure.org"
            }
          },
          {
            "high": {
              "value": 7.5,
              "code": "pH",
              "system": "http://unitsofmeasure.org"
            }
          }
        ],
        "text": {
          "status": "generated",
          "div": "<div xmlns=\"http://www.w3.org/1999/xhtml\"><table class=\"hl7__eu__lab__report\"><tr><th>Test</th><th>07-Aug-2020</th><th>Reference&#xA0;Range</th><th>Unit</th></tr><tr><td>pH of Urine by Test strip</td><td>6.9</td><td>4.5 - 7.5</td><td></td><td>pH</td></tr></table></div>"
        },
        "status": "final",
        "subject": {
          "reference": "urn:uuid:1d731d29-c457-4da4-abad-f4e47a10479e",
          "display": "Victor Lagarde"
        },
        "effectiveDateTime": "2020-08-07T04:48:18Z",
        "specimen": {
          "reference": "urn:uuid:07db3f4f-5e40-4742-b0a2-911b05cc7548"
        }
      }
    },
    {
      "fullUrl": "urn:uuid:48c2e437-4c16-4e68-bcca-817518b0e722",
      "resource": {
        "resourceType": "Observation",
        "id": "48c2e437-4c16-4e68-bcca-817518b0e722",
        "meta": {
          "profile": [
            "http://hl7.eu/fhir/laboratory/StructureDefinition/Observation-resultslab-eu-lab"
          ]
        },
        "performer": [
          {
            "display": "The Central European Lab"
          }
        ],
        "category": [
          {
            "coding": [
              {
                "system": "http://terminology.hl7.org/CodeSystem/observation-category",
                "code": "laboratory"
              }
            ]
          }
        ],
        "code": {
          "coding": [
            {
              "code": "5804-0",
              "system": "http://loinc.org",
              "display": "Protein [Mass/volume] in Urine by Test strip"
            }
          ],
          "text": "Protein [Mass/volume] in Urine by Test strip"
        },
        "valueQuantity": {
          "system": "http://unitsofmeasure.org",
          "value": 378.4,
          "unit": "mg/dL",
          "code": "mg/dL"
        },
        "referenceRange": [
          {
            "low": {
              "value": 0,
              "code": "mg/dL",
              "system": "http://unitsofmeasure.org"
            }
          },
          {
            "high": {
              "value": 149,
              "code": "mg/dL",
              "system": "http://unitsofmeasure.org"
            }
          }
        ],
        "interpretation": [
          {
            "coding": [
              {
                "code": "H",
                "system": "http://terminology.hl7.org/CodeSystem/v3-ObservationInterpretation",
                "display": "High"
              }
            ]
          }
        ],
        "text": {
          "status": "generated",
          "div": "<div xmlns=\"http://www.w3.org/1999/xhtml\"><table class=\"hl7__eu__lab__report\"><tr><th>Test</th><th>07-Aug-2020</th><th>Reference&#xA0;Range</th><th>Unit</th></tr><tr><td>Protein [Mass/volume] in Urine by Test strip</td><td>378.4</td><td>0 - 149</td><td>H</td><td>mg/dL</td></tr></table></div>"
        },
        "status": "final",
        "subject": {
          "reference": "urn:uuid:1d731d29-c457-4da4-abad-f4e47a10479e",
          "display": "Victor Lagarde"
        },
        "effectiveDateTime": "2020-08-07T04:48:18Z",
        "specimen": {
          "reference": "urn:uuid:07db3f4f-5e40-4742-b0a2-911b05cc7548"
        }
      }
    },
    {
      "fullUrl": "urn:uuid:467ba81c-6ebd-4852-afbd-265cab44a8ba",
      "resource": {
        "resourceType": "Observation",
        "id": "467ba81c-6ebd-4852-afbd-265cab44a8ba",
        "meta": {
          "profile": [
            "http://hl7.eu/fhir/laboratory/StructureDefinition/Observation-resultslab-eu-lab"
          ]
        },
        "performer": [
          {
            "display": "The Central European Lab"
          }
        ],
        "category": [
          {
            "coding": [
              {
                "system": "http://terminology.hl7.org/CodeSystem/observation-category",
                "code": "laboratory"
              }
            ]
          }
        ],
        "code": {
          "coding": [
            {
              "code": "20454-5",
              "system": "http://loinc.org",
              "display": "Protein [Presence] in Urine by Test strip"
            }
          ],
          "text": "Protein [Presence] in Urine by Test strip"
        },
        "text": {
          "status": "generated",
          "div": "<div xmlns=\"http://www.w3.org/1999/xhtml\"><table class=\"hl7__eu__lab__report\"><tr><th>Test</th><th>07-Aug-2020</th><th>Reference&#xA0;Range</th><th>Unit</th></tr><tr><td>Protein [Presence] in Urine by Test strip</td></tr></table></div>"
        },
        "status": "final",
        "subject": {
          "reference": "urn:uuid:1d731d29-c457-4da4-abad-f4e47a10479e",
          "display": "Victor Lagarde"
        },
        "effectiveDateTime": "2020-08-07T04:48:18Z",
        "specimen": {
          "reference": "urn:uuid:07db3f4f-5e40-4742-b0a2-911b05cc7548"
        }
      }
    },
    {
      "fullUrl": "urn:uuid:d7a5843d-7c40-4315-ae47-6af7f73fb3ff",
      "resource": {
        "resourceType": "Observation",
        "id": "d7a5843d-7c40-4315-ae47-6af7f73fb3ff",
        "meta": {
          "profile": [
            "http://hl7.eu/fhir/laboratory/StructureDefinition/Observation-resultslab-eu-lab"
          ]
        },
        "performer": [
          {
            "display": "The Central European Lab"
          }
        ],
        "category": [
          {
            "coding": [
              {
                "system": "http://terminology.hl7.org/CodeSystem/observation-category",
                "code": "laboratory"
              }
            ]
          }
        ],
        "code": {
          "coding": [
            {
              "code": "5802-4",
              "system": "http://loinc.org",
              "display": "Nitrite [Presence] in Urine by Test strip"
            }
          ],
          "text": "Nitrite [Presence] in Urine by Test strip"
        },
        "text": {
          "status": "generated",
          "div": "<div xmlns=\"http://www.w3.org/1999/xhtml\"><table class=\"hl7__eu__lab__report\"><tr><th>Test</th><th>07-Aug-2020</th><th>Reference&#xA0;Range</th><th>Unit</th></tr><tr><td>Nitrite [Presence] in Urine by Test strip</td></tr></table></div>"
        },
        "status": "final",
        "subject": {
          "reference": "urn:uuid:1d731d29-c457-4da4-abad-f4e47a10479e",
          "display": "Victor Lagarde"
        },
        "effectiveDateTime": "2020-08-07T04:48:18Z",
        "specimen": {
          "reference": "urn:uuid:07db3f4f-5e40-4742-b0a2-911b05cc7548"
        }
      }
    },
    {
      "fullUrl": "urn:uuid:68acfa2b-d5ec-45b0-a412-81acd2e28e65",
      "resource": {
        "resourceType": "Observation",
        "id": "68acfa2b-d5ec-45b0-a412-81acd2e28e65",
        "meta": {
          "profile": [
            "http://hl7.eu/fhir/laboratory/StructureDefinition/Observation-resultslab-eu-lab"
          ]
        },
        "performer": [
          {
            "display": "The Central European Lab"
          }
        ],
        "category": [
          {
            "coding": [
              {
                "system": "http://terminology.hl7.org/CodeSystem/observation-category",
                "code": "laboratory"
              }
            ]
          }
        ],
        "code": {
          "coding": [
            {
              "code": "5794-3",
              "system": "http://loinc.org",
              "display": "Hemoglobin [Presence] in Urine by Test strip"
            }
          ],
          "text": "Hemoglobin [Presence] in Urine by Test strip"
        },
        "text": {
          "status": "generated",
          "div": "<div xmlns=\"http://www.w3.org/1999/xhtml\"><table class=\"hl7__eu__lab__report\"><tr><th>Test</th><th>07-Aug-2020</th><th>Reference&#xA0;Range</th><th>Unit</th></tr><tr><td>Hemoglobin [Presence] in Urine by Test strip</td></tr></table></div>"
        },
        "status": "final",
        "subject": {
          "reference": "urn:uuid:1d731d29-c457-4da4-abad-f4e47a10479e",
          "display": "Victor Lagarde"
        },
        "effectiveDateTime": "2020-08-07T04:48:18Z",
        "specimen": {
          "reference": "urn:uuid:07db3f4f-5e40-4742-b0a2-911b05cc7548"
        }
      }
    },
    {
      "fullUrl": "urn:uuid:0a760db5-720c-46f6-8921-639a139412b8",
      "resource": {
        "resourceType": "Observation",
        "id": "0a760db5-720c-46f6-8921-639a139412b8",
        "meta": {
          "profile": [
            "http://hl7.eu/fhir/laboratory/StructureDefinition/Observation-resultslab-eu-lab"
          ]
        },
        "performer": [
          {
            "display": "The Central European Lab"
          }
        ],
        "category": [
          {
            "coding": [
              {
                "system": "http://terminology.hl7.org/CodeSystem/observation-category",
                "code": "laboratory"
              }
            ]
          }
        ],
        "code": {
          "coding": [
            {
              "code": "5799-2",
              "system": "http://loinc.org",
              "display": "Leukocyte esterase [Presence] in Urine by Test strip"
            }
          ],
          "text": "Leukocyte esterase [Presence] in Urine by Test strip"
        },
        "text": {
          "status": "generated",
          "div": "<div xmlns=\"http://www.w3.org/1999/xhtml\"><table class=\"hl7__eu__lab__report\"><tr><th>Test</th><th>07-Aug-2020</th><th>Reference&#xA0;Range</th><th>Unit</th></tr><tr><td>Leukocyte esterase [Presence] in Urine by Test strip</td></tr></table></div>"
        },
        "status": "final",
        "subject": {
          "reference": "urn:uuid:1d731d29-c457-4da4-abad-f4e47a10479e",
          "display": "Victor Lagarde"
        },
        "effectiveDateTime": "2020-08-07T04:48:18Z",
        "specimen": {
          "reference": "urn:uuid:07db3f4f-5e40-4742-b0a2-911b05cc7548"
        }
      }
    },
    {
      "fullUrl": "urn:uuid:658e5070-677a-4dc5-ac67-ac062db05018",
      "resource": {
        "resourceType": "Observation",
        "id": "658e5070-677a-4dc5-ac67-ac062db05018",
        "meta": {
          "profile": [
            "http://hl7.eu/fhir/laboratory/StructureDefinition/Observation-resultslab-eu-lab"
          ]
        },
        "performer": [
          {
            "display": "The Central European Lab"
          }
        ],
        "category": [
          {
            "coding": [
              {
                "system": "http://terminology.hl7.org/CodeSystem/observation-category",
                "code": "laboratory"
              }
            ]
          }
        ],
        "code": {
          "coding": [
            {
              "code": "4548-4",
              "system": "http://loinc.org",
              "display": "Hemoglobin A1c/Hemoglobin.total in Blood"
            }
          ],
          "text": "Hemoglobin A1c/Hemoglobin.total in Blood"
        },
        "valueQuantity": {
          "system": "http://unitsofmeasure.org",
          "value": 3,
          "unit": "%",
          "code": "%"
        },
        "referenceRange": [
          {
            "low": {
              "value": 4.3,
              "code": "%",
              "system": "http://unitsofmeasure.org"
            }
          },
          {
            "high": {
              "value": 6,
              "code": "%",
              "system": "http://unitsofmeasure.org"
            }
          }
        ],
        "interpretation": [
          {
            "coding": [
              {
                "code": "L",
                "system": "http://terminology.hl7.org/CodeSystem/v3-ObservationInterpretation",
                "display": "Low"
              }
            ]
          }
        ],
        "text": {
          "status": "generated",
          "div": "<div xmlns=\"http://www.w3.org/1999/xhtml\"><table class=\"hl7__eu__lab__report\"><tr><th>Test</th><th>07-Aug-2020</th><th>Reference&#xA0;Range</th><th>Unit</th></tr><tr><td>Hemoglobin A1c/Hemoglobin.total in Blood</td><td>3.0</td><td>4.3 - 6</td><td>L</td><td>%</td></tr></table></div>"
        },
        "status": "final",
        "subject": {
          "reference": "urn:uuid:1d731d29-c457-4da4-abad-f4e47a10479e",
          "display": "Victor Lagarde"
        },
        "effectiveDateTime": "2020-08-07T04:48:18Z",
        "specimen": {
          "reference": "urn:uuid:d0d0cac8-b9ca-4d2a-a38c-541c591850c9"
        }
      }
    },
    {
      "fullUrl": "urn:uuid:495d03f4-22d0-4f6b-8d70-6a5efadd85d4",
      "resource": {
        "resourceType": "Observation",
        "id": "495d03f4-22d0-4f6b-8d70-6a5efadd85d4",
        "meta": {
          "profile": [
            "http://hl7.eu/fhir/laboratory/StructureDefinition/Observation-resultslab-eu-lab"
          ]
        },
        "performer": [
          {
            "display": "The Central European Lab"
          }
        ],
        "category": [
          {
            "coding": [
              {
                "system": "http://terminology.hl7.org/CodeSystem/observation-category",
                "code": "laboratory"
              }
            ]
          }
        ],
        "code": {
          "coding": [
            {
              "code": "2339-0",
              "system": "http://loinc.org",
              "display": "Glucose [Mass/volume] in Blood"
            }
          ],
          "text": "Glucose [Mass/volume] in Blood"
        },
        "valueQuantity": {
          "system": "http://unitsofmeasure.org",
          "value": 87.8,
          "unit": "mg/dL",
          "code": "mg/dL"
        },
        "referenceRange": [
          {
            "low": {
              "value": 70,
              "code": "mg/dL",
              "system": "http://unitsofmeasure.org"
            }
          },
          {
            "high": {
              "value": 140,
              "code": "mg/dL",
              "system": "http://unitsofmeasure.org"
            }
          }
        ],
        "text": {
          "status": "generated",
          "div": "<div xmlns=\"http://www.w3.org/1999/xhtml\"><table class=\"hl7__eu__lab__report\"><tr><th>Test</th><th>07-Aug-2020</th><th>Reference&#xA0;Range</th><th>Unit</th></tr><tr><td>Glucose [Mass/volume] in Blood</td><td>87.8</td><td>70 - 140</td><td></td><td>mg/dL</td></tr></table></div>"
        },
        "status": "final",
        "subject": {
          "reference": "urn:uuid:1d731d29-c457-4da4-abad-f4e47a10479e",
          "display": "Victor Lagarde"
        },
        "effectiveDateTime": "2020-08-07T04:48:18Z",
        "specimen": {
          "reference": "urn:uuid:d0d0cac8-b9ca-4d2a-a38c-541c591850c9"
        }
      }
    },
    {
      "fullUrl": "urn:uuid:86bf8b9a-19a2-47da-98df-15fc7fc0e804",
      "resource": {
        "resourceType": "Observation",
        "id": "86bf8b9a-19a2-47da-98df-15fc7fc0e804",
        "meta": {
          "profile": [
            "http://hl7.eu/fhir/laboratory/StructureDefinition/Observation-resultslab-eu-lab"
          ]
        },
        "performer": [
          {
            "display": "The Central European Lab"
          }
        ],
        "category": [
          {
            "coding": [
              {
                "system": "http://terminology.hl7.org/CodeSystem/observation-category",
                "code": "laboratory"
              }
            ]
          }
        ],
        "code": {
          "coding": [
            {
              "code": "6299-2",
              "system": "http://loinc.org",
              "display": "Urea nitrogen [Mass/volume] in Blood"
            }
          ],
          "text": "Urea nitrogen [Mass/volume] in Blood"
        },
        "valueQuantity": {
          "system": "http://unitsofmeasure.org",
          "value": 16.7,
          "unit": "mg/dL",
          "code": "mg/dL"
        },
        "referenceRange": [
          {
            "low": {
              "value": 7,
              "code": "mg/dL",
              "system": "http://unitsofmeasure.org"
            }
          },
          {
            "high": {
              "value": 20,
              "code": "mg/dL",
              "system": "http://unitsofmeasure.org"
            }
          }
        ],
        "text": {
          "status": "generated",
          "div": "<div xmlns=\"http://www.w3.org/1999/xhtml\"><table class=\"hl7__eu__lab__report\"><tr><th>Test</th><th>07-Aug-2020</th><th>Reference&#xA0;Range</th><th>Unit</th></tr><tr><td>Urea nitrogen [Mass/volume] in Blood</td><td>16.7</td><td>7 - 20</td><td></td><td>mg/dL</td></tr></table></div>"
        },
        "status": "final",
        "subject": {
          "reference": "urn:uuid:1d731d29-c457-4da4-abad-f4e47a10479e",
          "display": "Victor Lagarde"
        },
        "effectiveDateTime": "2020-08-07T04:48:18Z",
        "specimen": {
          "reference": "urn:uuid:d0d0cac8-b9ca-4d2a-a38c-541c591850c9"
        }
      }
    },
    {
      "fullUrl": "urn:uuid:648d2f2d-88c6-4f50-bd18-814860a66eb6",
      "resource": {
        "resourceType": "Observation",
        "id": "648d2f2d-88c6-4f50-bd18-814860a66eb6",
        "meta": {
          "profile": [
            "http://hl7.eu/fhir/laboratory/StructureDefinition/Observation-resultslab-eu-lab"
          ]
        },
        "performer": [
          {
            "display": "The Central European Lab"
          }
        ],
        "category": [
          {
            "coding": [
              {
                "system": "http://terminology.hl7.org/CodeSystem/observation-category",
                "code": "laboratory"
              }
            ]
          }
        ],
        "code": {
          "coding": [
            {
              "code": "38483-4",
              "system": "http://loinc.org",
              "display": "Creatinine [Mass/volume] in Blood"
            }
          ],
          "text": "Creatinine [Mass/volume] in Blood"
        },
        "valueQuantity": {
          "system": "http://unitsofmeasure.org",
          "value": 3.7,
          "unit": "mg/dL",
          "code": "mg/dL"
        },
        "referenceRange": [
          {
            "low": {
              "value": 0.9,
              "code": "mg/dL",
              "system": "http://unitsofmeasure.org"
            }
          },
          {
            "high": {
              "value": 1.3,
              "code": "mg/dL",
              "system": "http://unitsofmeasure.org"
            }
          }
        ],
        "interpretation": [
          {
            "coding": [
              {
                "code": "H",
                "system": "http://terminology.hl7.org/CodeSystem/v3-ObservationInterpretation",
                "display": "High"
              }
            ]
          }
        ],
        "text": {
          "status": "generated",
          "div": "<div xmlns=\"http://www.w3.org/1999/xhtml\"><table class=\"hl7__eu__lab__report\"><tr><th>Test</th><th>07-Aug-2020</th><th>Reference&#xA0;Range</th><th>Unit</th></tr><tr><td>Creatinine [Mass/volume] in Blood</td><td>3.7</td><td>0.9 - 1.3</td><td>H</td><td>mg/dL</td></tr></table></div>"
        },
        "status": "final",
        "subject": {
          "reference": "urn:uuid:1d731d29-c457-4da4-abad-f4e47a10479e",
          "display": "Victor Lagarde"
        },
        "effectiveDateTime": "2020-08-07T04:48:18Z",
        "specimen": {
          "reference": "urn:uuid:d0d0cac8-b9ca-4d2a-a38c-541c591850c9"
        }
      }
    },
    {
      "fullUrl": "urn:uuid:15b0ec28-b317-41e6-9bc0-284f36d61428",
      "resource": {
        "resourceType": "Observation",
        "id": "15b0ec28-b317-41e6-9bc0-284f36d61428",
        "meta": {
          "profile": [
            "http://hl7.eu/fhir/laboratory/StructureDefinition/Observation-resultslab-eu-lab"
          ]
        },
        "performer": [
          {
            "display": "The Central European Lab"
          }
        ],
        "category": [
          {
            "coding": [
              {
                "system": "http://terminology.hl7.org/CodeSystem/observation-category",
                "code": "laboratory"
              }
            ]
          }
        ],
        "code": {
          "coding": [
            {
              "code": "49765-1",
              "system": "http://loinc.org",
              "display": "Calcium [Mass/volume] in Blood"
            }
          ],
          "text": "Calcium [Mass/volume] in Blood"
        },
        "valueQuantity": {
          "system": "http://unitsofmeasure.org",
          "value": 10,
          "unit": "mg/dL",
          "code": "mg/dL"
        },
        "referenceRange": [
          {
            "low": {
              "value": 8.5,
              "code": "mg/dL",
              "system": "http://unitsofmeasure.org"
            }
          },
          {
            "high": {
              "value": 10.5,
              "code": "mg/dL",
              "system": "http://unitsofmeasure.org"
            }
          }
        ],
        "text": {
          "status": "generated",
          "div": "<div xmlns=\"http://www.w3.org/1999/xhtml\"><table class=\"hl7__eu__lab__report\"><tr><th>Test</th><th>07-Aug-2020</th><th>Reference&#xA0;Range</th><th>Unit</th></tr><tr><td>Calcium [Mass/volume] in Blood</td><td>10.0</td><td>8.5 - 10.5</td><td></td><td>mg/dL</td></tr></table></div>"
        },
        "status": "final",
        "subject": {
          "reference": "urn:uuid:1d731d29-c457-4da4-abad-f4e47a10479e",
          "display": "Victor Lagarde"
        },
        "effectiveDateTime": "2020-08-07T04:48:18Z",
        "specimen": {
          "reference": "urn:uuid:d0d0cac8-b9ca-4d2a-a38c-541c591850c9"
        }
      }
    },
    {
      "fullUrl": "urn:uuid:74af661e-25f9-4df8-8cf6-57f391297173",
      "resource": {
        "resourceType": "Observation",
        "id": "74af661e-25f9-4df8-8cf6-57f391297173",
        "meta": {
          "profile": [
            "http://hl7.eu/fhir/laboratory/StructureDefinition/Observation-resultslab-eu-lab"
          ]
        },
        "performer": [
          {
            "display": "The Central European Lab"
          }
        ],
        "category": [
          {
            "coding": [
              {
                "system": "http://terminology.hl7.org/CodeSystem/observation-category",
                "code": "laboratory"
              }
            ]
          }
        ],
        "code": {
          "coding": [
            {
              "code": "2947-0",
              "system": "http://loinc.org",
              "display": "Sodium [Moles/volume] in Blood"
            }
          ],
          "text": "Sodium [Moles/volume] in Blood"
        },
        "valueQuantity": {
          "system": "http://unitsofmeasure.org",
          "value": 136.3,
          "unit": "mmol/L",
          "code": "mmol/L"
        },
        "referenceRange": [
          {
            "low": {
              "value": 135,
              "code": "mmol/L",
              "system": "http://unitsofmeasure.org"
            }
          },
          {
            "high": {
              "value": 145,
              "code": "mmol/L",
              "system": "http://unitsofmeasure.org"
            }
          }
        ],
        "text": {
          "status": "generated",
          "div": "<div xmlns=\"http://www.w3.org/1999/xhtml\"><table class=\"hl7__eu__lab__report\"><tr><th>Test</th><th>07-Aug-2020</th><th>Reference&#xA0;Range</th><th>Unit</th></tr><tr><td>Sodium [Moles/volume] in Blood</td><td>136.3</td><td>135 - 145</td><td></td><td>mmol/L</td></tr></table></div>"
        },
        "status": "final",
        "subject": {
          "reference": "urn:uuid:1d731d29-c457-4da4-abad-f4e47a10479e",
          "display": "Victor Lagarde"
        },
        "effectiveDateTime": "2020-08-07T04:48:18Z",
        "specimen": {
          "reference": "urn:uuid:d0d0cac8-b9ca-4d2a-a38c-541c591850c9"
        }
      }
    },
    {
      "fullUrl": "urn:uuid:cbbda8b3-1491-4f19-ad33-292b65210e1d",
      "resource": {
        "resourceType": "Observation",
        "id": "cbbda8b3-1491-4f19-ad33-292b65210e1d",
        "meta": {
          "profile": [
            "http://hl7.eu/fhir/laboratory/StructureDefinition/Observation-resultslab-eu-lab"
          ]
        },
        "performer": [
          {
            "display": "The Central European Lab"
          }
        ],
        "category": [
          {
            "coding": [
              {
                "system": "http://terminology.hl7.org/CodeSystem/observation-category",
                "code": "laboratory"
              }
            ]
          }
        ],
        "code": {
          "coding": [
            {
              "code": "6298-4",
              "system": "http://loinc.org",
              "display": "Potassium [Moles/volume] in Blood"
            }
          ],
          "text": "Potassium [Moles/volume] in Blood"
        },
        "valueQuantity": {
          "system": "http://unitsofmeasure.org",
          "value": 5.1,
          "unit": "mmol/L",
          "code": "mmol/L"
        },
        "referenceRange": [
          {
            "low": {
              "value": 3.5,
              "code": "mmol/L",
              "system": "http://unitsofmeasure.org"
            }
          },
          {
            "high": {
              "value": 5.1,
              "code": "mmol/L",
              "system": "http://unitsofmeasure.org"
            }
          }
        ],
        "text": {
          "status": "generated",
          "div": "<div xmlns=\"http://www.w3.org/1999/xhtml\"><table class=\"hl7__eu__lab__report\"><tr><th>Test</th><th>07-Aug-2020</th><th>Reference&#xA0;Range</th><th>Unit</th></tr><tr><td>Potassium [Moles/volume] in Blood</td><td>5.1</td><td>3.5 - 5.1</td><td></td><td>mmol/L</td></tr></table></div>"
        },
        "status": "final",
        "subject": {
          "reference": "urn:uuid:1d731d29-c457-4da4-abad-f4e47a10479e",
          "display": "Victor Lagarde"
        },
        "effectiveDateTime": "2020-08-07T04:48:18Z",
        "specimen": {
          "reference": "urn:uuid:d0d0cac8-b9ca-4d2a-a38c-541c591850c9"
        }
      }
    },
    {
      "fullUrl": "urn:uuid:55e3f142-13ff-46d3-a77e-1353c7e082a7",
      "resource": {
        "resourceType": "Observation",
        "id": "55e3f142-13ff-46d3-a77e-1353c7e082a7",
        "meta": {
          "profile": [
            "http://hl7.eu/fhir/laboratory/StructureDefinition/Observation-resultslab-eu-lab"
          ]
        },
        "performer": [
          {
            "display": "The Central European Lab"
          }
        ],
        "category": [
          {
            "coding": [
              {
                "system": "http://terminology.hl7.org/CodeSystem/observation-category",
                "code": "laboratory"
              }
            ]
          }
        ],
        "code": {
          "coding": [
            {
              "code": "2069-3",
              "system": "http://loinc.org",
              "display": "Chloride [Moles/volume] in Blood"
            }
          ],
          "text": "Chloride [Moles/volume] in Blood"
        },
        "valueQuantity": {
          "system": "http://unitsofmeasure.org",
          "value": 107.1,
          "unit": "mmol/L",
          "code": "mmol/L"
        },
        "referenceRange": [
          {
            "low": {
              "value": 98,
              "code": "mmol/L",
              "system": "http://unitsofmeasure.org"
            }
          },
          {
            "high": {
              "value": 108,
              "code": "mmol/L",
              "system": "http://unitsofmeasure.org"
            }
          }
        ],
        "text": {
          "status": "generated",
          "div": "<div xmlns=\"http://www.w3.org/1999/xhtml\"><table class=\"hl7__eu__lab__report\"><tr><th>Test</th><th>07-Aug-2020</th><th>Reference&#xA0;Range</th><th>Unit</th></tr><tr><td>Chloride [Moles/volume] in Blood</td><td>107.1</td><td>98 - 108</td><td></td><td>mmol/L</td></tr></table></div>"
        },
        "status": "final",
        "subject": {
          "reference": "urn:uuid:1d731d29-c457-4da4-abad-f4e47a10479e",
          "display": "Victor Lagarde"
        },
        "effectiveDateTime": "2020-08-07T04:48:18Z",
        "specimen": {
          "reference": "urn:uuid:d0d0cac8-b9ca-4d2a-a38c-541c591850c9"
        }
      }
    },
    {
      "fullUrl": "urn:uuid:17b312c2-4da9-4189-a58d-0909faa221ba",
      "resource": {
        "resourceType": "Observation",
        "id": "17b312c2-4da9-4189-a58d-0909faa221ba",
        "meta": {
          "profile": [
            "http://hl7.eu/fhir/laboratory/StructureDefinition/Observation-resultslab-eu-lab"
          ]
        },
        "performer": [
          {
            "display": "The Central European Lab"
          }
        ],
        "category": [
          {
            "coding": [
              {
                "system": "http://terminology.hl7.org/CodeSystem/observation-category",
                "code": "laboratory"
              }
            ]
          }
        ],
        "code": {
          "coding": [
            {
              "code": "20565-8",
              "system": "http://loinc.org",
              "display": "Carbon dioxide, total [Moles/volume] in Blood"
            }
          ],
          "text": "Carbon dioxide, total [Moles/volume] in Blood"
        },
        "valueQuantity": {
          "system": "http://unitsofmeasure.org",
          "value": 21.1,
          "unit": "mmol/L",
          "code": "mmol/L"
        },
        "referenceRange": [
          {
            "low": {
              "value": 22,
              "code": "mmol/L",
              "system": "http://unitsofmeasure.org"
            }
          },
          {
            "high": {
              "value": 29,
              "code": "mmol/L",
              "system": "http://unitsofmeasure.org"
            }
          }
        ],
        "interpretation": [
          {
            "coding": [
              {
                "code": "L",
                "system": "http://terminology.hl7.org/CodeSystem/v3-ObservationInterpretation",
                "display": "Low"
              }
            ]
          }
        ],
        "text": {
          "status": "generated",
          "div": "<div xmlns=\"http://www.w3.org/1999/xhtml\"><table class=\"hl7__eu__lab__report\"><tr><th>Test</th><th>07-Aug-2020</th><th>Reference&#xA0;Range</th><th>Unit</th></tr><tr><td>Carbon dioxide, total [Moles/volume] in Blood</td><td>21.1</td><td>22 - 29</td><td>L</td><td>mmol/L</td></tr></table></div>"
        },
        "status": "final",
        "subject": {
          "reference": "urn:uuid:1d731d29-c457-4da4-abad-f4e47a10479e",
          "display": "Victor Lagarde"
        },
        "effectiveDateTime": "2020-08-07T04:48:18Z",
        "specimen": {
          "reference": "urn:uuid:d0d0cac8-b9ca-4d2a-a38c-541c591850c9"
        }
      }
    },
    {
      "fullUrl": "urn:uuid:949d1c4d-b4e2-4e47-87c7-13ccf6cabfc2",
      "resource": {
        "resourceType": "Device",
        "id": "949d1c4d-b4e2-4e47-87c7-13ccf6cabfc2",
        "deviceName": [
          {
            "name": "SYNDERAI Synthetic Generator",
            "type": "manufacturer-name"
          }
        ],
        "version": [
          {
            "value": "5.0"
          }
        ],
        "text": {
          "status": "generated",
          "div": "<div xmlns=\"http://www.w3.org/1999/xhtml\">SYNDERAI Synthetic Generator v5.0</div>"
        },
        "status": "active\"",
        "distinctIdentifier": "synderai-generator-50",
        "manufacturer": "SYNDERAI Project"
      }
    },
    {
      "fullUrl": "urn:uuid:4422d89f-91b1-4020-8565-ca2cfe671f66",
      "resource": {
        "resourceType": "Provenance",
        "id": "4422d89f-91b1-4020-8565-ca2cfe671f66",
        "target": [
          {
            "reference": "Patient/1d731d29-c457-4da4-abad-f4e47a10479e"
          },
          {
            "reference": "Bundle/a8e30764-4ab9-4456-803f-62dd154c4d44"
          },
          {
            "reference": "Composition/293ec90f-c2df-42af-9ca1-e9b3bed71566"
          },
          {
            "reference": "PractitionerRole/c24b9b7f-d767-4005-8e59-f888e57b9212"
          },
          {
            "reference": "Practitioner/725d67e0-2a7c-45f2-a924-3f84247b2b96"
          },
          {
            "reference": "PractitionerRole/206f55fe-e60f-4b3f-b761-35b02d0390cc"
          },
          {
            "reference": "Organization/ad08ba4a-7b2a-44eb-bd20-434bd5de1087"
          }
        ],
        "activity": {
          "text": "Synthetic Example Data Generation"
        },
        "policy": [
          "https://synderai.net/synderai-synthetic-data-policy"
        ],
        "agent": [
          {
            "type": {
              "text": "author"
            },
            "who": {
              "reference": "Device/949d1c4d-b4e2-4e47-87c7-13ccf6cabfc2"
            }
          }
        ],
        "reason": [
          {
            "text": "Interoperability Testing and Training (non-clinical use)"
          }
        ],
        "text": {
          "status": "generated",
          "div": "<div xmlns=\"http://www.w3.org/1999/xhtml\">Provenance for SYNDERAI Synthetic Example Data Resource</div>"
        },
        "recorded": "2020-08-07T06:48:18Z"
      }
    },
    {
      "fullUrl": "urn:uuid:c24b9b7f-d767-4005-8e59-f888e57b9212",
      "resource": {
        "resourceType": "PractitionerRole",
        "id": "c24b9b7f-d767-4005-8e59-f888e57b9212",
        "meta": {
          "profile": [
            "http://hl7.eu/fhir/base/StructureDefinition/practitionerRole-eu"
          ]
        },
        "text": {
          "status": "generated",
          "div": "<div xmlns=\"http://www.w3.org/1999/xhtml\">Laboratory Role Id: c24b9b7f-d767-4005-8e59-f888e57b9212</div>"
        },
        "practitioner": {
          "reference": "urn:uuid:725d67e0-2a7c-45f2-a924-3f84247b2b96"
        }
      }
    },
    {
      "fullUrl": "urn:uuid:725d67e0-2a7c-45f2-a924-3f84247b2b96",
      "resource": {
        "resourceType": "Practitioner",
        "id": "725d67e0-2a7c-45f2-a924-3f84247b2b96",
        "meta": {
          "profile": [
            "http://hl7.eu/fhir/base/StructureDefinition/practitioner-eu"
          ]
        },
        "identifier": [
          {
            "assigner": {
              "display": "HL7 Europe"
            },
            "system": "urn:oid:2.16.840.1.113883.2.51.999",
            "value": "7abfeea9-ead3-4d92-8f84-83b815b5e3cc"
          }
        ],
        "name": [
          {
            "prefix": [
              "dr"
            ],
            "given": [
              "Ex"
            ],
            "family": "Ample"
          }
        ],
        "address": [
          {
            "line": [
              "Laboratoire Central Européenne",
              "Boulevard du Jardin Botanique 32"
            ],
            "postalCode": "1000",
            "city": "Brussels",
            "country": "Belgium"
          }
        ],
        "text": {
          "status": "generated",
          "div": "<div xmlns=\"http://www.w3.org/1999/xhtml\">Laboratory: Laboratoire Central Européenne, 1000 Brussels, Belgium</div>"
        }
      }
    }
  ],
  "type": "document",
  "timestamp": "2020-08-07T06:48:18Z"
}
