{
  "resourceType": "Bundle",
  "id": "aafe9ddc-ea62-4171-bb13-524712d80a73",
  "meta": {
    "profile": [
      "http://hl7.eu/fhir/laboratory/StructureDefinition/Bundle-eu-lab"
    ]
  },
  "identifier": {
    "assigner": {
      "display": "HL7 Europe"
    },
    "system": "urn:oid:2.16.840.1.113883.2.51.999",
    "value": "4cd34038-ac7a-4a05-97fe-c4832dc28cea"
  },
  "entry": [
    {
      "fullUrl": "urn:uuid:b43fe4dd-1aa1-4265-92bb-afb05bd77829",
      "resource": {
        "resourceType": "Composition",
        "id": "b43fe4dd-1aa1-4265-92bb-afb05bd77829",
        "meta": {
          "profile": [
            "http://hl7.eu/fhir/laboratory/StructureDefinition/Composition-eu-lab"
          ]
        },
        "identifier": {
          "assigner": {
            "display": "HL7 Europe"
          },
          "system": "urn:oid:2.16.840.1.113883.2.51.999",
          "value": "64ebb71d-1aeb-4116-9e76-a0bcef52c774"
        },
        "author": [
          {
            "reference": "urn:uuid:53674b18-7d56-4a1e-84c2-7cb3c0ce4751"
          }
        ],
        "category": [
          {
            "coding": [
              {
                "code": "26436-6",
                "system": "http://loinc.org",
                "display": "Laboratory studies (set)"
              }
            ]
          }
        ],
        "type": {
          "coding": [
            {
              "code": "11502-2",
              "system": "http://loinc.org",
              "display": "Laboratory report"
            }
          ],
          "text": "Laboratory Report"
        },
        "section": [
          {
            "code": {
              "coding": [
                {
                  "code": "26436-6",
                  "system": "http://loinc.org",
                  "display": "Laboratory studies (set)"
                }
              ],
              "text": "Laboratory studies"
            },
            "section": [
              {
                "code": {
                  "coding": [
                    {
                      "code": "$18719-5",
                      "system": "http://loinc.org",
                      "display": "Chemistry studies (set)"
                    }
                  ],
                  "text": "Chemistry"
                },
                "entry": [
                  {
                    "reference": "urn:uuid:ca78375c-1caf-42e0-ae91-3ff26d82f812"
                  },
                  {
                    "reference": "urn:uuid:146c57d4-3456-4d22-bdc5-decde1480ab6"
                  },
                  {
                    "reference": "urn:uuid:b9caaa56-442c-45a4-b17f-61f1a4497887"
                  },
                  {
                    "reference": "urn:uuid:7e4d41ba-bd03-4307-a1a7-3da9e48ea295"
                  },
                  {
                    "reference": "urn:uuid:d7009e7d-8801-4e49-b568-08d6af3ab450"
                  },
                  {
                    "reference": "urn:uuid:058a0a22-2fcd-4e44-a214-f5fa0ecc0df3"
                  },
                  {
                    "reference": "urn:uuid:51dba604-d0c0-406d-af51-2df1fc7129e0"
                  },
                  {
                    "reference": "urn:uuid:48f3bc34-8ec4-4395-a721-55ec5c7e6add"
                  },
                  {
                    "reference": "urn:uuid:15a5847e-9a9e-42f2-b39e-4c275d1e1db2"
                  },
                  {
                    "reference": "urn:uuid:93f202d5-1262-4678-9604-e8840c0a8026"
                  },
                  {
                    "reference": "urn:uuid:48777ca5-08d9-480b-98a2-a1fabf07cf3a"
                  },
                  {
                    "reference": "urn:uuid:bffc411d-0eff-417e-9b29-7059658786c9"
                  },
                  {
                    "reference": "urn:uuid:0c345a9f-eb59-4fc9-ae76-7f81f0aadcdc"
                  }
                ],
                "text": {
                  "status": "generated",
                  "div": "<div xmlns=\"http://www.w3.org/1999/xhtml\"><h3>Chemistry</h3><table class=\"hl7__eu__lab__report\"><thead><tr><th>Test</th><th>12-NOV-2019</th><th>Reference&#xA0;Range</th><th>Unit</th></tr></thead><tbody><tr><td>Hemoglobin A1c/Hemoglobin.total in Blood</td><td>5.9</td><td>4.5 - 6.4</td><td>%</td></tr><tr><td>Glucose [Mass/volume] in Blood</td><td>70.5</td><td>70 - 140</td><td>mg/dL</td></tr><tr><td>Urea nitrogen [Mass/volume] in Blood</td><td>7.9</td><td>7 - 43</td><td>mg/dL</td></tr><tr><td>Creatinine [Mass/volume] in Blood</td><td>0.7</td><td>0.7 - 1.1</td><td>mg/dL</td></tr><tr><td>Calcium [Mass/volume] in Blood</td><td>9.8</td><td>8.5 - 10.4</td><td>mg/dL</td></tr><tr><td>Sodium [Moles/volume] in Blood</td><td>136.5</td><td>135 - 145</td><td>mmol/L</td></tr><tr><td>Potassium [Moles/volume] in Blood</td><td>4.5</td><td>3.5 - 5.1</td><td>mmol/L</td></tr><tr><td>Chloride [Moles/volume] in Blood</td><td>105.4</td><td>98 - 107</td><td>mmol/L</td></tr><tr><td>Carbon dioxide, total [Moles/volume] in Blood</td><td>22.4</td><td>22 - 32</td><td>mmol/L</td></tr><tr><td>Cholesterol [Mass/volume] in Serum or Plasma</td><td>191.5</td><td>125 - 200</td><td>mg/dL</td></tr><tr><td>Triglyceride [Mass/volume] in Serum or Plasma</td><td>103.5</td><td>35 - 150</td><td>mg/dL</td></tr><tr><td>Cholesterol in LDL [Mass/volume] in Serum or Plasma by Direct assay</td><td>117.2</td><td>0 - 130</td><td>mg/dL</td></tr><tr><td>Cholesterol in HDL [Mass/volume] in Serum or Plasma</td><td>53.5</td><td>50 - 100</td><td>mg/dL</td></tr></tbody></table></div>"
                },
                "title": "Chemistry"
              }
            ],
            "title": "Laboratory Report"
          },
          {
            "text": {
              "status": "generated",
              "div": "<div xmlns=\"http://www.w3.org/1999/xhtml\"><h3>Annotation</h3><table class=\"hl7__eu__lab__report\"><tr><th>Conclusion and Recommendations based on this report and previous findings known to us</th></tr><tr><td>All measured parameters are within normal limits. Glycemic control (HbA1c, glucose), renal function (urea, creatinine), electrolytes, lipid profile, and calcium are all unremarkable. No laboratory evidence of acute or chronic metabolic, renal, or lipid abnormalities at this time. Recommend continued routine monitoring.</td></tr></table></div>"
            },
            "code": {
              "coding": [
                {
                  "system": "http://loinc.org",
                  "code": "48767-8",
                  "display": "Annotation comment"
                }
              ]
            },
            "title": "Annotation comment"
          }
        ],
        "status": "final",
        "subject": {
          "reference": "urn:uuid:9ff73a51-a4fd-4574-aac2-12c9437bdf65",
          "display": "Louise Köster"
        },
        "date": "2019-11-12T05:02:53Z",
        "title": "Laboratory Report",
        "confidentiality": "N"
      }
    },
    {
      "fullUrl": "urn:uuid:fc8ed745-e932-402f-b2eb-1c7c2ed06aa1",
      "resource": {
        "resourceType": "DiagnosticReport",
        "id": "fc8ed745-e932-402f-b2eb-1c7c2ed06aa1",
        "meta": {
          "profile": [
            "http://hl7.eu/fhir/laboratory/StructureDefinition/DiagnosticReport-eu-lab"
          ]
        },
        "identifier": [
          {
            "assigner": {
              "display": "HL7 Europe"
            },
            "system": "urn:oid:2.16.840.1.113883.2.51.999",
            "value": "7e693d65-334b-4992-a677-ae718dceecb8"
          }
        ],
        "extension": [
          {
            "url": "http://hl7.org/fhir/5.0/StructureDefinition/extension-DiagnosticReport.composition",
            "valueReference": {
              "reference": "urn:uuid:64ebb71d-1aeb-4116-9e76-a0bcef52c774"
            }
          }
        ],
        "category": [
          {
            "coding": [
              {
                "code": "26436-6",
                "system": "http://loinc.org",
                "display": "Laboratory studies (set)"
              }
            ]
          }
        ],
        "specimen": [
          {
            "reference": "urn:uuid:b4b84d09-aa49-4015-9097-f5f44f04115a"
          },
          {
            "reference": "urn:uuid:a20f0f47-61dd-4cee-8dd4-25b194ad1d53"
          }
        ],
        "result": [
          {
            "reference": "urn:uuid:ca78375c-1caf-42e0-ae91-3ff26d82f812"
          },
          {
            "reference": "urn:uuid:146c57d4-3456-4d22-bdc5-decde1480ab6"
          },
          {
            "reference": "urn:uuid:b9caaa56-442c-45a4-b17f-61f1a4497887"
          },
          {
            "reference": "urn:uuid:7e4d41ba-bd03-4307-a1a7-3da9e48ea295"
          },
          {
            "reference": "urn:uuid:d7009e7d-8801-4e49-b568-08d6af3ab450"
          },
          {
            "reference": "urn:uuid:058a0a22-2fcd-4e44-a214-f5fa0ecc0df3"
          },
          {
            "reference": "urn:uuid:51dba604-d0c0-406d-af51-2df1fc7129e0"
          },
          {
            "reference": "urn:uuid:48f3bc34-8ec4-4395-a721-55ec5c7e6add"
          },
          {
            "reference": "urn:uuid:15a5847e-9a9e-42f2-b39e-4c275d1e1db2"
          },
          {
            "reference": "urn:uuid:93f202d5-1262-4678-9604-e8840c0a8026"
          },
          {
            "reference": "urn:uuid:48777ca5-08d9-480b-98a2-a1fabf07cf3a"
          },
          {
            "reference": "urn:uuid:bffc411d-0eff-417e-9b29-7059658786c9"
          },
          {
            "reference": "urn:uuid:0c345a9f-eb59-4fc9-ae76-7f81f0aadcdc"
          }
        ],
        "status": "registered",
        "code": {
          "coding": [
            {
              "code": "11502-2",
              "system": "http://loinc.org",
              "display": "Laboratory report"
            }
          ]
        },
        "subject": {
          "reference": "urn:uuid:9ff73a51-a4fd-4574-aac2-12c9437bdf65",
          "display": "Louise Köster"
        }
      }
    },
    {
      "fullUrl": "urn:uuid:9ff73a51-a4fd-4574-aac2-12c9437bdf65",
      "resource": {
        "resourceType": "Patient",
        "id": "9ff73a51-a4fd-4574-aac2-12c9437bdf65",
        "meta": {
          "security": [
            {
              "system": "http://terminology.hl7.org/CodeSystem/v3-ActReason",
              "code": "HTEST"
            },
            {
              "system": "http://terminology.hl7.org/CodeSystem/v3-ActReason",
              "code": "TRAIN"
            }
          ],
          "tag": [
            {
              "system": "https://synderai.net/fhir/CodeSystem/tags",
              "code": "synthetic",
              "display": "SYNDERAI Synthetic data"
            }
          ],
          "profile": [
            "http://hl7.eu/fhir/base/StructureDefinition/patient-eu-core"
          ]
        },
        "identifier": [
          {
            "type": {
              "coding": [
                {
                  "code": "PT",
                  "system": "http://terminology.hl7.org/CodeSystem/v2-0203"
                }
              ]
            },
            "system": "http://ec.europa.eu/identifier/eci",
            "value": "1053-167357-1"
          },
          {
            "type": {
              "coding": [
                {
                  "code": "MR",
                  "system": "http://terminology.hl7.org/CodeSystem/v2-0203"
                }
              ]
            },
            "system": "http://local.setting.eu/identifier",
            "value": "706b1a23-528f-0ed7-639f-1dc54e8ecc5d"
          }
        ],
        "name": [
          {
            "family": "Köster"
          },
          {
            "given": [
              "Louise"
            ]
          },
          {
            "text": "Louise Köster"
          }
        ],
        "address": [
          {
            "line": [
              "Regina-Butte-Ring 737"
            ],
            "use": "home",
            "type": "physical",
            "postalCode": "88348",
            "city": "Saulgau",
            "country": "Germany"
          }
        ],
        "telecom": [
          {
            "system": "phone",
            "value": "+49(0)2075293938"
          }
        ],
        "extension": [
          {
            "url": "http://hl7.org/fhir/StructureDefinition/patient-nationality",
            "valueCodeableConcept": {
              "coding": [
                {
                  "code": "DE",
                  "system": "http://hl7.org/fhir/ValueSet/country"
                }
              ]
            }
          }
        ],
        "text": {
          "status": "generated",
          "div": "<div xmlns=\"http://www.w3.org/1999/xhtml\"><table class=\"hl7__ips\"><tr><td>Louise Köster</td><td>female</td><td>01-Jul-1957</td></tr></table></div>"
        },
        "gender": "female",
        "birthDate": "1957-07-01"
      }
    },
    {
      "fullUrl": "urn:uuid:fe3812a5-3451-4d35-90d9-09ec3ced7b9f",
      "resource": {
        "resourceType": "ServiceRequest",
        "id": "fe3812a5-3451-4d35-90d9-09ec3ced7b9f",
        "meta": {
          "profile": [
            "http://hl7.eu/fhir/laboratory/StructureDefinition/ServiceRequest-eu-lab"
          ]
        },
        "identifier": [
          {
            "system": "http://example.org",
            "value": "6c076c85-00e5-4c87-9cea-727140c67089"
          }
        ],
        "specimen": [
          {
            "reference": "urn:uuid:b4b84d09-aa49-4015-9097-f5f44f04115a"
          },
          {
            "reference": "urn:uuid:a20f0f47-61dd-4cee-8dd4-25b194ad1d53"
          }
        ],
        "reasonCode": [
          {
            "coding": [
              {
                "code": "15777000",
                "system": "http://snomed.info/sct",
                "display": "Prediabetes"
              }
            ]
          },
          {
            "coding": [
              {
                "code": "237602007",
                "system": "http://snomed.info/sct",
                "display": "Metabolic syndrome X"
              }
            ]
          },
          {
            "coding": [
              {
                "code": "414545008",
                "system": "http://snomed.info/sct",
                "display": "Ischemic heart disease"
              }
            ]
          },
          {
            "coding": [
              {
                "code": "59621000",
                "system": "http://snomed.info/sct",
                "display": "Essential hypertension"
              }
            ]
          }
        ],
        "status": "active",
        "intent": "order",
        "code": {
          "coding": [
            {
              "code": "108252007",
              "system": "http://snomed.info/sct",
              "display": "Laboratory procedure"
            }
          ]
        },
        "subject": {
          "reference": "urn:uuid:9ff73a51-a4fd-4574-aac2-12c9437bdf65",
          "display": "Louise Köster"
        },
        "requester": {
          "reference": "urn:uuid:f58869d7-89f2-4125-8ee0-30f46d5db918"
        }
      }
    },
    {
      "fullUrl": "urn:uuid:f58869d7-89f2-4125-8ee0-30f46d5db918",
      "resource": {
        "resourceType": "PractitionerRole",
        "id": "f58869d7-89f2-4125-8ee0-30f46d5db918",
        "meta": {
          "profile": [
            "http://hl7.eu/fhir/base/StructureDefinition/practitionerRole-eu"
          ]
        },
        "text": {
          "status": "generated",
          "div": "<div xmlns=\"http://www.w3.org/1999/xhtml\">Provider Role Id: f58869d7-89f2-4125-8ee0-30f46d5db918</div>"
        },
        "organization": {
          "reference": "urn:uuid:8c7e3a2e-e22d-42c1-a624-198d9c1dbd0e"
        }
      }
    },
    {
      "fullUrl": "urn:uuid:8c7e3a2e-e22d-42c1-a624-198d9c1dbd0e",
      "resource": {
        "resourceType": "Organization",
        "id": "8c7e3a2e-e22d-42c1-a624-198d9c1dbd0e",
        "meta": {
          "profile": [
            "http://hl7.eu/fhir/base/StructureDefinition/organization-eu"
          ]
        },
        "identifier": [
          {
            "assigner": {
              "display": "HL7 Europe"
            },
            "system": "urn:oid:2.16.840.1.113883.2.51.999",
            "value": "d53614bd-ffff-4153-9f07-94350008021b"
          }
        ],
        "address": [
          {
            "line": [
              "Am Schönen Moos 7"
            ],
            "city": "Bad Saulgau",
            "postalCode": "88348",
            "country": "Germany"
          }
        ],
        "text": {
          "status": "generated",
          "div": "<div xmlns=\"http://www.w3.org/1999/xhtml\">Provider Organization: Klinik am schönen Moos</div>"
        },
        "name": "Klinik am schönen Moos"
      }
    },
    {
      "fullUrl": "urn:uuid:b4b84d09-aa49-4015-9097-f5f44f04115a",
      "resource": {
        "resourceType": "Specimen",
        "id": "b4b84d09-aa49-4015-9097-f5f44f04115a",
        "meta": {
          "profile": [
            "http://hl7.eu/fhir/laboratory/StructureDefinition/Specimen-eu-lab"
          ]
        },
        "collection": {
          "collectedDateTime": "2019-11-12"
        },
        "text": {
          "status": "generated",
          "div": "<div xmlns=\"http://www.w3.org/1999/xhtml\"><table class=\"hl7__eu__lab__report\"><tr><th>Specimen</th><th>Collection Date</th></tr><tr><td>Whole blood specimen (specimen)</td><td><span class=\"nb\">12-Nov-2019</span></td></tr></table></div>"
        },
        "type": {
          "coding": [
            {
              "code": "258580003",
              "system": "http://snomed.info/sct",
              "display": "Whole blood specimen (specimen)"
            }
          ]
        }
      }
    },
    {
      "fullUrl": "urn:uuid:a20f0f47-61dd-4cee-8dd4-25b194ad1d53",
      "resource": {
        "resourceType": "Specimen",
        "id": "a20f0f47-61dd-4cee-8dd4-25b194ad1d53",
        "meta": {
          "profile": [
            "http://hl7.eu/fhir/laboratory/StructureDefinition/Specimen-eu-lab"
          ]
        },
        "collection": {
          "collectedDateTime": "2019-11-12"
        },
        "text": {
          "status": "generated",
          "div": "<div xmlns=\"http://www.w3.org/1999/xhtml\"><table class=\"hl7__eu__lab__report\"><tr><th>Specimen</th><th>Collection Date</th></tr><tr><td>Acellular blood (serum or plasma) specimen</td><td><span class=\"nb\">12-Nov-2019</span></td></tr></table></div>"
        },
        "type": {
          "coding": [
            {
              "code": "122592007",
              "system": "http://snomed.info/sct",
              "display": "Acellular blood (serum or plasma) specimen"
            }
          ]
        }
      }
    },
    {
      "fullUrl": "urn:uuid:ca78375c-1caf-42e0-ae91-3ff26d82f812",
      "resource": {
        "resourceType": "Observation",
        "id": "ca78375c-1caf-42e0-ae91-3ff26d82f812",
        "meta": {
          "profile": [
            "http://hl7.eu/fhir/laboratory/StructureDefinition/Observation-resultslab-eu-lab"
          ]
        },
        "performer": [
          {
            "display": "The Central European Lab"
          }
        ],
        "category": [
          {
            "coding": [
              {
                "system": "http://terminology.hl7.org/CodeSystem/observation-category",
                "code": "laboratory"
              }
            ]
          }
        ],
        "code": {
          "coding": [
            {
              "code": "4548-4",
              "system": "http://loinc.org",
              "display": "Hemoglobin A1c/Hemoglobin.total in Blood"
            }
          ],
          "text": "Hemoglobin A1c/Hemoglobin.total in Blood"
        },
        "valueQuantity": {
          "system": "http://unitsofmeasure.org",
          "value": 5.9,
          "unit": "%",
          "code": "%"
        },
        "referenceRange": [
          {
            "low": {
              "value": 4.5,
              "code": "%",
              "system": "http://unitsofmeasure.org"
            }
          },
          {
            "high": {
              "value": 6.4,
              "code": "%",
              "system": "http://unitsofmeasure.org"
            }
          }
        ],
        "text": {
          "status": "generated",
          "div": "<div xmlns=\"http://www.w3.org/1999/xhtml\"><table class=\"hl7__eu__lab__report\"><tr><th>Test</th><th>12-Nov-2019</th><th>Reference&#xA0;Range</th><th>Unit</th></tr><tr><td>Hemoglobin A1c/Hemoglobin.total in Blood</td><td>5.9</td><td>4.5 - 6.4</td><td></td><td>%</td></tr></table></div>"
        },
        "status": "final",
        "subject": {
          "reference": "urn:uuid:9ff73a51-a4fd-4574-aac2-12c9437bdf65",
          "display": "Louise Köster"
        },
        "effectiveDateTime": "2019-11-12T04:02:53Z",
        "specimen": {
          "reference": "urn:uuid:b4b84d09-aa49-4015-9097-f5f44f04115a"
        }
      }
    },
    {
      "fullUrl": "urn:uuid:146c57d4-3456-4d22-bdc5-decde1480ab6",
      "resource": {
        "resourceType": "Observation",
        "id": "146c57d4-3456-4d22-bdc5-decde1480ab6",
        "meta": {
          "profile": [
            "http://hl7.eu/fhir/laboratory/StructureDefinition/Observation-resultslab-eu-lab"
          ]
        },
        "performer": [
          {
            "display": "The Central European Lab"
          }
        ],
        "category": [
          {
            "coding": [
              {
                "system": "http://terminology.hl7.org/CodeSystem/observation-category",
                "code": "laboratory"
              }
            ]
          }
        ],
        "code": {
          "coding": [
            {
              "code": "2339-0",
              "system": "http://loinc.org",
              "display": "Glucose [Mass/volume] in Blood"
            }
          ],
          "text": "Glucose [Mass/volume] in Blood"
        },
        "valueQuantity": {
          "system": "http://unitsofmeasure.org",
          "value": 70.5,
          "unit": "mg/dL",
          "code": "mg/dL"
        },
        "referenceRange": [
          {
            "low": {
              "value": 70,
              "code": "mg/dL",
              "system": "http://unitsofmeasure.org"
            }
          },
          {
            "high": {
              "value": 140,
              "code": "mg/dL",
              "system": "http://unitsofmeasure.org"
            }
          }
        ],
        "text": {
          "status": "generated",
          "div": "<div xmlns=\"http://www.w3.org/1999/xhtml\"><table class=\"hl7__eu__lab__report\"><tr><th>Test</th><th>12-Nov-2019</th><th>Reference&#xA0;Range</th><th>Unit</th></tr><tr><td>Glucose [Mass/volume] in Blood</td><td>70.5</td><td>70 - 140</td><td></td><td>mg/dL</td></tr></table></div>"
        },
        "status": "final",
        "subject": {
          "reference": "urn:uuid:9ff73a51-a4fd-4574-aac2-12c9437bdf65",
          "display": "Louise Köster"
        },
        "effectiveDateTime": "2019-11-12T04:02:53Z",
        "specimen": {
          "reference": "urn:uuid:b4b84d09-aa49-4015-9097-f5f44f04115a"
        }
      }
    },
    {
      "fullUrl": "urn:uuid:b9caaa56-442c-45a4-b17f-61f1a4497887",
      "resource": {
        "resourceType": "Observation",
        "id": "b9caaa56-442c-45a4-b17f-61f1a4497887",
        "meta": {
          "profile": [
            "http://hl7.eu/fhir/laboratory/StructureDefinition/Observation-resultslab-eu-lab"
          ]
        },
        "performer": [
          {
            "display": "The Central European Lab"
          }
        ],
        "category": [
          {
            "coding": [
              {
                "system": "http://terminology.hl7.org/CodeSystem/observation-category",
                "code": "laboratory"
              }
            ]
          }
        ],
        "code": {
          "coding": [
            {
              "code": "6299-2",
              "system": "http://loinc.org",
              "display": "Urea nitrogen [Mass/volume] in Blood"
            }
          ],
          "text": "Urea nitrogen [Mass/volume] in Blood"
        },
        "valueQuantity": {
          "system": "http://unitsofmeasure.org",
          "value": 7.9,
          "unit": "mg/dL",
          "code": "mg/dL"
        },
        "referenceRange": [
          {
            "low": {
              "value": 7,
              "code": "mg/dL",
              "system": "http://unitsofmeasure.org"
            }
          },
          {
            "high": {
              "value": 43,
              "code": "mg/dL",
              "system": "http://unitsofmeasure.org"
            }
          }
        ],
        "text": {
          "status": "generated",
          "div": "<div xmlns=\"http://www.w3.org/1999/xhtml\"><table class=\"hl7__eu__lab__report\"><tr><th>Test</th><th>12-Nov-2019</th><th>Reference&#xA0;Range</th><th>Unit</th></tr><tr><td>Urea nitrogen [Mass/volume] in Blood</td><td>7.9</td><td>7 - 43</td><td></td><td>mg/dL</td></tr></table></div>"
        },
        "status": "final",
        "subject": {
          "reference": "urn:uuid:9ff73a51-a4fd-4574-aac2-12c9437bdf65",
          "display": "Louise Köster"
        },
        "effectiveDateTime": "2019-11-12T04:02:53Z",
        "specimen": {
          "reference": "urn:uuid:b4b84d09-aa49-4015-9097-f5f44f04115a"
        }
      }
    },
    {
      "fullUrl": "urn:uuid:7e4d41ba-bd03-4307-a1a7-3da9e48ea295",
      "resource": {
        "resourceType": "Observation",
        "id": "7e4d41ba-bd03-4307-a1a7-3da9e48ea295",
        "meta": {
          "profile": [
            "http://hl7.eu/fhir/laboratory/StructureDefinition/Observation-resultslab-eu-lab"
          ]
        },
        "performer": [
          {
            "display": "The Central European Lab"
          }
        ],
        "category": [
          {
            "coding": [
              {
                "system": "http://terminology.hl7.org/CodeSystem/observation-category",
                "code": "laboratory"
              }
            ]
          }
        ],
        "code": {
          "coding": [
            {
              "code": "38483-4",
              "system": "http://loinc.org",
              "display": "Creatinine [Mass/volume] in Blood"
            }
          ],
          "text": "Creatinine [Mass/volume] in Blood"
        },
        "valueQuantity": {
          "system": "http://unitsofmeasure.org",
          "value": 0.7,
          "unit": "mg/dL",
          "code": "mg/dL"
        },
        "referenceRange": [
          {
            "low": {
              "value": 0.7,
              "code": "mg/dL",
              "system": "http://unitsofmeasure.org"
            }
          },
          {
            "high": {
              "value": 1.1,
              "code": "mg/dL",
              "system": "http://unitsofmeasure.org"
            }
          }
        ],
        "text": {
          "status": "generated",
          "div": "<div xmlns=\"http://www.w3.org/1999/xhtml\"><table class=\"hl7__eu__lab__report\"><tr><th>Test</th><th>12-Nov-2019</th><th>Reference&#xA0;Range</th><th>Unit</th></tr><tr><td>Creatinine [Mass/volume] in Blood</td><td>0.7</td><td>0.7 - 1.1</td><td></td><td>mg/dL</td></tr></table></div>"
        },
        "status": "final",
        "subject": {
          "reference": "urn:uuid:9ff73a51-a4fd-4574-aac2-12c9437bdf65",
          "display": "Louise Köster"
        },
        "effectiveDateTime": "2019-11-12T04:02:53Z",
        "specimen": {
          "reference": "urn:uuid:b4b84d09-aa49-4015-9097-f5f44f04115a"
        }
      }
    },
    {
      "fullUrl": "urn:uuid:d7009e7d-8801-4e49-b568-08d6af3ab450",
      "resource": {
        "resourceType": "Observation",
        "id": "d7009e7d-8801-4e49-b568-08d6af3ab450",
        "meta": {
          "profile": [
            "http://hl7.eu/fhir/laboratory/StructureDefinition/Observation-resultslab-eu-lab"
          ]
        },
        "performer": [
          {
            "display": "The Central European Lab"
          }
        ],
        "category": [
          {
            "coding": [
              {
                "system": "http://terminology.hl7.org/CodeSystem/observation-category",
                "code": "laboratory"
              }
            ]
          }
        ],
        "code": {
          "coding": [
            {
              "code": "49765-1",
              "system": "http://loinc.org",
              "display": "Calcium [Mass/volume] in Blood"
            }
          ],
          "text": "Calcium [Mass/volume] in Blood"
        },
        "valueQuantity": {
          "system": "http://unitsofmeasure.org",
          "value": 9.8,
          "unit": "mg/dL",
          "code": "mg/dL"
        },
        "referenceRange": [
          {
            "low": {
              "value": 8.5,
              "code": "mg/dL",
              "system": "http://unitsofmeasure.org"
            }
          },
          {
            "high": {
              "value": 10.4,
              "code": "mg/dL",
              "system": "http://unitsofmeasure.org"
            }
          }
        ],
        "text": {
          "status": "generated",
          "div": "<div xmlns=\"http://www.w3.org/1999/xhtml\"><table class=\"hl7__eu__lab__report\"><tr><th>Test</th><th>12-Nov-2019</th><th>Reference&#xA0;Range</th><th>Unit</th></tr><tr><td>Calcium [Mass/volume] in Blood</td><td>9.8</td><td>8.5 - 10.4</td><td></td><td>mg/dL</td></tr></table></div>"
        },
        "status": "final",
        "subject": {
          "reference": "urn:uuid:9ff73a51-a4fd-4574-aac2-12c9437bdf65",
          "display": "Louise Köster"
        },
        "effectiveDateTime": "2019-11-12T04:02:53Z",
        "specimen": {
          "reference": "urn:uuid:b4b84d09-aa49-4015-9097-f5f44f04115a"
        }
      }
    },
    {
      "fullUrl": "urn:uuid:058a0a22-2fcd-4e44-a214-f5fa0ecc0df3",
      "resource": {
        "resourceType": "Observation",
        "id": "058a0a22-2fcd-4e44-a214-f5fa0ecc0df3",
        "meta": {
          "profile": [
            "http://hl7.eu/fhir/laboratory/StructureDefinition/Observation-resultslab-eu-lab"
          ]
        },
        "performer": [
          {
            "display": "The Central European Lab"
          }
        ],
        "category": [
          {
            "coding": [
              {
                "system": "http://terminology.hl7.org/CodeSystem/observation-category",
                "code": "laboratory"
              }
            ]
          }
        ],
        "code": {
          "coding": [
            {
              "code": "2947-0",
              "system": "http://loinc.org",
              "display": "Sodium [Moles/volume] in Blood"
            }
          ],
          "text": "Sodium [Moles/volume] in Blood"
        },
        "valueQuantity": {
          "system": "http://unitsofmeasure.org",
          "value": 136.5,
          "unit": "mmol/L",
          "code": "mmol/L"
        },
        "referenceRange": [
          {
            "low": {
              "value": 135,
              "code": "mmol/L",
              "system": "http://unitsofmeasure.org"
            }
          },
          {
            "high": {
              "value": 145,
              "code": "mmol/L",
              "system": "http://unitsofmeasure.org"
            }
          }
        ],
        "text": {
          "status": "generated",
          "div": "<div xmlns=\"http://www.w3.org/1999/xhtml\"><table class=\"hl7__eu__lab__report\"><tr><th>Test</th><th>12-Nov-2019</th><th>Reference&#xA0;Range</th><th>Unit</th></tr><tr><td>Sodium [Moles/volume] in Blood</td><td>136.5</td><td>135 - 145</td><td></td><td>mmol/L</td></tr></table></div>"
        },
        "status": "final",
        "subject": {
          "reference": "urn:uuid:9ff73a51-a4fd-4574-aac2-12c9437bdf65",
          "display": "Louise Köster"
        },
        "effectiveDateTime": "2019-11-12T04:02:53Z",
        "specimen": {
          "reference": "urn:uuid:b4b84d09-aa49-4015-9097-f5f44f04115a"
        }
      }
    },
    {
      "fullUrl": "urn:uuid:51dba604-d0c0-406d-af51-2df1fc7129e0",
      "resource": {
        "resourceType": "Observation",
        "id": "51dba604-d0c0-406d-af51-2df1fc7129e0",
        "meta": {
          "profile": [
            "http://hl7.eu/fhir/laboratory/StructureDefinition/Observation-resultslab-eu-lab"
          ]
        },
        "performer": [
          {
            "display": "The Central European Lab"
          }
        ],
        "category": [
          {
            "coding": [
              {
                "system": "http://terminology.hl7.org/CodeSystem/observation-category",
                "code": "laboratory"
              }
            ]
          }
        ],
        "code": {
          "coding": [
            {
              "code": "6298-4",
              "system": "http://loinc.org",
              "display": "Potassium [Moles/volume] in Blood"
            }
          ],
          "text": "Potassium [Moles/volume] in Blood"
        },
        "valueQuantity": {
          "system": "http://unitsofmeasure.org",
          "value": 4.5,
          "unit": "mmol/L",
          "code": "mmol/L"
        },
        "referenceRange": [
          {
            "low": {
              "value": 3.5,
              "code": "mmol/L",
              "system": "http://unitsofmeasure.org"
            }
          },
          {
            "high": {
              "value": 5.1,
              "code": "mmol/L",
              "system": "http://unitsofmeasure.org"
            }
          }
        ],
        "text": {
          "status": "generated",
          "div": "<div xmlns=\"http://www.w3.org/1999/xhtml\"><table class=\"hl7__eu__lab__report\"><tr><th>Test</th><th>12-Nov-2019</th><th>Reference&#xA0;Range</th><th>Unit</th></tr><tr><td>Potassium [Moles/volume] in Blood</td><td>4.5</td><td>3.5 - 5.1</td><td></td><td>mmol/L</td></tr></table></div>"
        },
        "status": "final",
        "subject": {
          "reference": "urn:uuid:9ff73a51-a4fd-4574-aac2-12c9437bdf65",
          "display": "Louise Köster"
        },
        "effectiveDateTime": "2019-11-12T04:02:53Z",
        "specimen": {
          "reference": "urn:uuid:b4b84d09-aa49-4015-9097-f5f44f04115a"
        }
      }
    },
    {
      "fullUrl": "urn:uuid:48f3bc34-8ec4-4395-a721-55ec5c7e6add",
      "resource": {
        "resourceType": "Observation",
        "id": "48f3bc34-8ec4-4395-a721-55ec5c7e6add",
        "meta": {
          "profile": [
            "http://hl7.eu/fhir/laboratory/StructureDefinition/Observation-resultslab-eu-lab"
          ]
        },
        "performer": [
          {
            "display": "The Central European Lab"
          }
        ],
        "category": [
          {
            "coding": [
              {
                "system": "http://terminology.hl7.org/CodeSystem/observation-category",
                "code": "laboratory"
              }
            ]
          }
        ],
        "code": {
          "coding": [
            {
              "code": "2069-3",
              "system": "http://loinc.org",
              "display": "Chloride [Moles/volume] in Blood"
            }
          ],
          "text": "Chloride [Moles/volume] in Blood"
        },
        "valueQuantity": {
          "system": "http://unitsofmeasure.org",
          "value": 105.4,
          "unit": "mmol/L",
          "code": "mmol/L"
        },
        "referenceRange": [
          {
            "low": {
              "value": 98,
              "code": "mmol/L",
              "system": "http://unitsofmeasure.org"
            }
          },
          {
            "high": {
              "value": 107,
              "code": "mmol/L",
              "system": "http://unitsofmeasure.org"
            }
          }
        ],
        "text": {
          "status": "generated",
          "div": "<div xmlns=\"http://www.w3.org/1999/xhtml\"><table class=\"hl7__eu__lab__report\"><tr><th>Test</th><th>12-Nov-2019</th><th>Reference&#xA0;Range</th><th>Unit</th></tr><tr><td>Chloride [Moles/volume] in Blood</td><td>105.4</td><td>98 - 107</td><td></td><td>mmol/L</td></tr></table></div>"
        },
        "status": "final",
        "subject": {
          "reference": "urn:uuid:9ff73a51-a4fd-4574-aac2-12c9437bdf65",
          "display": "Louise Köster"
        },
        "effectiveDateTime": "2019-11-12T04:02:53Z",
        "specimen": {
          "reference": "urn:uuid:b4b84d09-aa49-4015-9097-f5f44f04115a"
        }
      }
    },
    {
      "fullUrl": "urn:uuid:15a5847e-9a9e-42f2-b39e-4c275d1e1db2",
      "resource": {
        "resourceType": "Observation",
        "id": "15a5847e-9a9e-42f2-b39e-4c275d1e1db2",
        "meta": {
          "profile": [
            "http://hl7.eu/fhir/laboratory/StructureDefinition/Observation-resultslab-eu-lab"
          ]
        },
        "performer": [
          {
            "display": "The Central European Lab"
          }
        ],
        "category": [
          {
            "coding": [
              {
                "system": "http://terminology.hl7.org/CodeSystem/observation-category",
                "code": "laboratory"
              }
            ]
          }
        ],
        "code": {
          "coding": [
            {
              "code": "20565-8",
              "system": "http://loinc.org",
              "display": "Carbon dioxide, total [Moles/volume] in Blood"
            }
          ],
          "text": "Carbon dioxide, total [Moles/volume] in Blood"
        },
        "valueQuantity": {
          "system": "http://unitsofmeasure.org",
          "value": 22.4,
          "unit": "mmol/L",
          "code": "mmol/L"
        },
        "referenceRange": [
          {
            "low": {
              "value": 22,
              "code": "mmol/L",
              "system": "http://unitsofmeasure.org"
            }
          },
          {
            "high": {
              "value": 32,
              "code": "mmol/L",
              "system": "http://unitsofmeasure.org"
            }
          }
        ],
        "text": {
          "status": "generated",
          "div": "<div xmlns=\"http://www.w3.org/1999/xhtml\"><table class=\"hl7__eu__lab__report\"><tr><th>Test</th><th>12-Nov-2019</th><th>Reference&#xA0;Range</th><th>Unit</th></tr><tr><td>Carbon dioxide, total [Moles/volume] in Blood</td><td>22.4</td><td>22 - 32</td><td></td><td>mmol/L</td></tr></table></div>"
        },
        "status": "final",
        "subject": {
          "reference": "urn:uuid:9ff73a51-a4fd-4574-aac2-12c9437bdf65",
          "display": "Louise Köster"
        },
        "effectiveDateTime": "2019-11-12T04:02:53Z",
        "specimen": {
          "reference": "urn:uuid:b4b84d09-aa49-4015-9097-f5f44f04115a"
        }
      }
    },
    {
      "fullUrl": "urn:uuid:93f202d5-1262-4678-9604-e8840c0a8026",
      "resource": {
        "resourceType": "Observation",
        "id": "93f202d5-1262-4678-9604-e8840c0a8026",
        "meta": {
          "profile": [
            "http://hl7.eu/fhir/laboratory/StructureDefinition/Observation-resultslab-eu-lab"
          ]
        },
        "performer": [
          {
            "display": "The Central European Lab"
          }
        ],
        "category": [
          {
            "coding": [
              {
                "system": "http://terminology.hl7.org/CodeSystem/observation-category",
                "code": "laboratory"
              }
            ]
          }
        ],
        "code": {
          "coding": [
            {
              "code": "2093-3",
              "system": "http://loinc.org",
              "display": "Cholesterol [Mass/volume] in Serum or Plasma"
            }
          ],
          "text": "Cholesterol [Mass/volume] in Serum or Plasma"
        },
        "valueQuantity": {
          "system": "http://unitsofmeasure.org",
          "value": 191.5,
          "unit": "mg/dL",
          "code": "mg/dL"
        },
        "referenceRange": [
          {
            "low": {
              "value": 125,
              "code": "mg/dL",
              "system": "http://unitsofmeasure.org"
            }
          },
          {
            "high": {
              "value": 200,
              "code": "mg/dL",
              "system": "http://unitsofmeasure.org"
            }
          }
        ],
        "text": {
          "status": "generated",
          "div": "<div xmlns=\"http://www.w3.org/1999/xhtml\"><table class=\"hl7__eu__lab__report\"><tr><th>Test</th><th>12-Nov-2019</th><th>Reference&#xA0;Range</th><th>Unit</th></tr><tr><td>Cholesterol [Mass/volume] in Serum or Plasma</td><td>191.5</td><td>125 - 200</td><td></td><td>mg/dL</td></tr></table></div>"
        },
        "status": "final",
        "subject": {
          "reference": "urn:uuid:9ff73a51-a4fd-4574-aac2-12c9437bdf65",
          "display": "Louise Köster"
        },
        "effectiveDateTime": "2019-11-12T04:02:53Z",
        "specimen": {
          "reference": "urn:uuid:a20f0f47-61dd-4cee-8dd4-25b194ad1d53"
        }
      }
    },
    {
      "fullUrl": "urn:uuid:48777ca5-08d9-480b-98a2-a1fabf07cf3a",
      "resource": {
        "resourceType": "Observation",
        "id": "48777ca5-08d9-480b-98a2-a1fabf07cf3a",
        "meta": {
          "profile": [
            "http://hl7.eu/fhir/laboratory/StructureDefinition/Observation-resultslab-eu-lab"
          ]
        },
        "performer": [
          {
            "display": "The Central European Lab"
          }
        ],
        "category": [
          {
            "coding": [
              {
                "system": "http://terminology.hl7.org/CodeSystem/observation-category",
                "code": "laboratory"
              }
            ]
          }
        ],
        "code": {
          "coding": [
            {
              "code": "2571-8",
              "system": "http://loinc.org",
              "display": "Triglyceride [Mass/volume] in Serum or Plasma"
            }
          ],
          "text": "Triglyceride [Mass/volume] in Serum or Plasma"
        },
        "valueQuantity": {
          "system": "http://unitsofmeasure.org",
          "value": 103.5,
          "unit": "mg/dL",
          "code": "mg/dL"
        },
        "referenceRange": [
          {
            "low": {
              "value": 35,
              "code": "mg/dL",
              "system": "http://unitsofmeasure.org"
            }
          },
          {
            "high": {
              "value": 150,
              "code": "mg/dL",
              "system": "http://unitsofmeasure.org"
            }
          }
        ],
        "text": {
          "status": "generated",
          "div": "<div xmlns=\"http://www.w3.org/1999/xhtml\"><table class=\"hl7__eu__lab__report\"><tr><th>Test</th><th>12-Nov-2019</th><th>Reference&#xA0;Range</th><th>Unit</th></tr><tr><td>Triglyceride [Mass/volume] in Serum or Plasma</td><td>103.5</td><td>35 - 150</td><td></td><td>mg/dL</td></tr></table></div>"
        },
        "status": "final",
        "subject": {
          "reference": "urn:uuid:9ff73a51-a4fd-4574-aac2-12c9437bdf65",
          "display": "Louise Köster"
        },
        "effectiveDateTime": "2019-11-12T04:02:53Z",
        "specimen": {
          "reference": "urn:uuid:a20f0f47-61dd-4cee-8dd4-25b194ad1d53"
        }
      }
    },
    {
      "fullUrl": "urn:uuid:bffc411d-0eff-417e-9b29-7059658786c9",
      "resource": {
        "resourceType": "Observation",
        "id": "bffc411d-0eff-417e-9b29-7059658786c9",
        "meta": {
          "profile": [
            "http://hl7.eu/fhir/laboratory/StructureDefinition/Observation-resultslab-eu-lab"
          ]
        },
        "performer": [
          {
            "display": "The Central European Lab"
          }
        ],
        "category": [
          {
            "coding": [
              {
                "system": "http://terminology.hl7.org/CodeSystem/observation-category",
                "code": "laboratory"
              }
            ]
          }
        ],
        "code": {
          "coding": [
            {
              "code": "18262-6",
              "system": "http://loinc.org",
              "display": "Cholesterol in LDL [Mass/volume] in Serum or Plasma by Direct assay"
            }
          ],
          "text": "Cholesterol in LDL [Mass/volume] in Serum or Plasma by Direct assay"
        },
        "valueQuantity": {
          "system": "http://unitsofmeasure.org",
          "value": 117.2,
          "unit": "mg/dL",
          "code": "mg/dL"
        },
        "referenceRange": [
          {
            "low": {
              "value": 0,
              "code": "mg/dL",
              "system": "http://unitsofmeasure.org"
            }
          },
          {
            "high": {
              "value": 130,
              "code": "mg/dL",
              "system": "http://unitsofmeasure.org"
            }
          }
        ],
        "text": {
          "status": "generated",
          "div": "<div xmlns=\"http://www.w3.org/1999/xhtml\"><table class=\"hl7__eu__lab__report\"><tr><th>Test</th><th>12-Nov-2019</th><th>Reference&#xA0;Range</th><th>Unit</th></tr><tr><td>Cholesterol in LDL [Mass/volume] in Serum or Plasma by Direct assay</td><td>117.2</td><td>0 - 130</td><td></td><td>mg/dL</td></tr></table></div>"
        },
        "status": "final",
        "subject": {
          "reference": "urn:uuid:9ff73a51-a4fd-4574-aac2-12c9437bdf65",
          "display": "Louise Köster"
        },
        "effectiveDateTime": "2019-11-12T04:02:53Z",
        "specimen": {
          "reference": "urn:uuid:a20f0f47-61dd-4cee-8dd4-25b194ad1d53"
        }
      }
    },
    {
      "fullUrl": "urn:uuid:0c345a9f-eb59-4fc9-ae76-7f81f0aadcdc",
      "resource": {
        "resourceType": "Observation",
        "id": "0c345a9f-eb59-4fc9-ae76-7f81f0aadcdc",
        "meta": {
          "profile": [
            "http://hl7.eu/fhir/laboratory/StructureDefinition/Observation-resultslab-eu-lab"
          ]
        },
        "performer": [
          {
            "display": "The Central European Lab"
          }
        ],
        "category": [
          {
            "coding": [
              {
                "system": "http://terminology.hl7.org/CodeSystem/observation-category",
                "code": "laboratory"
              }
            ]
          }
        ],
        "code": {
          "coding": [
            {
              "code": "2085-9",
              "system": "http://loinc.org",
              "display": "Cholesterol in HDL [Mass/volume] in Serum or Plasma"
            }
          ],
          "text": "Cholesterol in HDL [Mass/volume] in Serum or Plasma"
        },
        "valueQuantity": {
          "system": "http://unitsofmeasure.org",
          "value": 53.5,
          "unit": "mg/dL",
          "code": "mg/dL"
        },
        "referenceRange": [
          {
            "low": {
              "value": 50,
              "code": "mg/dL",
              "system": "http://unitsofmeasure.org"
            }
          },
          {
            "high": {
              "value": 100,
              "code": "mg/dL",
              "system": "http://unitsofmeasure.org"
            }
          }
        ],
        "text": {
          "status": "generated",
          "div": "<div xmlns=\"http://www.w3.org/1999/xhtml\"><table class=\"hl7__eu__lab__report\"><tr><th>Test</th><th>12-Nov-2019</th><th>Reference&#xA0;Range</th><th>Unit</th></tr><tr><td>Cholesterol in HDL [Mass/volume] in Serum or Plasma</td><td>53.5</td><td>50 - 100</td><td></td><td>mg/dL</td></tr></table></div>"
        },
        "status": "final",
        "subject": {
          "reference": "urn:uuid:9ff73a51-a4fd-4574-aac2-12c9437bdf65",
          "display": "Louise Köster"
        },
        "effectiveDateTime": "2019-11-12T04:02:53Z",
        "specimen": {
          "reference": "urn:uuid:a20f0f47-61dd-4cee-8dd4-25b194ad1d53"
        }
      }
    },
    {
      "fullUrl": "urn:uuid:20ad0f3a-5649-4a73-b46d-972d717e25ff",
      "resource": {
        "resourceType": "Device",
        "id": "20ad0f3a-5649-4a73-b46d-972d717e25ff",
        "deviceName": [
          {
            "name": "SYNDERAI Synthetic Generator",
            "type": "manufacturer-name"
          }
        ],
        "version": [
          {
            "value": "5.0"
          }
        ],
        "text": {
          "status": "generated",
          "div": "<div xmlns=\"http://www.w3.org/1999/xhtml\">SYNDERAI Synthetic Generator v5.0</div>"
        },
        "status": "active\"",
        "distinctIdentifier": "synderai-generator-50",
        "manufacturer": "SYNDERAI Project"
      }
    },
    {
      "fullUrl": "urn:uuid:f4873ecb-0e09-41b8-ba28-65209203ac69",
      "resource": {
        "resourceType": "Provenance",
        "id": "f4873ecb-0e09-41b8-ba28-65209203ac69",
        "target": [
          {
            "reference": "Patient/9ff73a51-a4fd-4574-aac2-12c9437bdf65"
          },
          {
            "reference": "Bundle/aafe9ddc-ea62-4171-bb13-524712d80a73"
          },
          {
            "reference": "Composition/b43fe4dd-1aa1-4265-92bb-afb05bd77829"
          },
          {
            "reference": "PractitionerRole/53674b18-7d56-4a1e-84c2-7cb3c0ce4751"
          },
          {
            "reference": "Practitioner/a0e56a5e-4a06-47f0-9cc1-78879723d591"
          },
          {
            "reference": "PractitionerRole/f58869d7-89f2-4125-8ee0-30f46d5db918"
          },
          {
            "reference": "Organization/8c7e3a2e-e22d-42c1-a624-198d9c1dbd0e"
          }
        ],
        "activity": {
          "text": "Synthetic Example Data Generation"
        },
        "policy": [
          "https://synderai.net/synderai-synthetic-data-policy"
        ],
        "agent": [
          {
            "type": {
              "text": "author"
            },
            "who": {
              "reference": "Device/20ad0f3a-5649-4a73-b46d-972d717e25ff"
            }
          }
        ],
        "reason": [
          {
            "text": "Interoperability Testing and Training (non-clinical use)"
          }
        ],
        "text": {
          "status": "generated",
          "div": "<div xmlns=\"http://www.w3.org/1999/xhtml\">Provenance for SYNDERAI Synthetic Example Data Resource</div>"
        },
        "recorded": "2019-11-12T05:02:53Z"
      }
    },
    {
      "fullUrl": "urn:uuid:53674b18-7d56-4a1e-84c2-7cb3c0ce4751",
      "resource": {
        "resourceType": "PractitionerRole",
        "id": "53674b18-7d56-4a1e-84c2-7cb3c0ce4751",
        "meta": {
          "profile": [
            "http://hl7.eu/fhir/base/StructureDefinition/practitionerRole-eu"
          ]
        },
        "text": {
          "status": "generated",
          "div": "<div xmlns=\"http://www.w3.org/1999/xhtml\">Laboratory Role Id: 53674b18-7d56-4a1e-84c2-7cb3c0ce4751</div>"
        },
        "practitioner": {
          "reference": "urn:uuid:a0e56a5e-4a06-47f0-9cc1-78879723d591"
        }
      }
    },
    {
      "fullUrl": "urn:uuid:a0e56a5e-4a06-47f0-9cc1-78879723d591",
      "resource": {
        "resourceType": "Practitioner",
        "id": "a0e56a5e-4a06-47f0-9cc1-78879723d591",
        "meta": {
          "profile": [
            "http://hl7.eu/fhir/base/StructureDefinition/practitioner-eu"
          ]
        },
        "identifier": [
          {
            "assigner": {
              "display": "HL7 Europe"
            },
            "system": "urn:oid:2.16.840.1.113883.2.51.999",
            "value": "369c09ca-a845-423e-b462-0b4aac181e78"
          }
        ],
        "name": [
          {
            "prefix": [
              "dr"
            ],
            "given": [
              "Ex"
            ],
            "family": "Ample"
          }
        ],
        "address": [
          {
            "line": [
              "Laboratoire Central Européenne",
              "Boulevard du Jardin Botanique 32"
            ],
            "postalCode": "1000",
            "city": "Brussels",
            "country": "Belgium"
          }
        ],
        "text": {
          "status": "generated",
          "div": "<div xmlns=\"http://www.w3.org/1999/xhtml\">Laboratory: Laboratoire Central Européenne, 1000 Brussels, Belgium</div>"
        }
      }
    }
  ],
  "type": "document",
  "timestamp": "2019-11-12T05:02:53Z"
}
