{
  "resourceType": "Bundle",
  "id": "1fb034ed-4ebb-4172-bb84-27fc0bbc2fc3",
  "meta": {
    "profile": [
      "http://hl7.eu/fhir/laboratory/StructureDefinition/Bundle-eu-lab"
    ]
  },
  "identifier": {
    "assigner": {
      "display": "HL7 Europe"
    },
    "system": "urn:oid:2.16.840.1.113883.2.51.999",
    "value": "d377fabc-049e-4ddb-aa25-6bf53e694363"
  },
  "entry": [
    {
      "fullUrl": "urn:uuid:d297efa0-0bfa-45c8-a727-065e5cc9b66d",
      "resource": {
        "resourceType": "Composition",
        "id": "d297efa0-0bfa-45c8-a727-065e5cc9b66d",
        "meta": {
          "profile": [
            "http://hl7.eu/fhir/laboratory/StructureDefinition/Composition-eu-lab"
          ]
        },
        "identifier": {
          "assigner": {
            "display": "HL7 Europe"
          },
          "system": "urn:oid:2.16.840.1.113883.2.51.999",
          "value": "4c7d0238-af1b-4f3c-a972-489de6d201fc"
        },
        "author": [
          {
            "reference": "urn:uuid:c9c756d9-f117-44b3-946a-0bf53417a0bc"
          }
        ],
        "category": [
          {
            "coding": [
              {
                "code": "26436-6",
                "system": "http://loinc.org",
                "display": "Laboratory studies (set)"
              }
            ]
          }
        ],
        "type": {
          "coding": [
            {
              "code": "11502-2",
              "system": "http://loinc.org",
              "display": "Laboratory report"
            }
          ],
          "text": "Laboratory Report"
        },
        "section": [
          {
            "code": {
              "coding": [
                {
                  "code": "26436-6",
                  "system": "http://loinc.org",
                  "display": "Laboratory studies (set)"
                }
              ],
              "text": "Laboratory studies"
            },
            "section": [
              {
                "code": {
                  "coding": [
                    {
                      "code": "$18719-5",
                      "system": "http://loinc.org",
                      "display": "Chemistry studies (set)"
                    }
                  ],
                  "text": "Chemistry"
                },
                "entry": [
                  {
                    "reference": "urn:uuid:2d09f71e-c495-44db-838d-4ac29c29fd80"
                  },
                  {
                    "reference": "urn:uuid:9aa9471c-56b8-49ba-8a84-c201a98c96f6"
                  },
                  {
                    "reference": "urn:uuid:259bc340-d440-44f7-b6de-336d98c968b1"
                  },
                  {
                    "reference": "urn:uuid:2cf91f0c-ae48-484f-a021-025fde420117"
                  },
                  {
                    "reference": "urn:uuid:b2a1e160-a7bc-45a7-bdda-68d516e38d58"
                  },
                  {
                    "reference": "urn:uuid:a1e7b18d-2850-4b89-9789-5521e2b71301"
                  },
                  {
                    "reference": "urn:uuid:765ce769-a7d9-46f1-871b-df5123fac46a"
                  },
                  {
                    "reference": "urn:uuid:a892b179-d696-483e-9ec0-7420ef2283cf"
                  },
                  {
                    "reference": "urn:uuid:5855cc4f-d46c-4c7e-916c-48510130f6c5"
                  },
                  {
                    "reference": "urn:uuid:2328df2b-3cca-461d-a331-0cc2dbc05ca2"
                  },
                  {
                    "reference": "urn:uuid:2db94686-f69e-46cb-b60d-2998cf347b11"
                  },
                  {
                    "reference": "urn:uuid:4fca053c-4511-4a73-a75f-25fe5f39d3f4"
                  },
                  {
                    "reference": "urn:uuid:0c866b50-1e11-4885-87aa-1b29ca5dd8c3"
                  },
                  {
                    "reference": "urn:uuid:03a0d34a-1f80-49cb-99f6-01943af91352"
                  },
                  {
                    "reference": "urn:uuid:bf920635-7fc7-4cf5-8f32-ae48de658582"
                  },
                  {
                    "reference": "urn:uuid:5296bb83-180b-4af7-9fb9-8b790f9c7025"
                  }
                ],
                "text": {
                  "status": "generated",
                  "div": "<div xmlns=\"http://www.w3.org/1999/xhtml\"><h3>Chemistry</h3><table class=\"hl7__eu__lab__report\"><thead><tr><th>Test</th><th>23-SEP-2016</th><th>Reference&#xA0;Range</th><th>Unit</th></tr></thead><tbody><tr><td>Glucose [Mass/volume] in Blood</td><td>77.3</td><td>70 - 140</td><td>mg/dL</td></tr><tr><td>Urea nitrogen [Mass/volume] in Blood</td><td>18.4</td><td>7 - 30</td><td>mg/dL</td></tr><tr><td>Creatinine [Mass/volume] in Blood</td><td><strong>3.3 H</strong></td><td>0.5 - 1.3</td><td>mg/dL</td></tr><tr><td>Calcium [Mass/volume] in Blood</td><td>8.7</td><td>8.6 - 10.2</td><td>mg/dL</td></tr><tr><td>Sodium [Moles/volume] in Blood</td><td>136.2</td><td>135 - 145</td><td>mmol/L</td></tr><tr><td>Potassium [Moles/volume] in Blood</td><td>4.2</td><td>3.5 - 5.1</td><td>mmol/L</td></tr><tr><td>Chloride [Moles/volume] in Blood</td><td>101.7</td><td>98 - 114</td><td>mmol/L</td></tr><tr><td>Carbon dioxide, total [Moles/volume] in Blood</td><td>24.8</td><td>22 - 32</td><td>mmol/L</td></tr><tr><td>Protein [Mass/volume] in Serum or Plasma</td><td>6.4</td><td>6 - 8.3</td><td>g/dL</td></tr><tr><td>Albumin [Mass/volume] in Serum or Plasma</td><td>3.6</td><td>3.5 - 5.5</td><td>g/dL</td></tr><tr><td>Globulin [Mass/volume] in Serum by calculation</td><td>2.9</td><td>2 - 3.5</td><td>g/L</td></tr><tr><td>Bilirubin.total [Mass/volume] in Serum or Plasma</td><td><strong>0.2 L</strong></td><td>0.3 - 1.2</td><td>mg/dL</td></tr><tr><td>Alkaline phosphatase [Enzymatic activity/volume] in Serum or Plasma</td><td>78.1</td><td>44 - 142</td><td>U/L</td></tr><tr><td>Alanine aminotransferase [Enzymatic activity/volume] in Serum or Plasma</td><td><strong>57.1 H</strong></td><td>7 - 40</td><td>U/L</td></tr><tr><td>Aspartate aminotransferase [Enzymatic activity/volume] in Serum or Plasma</td><td>18.0</td><td>10 - 40</td><td>U/L</td></tr><tr><td>Ketones [Presence] in Urine by Test strip</td><td>Urine ketone test = +++</td><td></td><td></td></tr></tbody></table></div>"
                },
                "title": "Chemistry"
              },
              {
                "code": {
                  "coding": [
                    {
                      "code": "$18729-4",
                      "system": "http://loinc.org",
                      "display": "Urinalysis studies (set)"
                    }
                  ],
                  "text": "Urinalysis"
                },
                "entry": [
                  {
                    "reference": "urn:uuid:97309a59-956e-4085-b8ee-d63e182cecce"
                  },
                  {
                    "reference": "urn:uuid:93a7b936-334d-45bc-b4e7-e016e0909a87"
                  },
                  {
                    "reference": "urn:uuid:8a7f5d82-cc86-46e0-94d9-ca30e479d50d"
                  },
                  {
                    "reference": "urn:uuid:1e949bea-4e85-433c-85f1-cfeae2a6888b"
                  },
                  {
                    "reference": "urn:uuid:27eb3627-edb9-4db4-8bcf-7ec2aa500ea1"
                  },
                  {
                    "reference": "urn:uuid:5b32d8fd-ada5-40e3-b2fe-4dcce81185c2"
                  },
                  {
                    "reference": "urn:uuid:fbfa86fc-8b2a-42d5-8fb0-9d6c0aec5633"
                  },
                  {
                    "reference": "urn:uuid:6814d8f7-40f6-4dde-bbce-f48fc91f490f"
                  },
                  {
                    "reference": "urn:uuid:a860e512-5cad-48ec-92b1-6b9fa4a1f2d7"
                  },
                  {
                    "reference": "urn:uuid:0d68a7a1-2567-4827-9328-6506e41b6524"
                  },
                  {
                    "reference": "urn:uuid:83f68ccc-b772-4fb5-9e6b-e183e932d861"
                  },
                  {
                    "reference": "urn:uuid:c93760b3-8d74-44eb-abb0-363ffcb424f6"
                  }
                ],
                "text": {
                  "status": "generated",
                  "div": "<div xmlns=\"http://www.w3.org/1999/xhtml\"><h3>Urinalysis</h3><table class=\"hl7__eu__lab__report\"><thead><tr><th>Test</th><th>23-SEP-2016</th><th>Reference&#xA0;Range</th><th>Unit</th></tr></thead><tbody><tr><td>Glucose [Mass/volume] in Urine by Test strip</td><td><strong>1.8 H</strong></td><td>0.8 - 0</td><td>mg/dL</td></tr><tr><td>Glucose [Presence] in Urine by Test strip</td><td>++</td><td></td><td></td></tr><tr><td>Bilirubin.total [Mass/volume] in Urine by Test strip</td><td>0.6</td><td>0 - 1.5</td><td>mg/dL</td></tr><tr><td>Bilirubin.total [Presence] in Urine by Test strip</td><td>Finding of bilirubin in urine</td><td></td><td></td></tr><tr><td>Ketones [Mass/volume] in Urine by Test strip</td><td><strong>17.0 H</strong></td><td>0 - 8</td><td>mg/dL</td></tr><tr><td>Specific gravity of Urine by Test strip</td><td><strong>1.0 L</strong></td><td>1.01 - 1.03</td><td>{nominal}</td></tr><tr><td>pH of Urine by Test strip</td><td>6.0</td><td>4.6 - 7.5</td><td>pH</td></tr><tr><td>Protein [Mass/volume] in Urine by Test strip</td><td><strong>294.0 H</strong></td><td>0 - 14</td><td>mg/dL</td></tr><tr><td>Protein [Presence] in Urine by Test strip</td><td>Urine protein test = +++</td><td></td><td></td></tr><tr><td>Nitrite [Presence] in Urine by Test strip</td><td>Urine nitrite negative</td><td></td><td></td></tr><tr><td>Hemoglobin [Presence] in Urine by Test strip</td><td>Urine blood test = negative</td><td></td><td></td></tr><tr><td>Leukocyte esterase [Presence] in Urine by Test strip</td><td>Urine leukocyte test negative</td><td></td><td></td></tr></tbody></table></div>"
                },
                "title": "Urinalysis"
              },
              {
                "code": {
                  "coding": [
                    {
                      "code": "$LP7846-1",
                      "system": "http://loinc.org",
                      "display": "Specimen information"
                    }
                  ],
                  "text": "Specimen information"
                },
                "entry": [
                  {
                    "reference": "urn:uuid:3f21ad89-0a34-43d0-a700-3458ce514d33"
                  },
                  {
                    "reference": "urn:uuid:e2e88402-dac2-4af5-8489-335eb777770b"
                  },
                  {
                    "reference": "urn:uuid:da3a551c-053d-4480-a7f7-7b390e77f663"
                  },
                  {
                    "reference": "urn:uuid:f382511e-327b-4b68-b589-852f63462ae4"
                  }
                ],
                "text": {
                  "status": "generated",
                  "div": "<div xmlns=\"http://www.w3.org/1999/xhtml\"><h3>Specimen information</h3><table class=\"hl7__eu__lab__report\"><thead><tr><th>Test</th><th>23-SEP-2016</th><th>Specimen</th><th></th></tr></thead><tbody><tr><td>Appearance of Urine</td><td>Cloudy urine</td><td>Urine</td><td></td></tr><tr><td>Odor of Urine</td><td>Urine smell ammoniacal</td><td>Urine</td><td></td></tr><tr><td>Clarity of Urine</td><td>Translucent</td><td>Urine</td><td></td></tr><tr><td>Color of Urine</td><td>Brown color</td><td>Urine</td><td></td></tr></tbody></table></div>"
                },
                "title": "Specimen information"
              }
            ],
            "title": "Laboratory Report"
          },
          {
            "text": {
              "status": "generated",
              "div": "<div xmlns=\"http://www.w3.org/1999/xhtml\"><h3>Annotation</h3><table class=\"hl7__eu__lab__report\"><tr><th>Conclusion and Recommendations based on this report and previous findings known to us</th></tr><tr><td>The patient shows markedly elevated serum creatinine, indicating significant renal impairment, and elevated ALT, suggesting possible liver involvement. Urinalysis reveals proteinuria, glucosuria, and ketonuria, with low specific gravity and abnormal appearance, supporting renal dysfunction and possible metabolic derangement (e.g., diabetes or dehydration). No evidence of urinary tract infection. Recommend urgent clinical evaluation for acute or chronic kidney disease and assessment for underlying metabolic or hepatic disorders.</td></tr></table></div>"
            },
            "code": {
              "coding": [
                {
                  "system": "http://loinc.org",
                  "code": "48767-8",
                  "display": "Annotation comment"
                }
              ]
            },
            "title": "Annotation comment"
          }
        ],
        "status": "final",
        "subject": {
          "reference": "urn:uuid:7cfb99d1-6515-47b1-b223-c223d47d6328",
          "display": "Maria Nohlmans"
        },
        "date": "2016-09-23T19:29:39Z",
        "title": "Laboratory Report",
        "confidentiality": "N"
      }
    },
    {
      "fullUrl": "urn:uuid:9c8e8d95-6ce9-48ec-98eb-9fc5974dc1c4",
      "resource": {
        "resourceType": "DiagnosticReport",
        "id": "9c8e8d95-6ce9-48ec-98eb-9fc5974dc1c4",
        "meta": {
          "profile": [
            "http://hl7.eu/fhir/laboratory/StructureDefinition/DiagnosticReport-eu-lab"
          ]
        },
        "identifier": [
          {
            "assigner": {
              "display": "HL7 Europe"
            },
            "system": "urn:oid:2.16.840.1.113883.2.51.999",
            "value": "527f744f-cd68-4680-8f5d-ba03f043d829"
          }
        ],
        "extension": [
          {
            "url": "http://hl7.org/fhir/5.0/StructureDefinition/extension-DiagnosticReport.composition",
            "valueReference": {
              "reference": "urn:uuid:4c7d0238-af1b-4f3c-a972-489de6d201fc"
            }
          }
        ],
        "category": [
          {
            "coding": [
              {
                "code": "26436-6",
                "system": "http://loinc.org",
                "display": "Laboratory studies (set)"
              }
            ]
          }
        ],
        "specimen": [
          {
            "reference": "urn:uuid:64c9e631-967c-4f18-9d0d-161632efda2d"
          },
          {
            "reference": "urn:uuid:ea2f76a5-7dbe-44e6-b54b-83f05d8c64f4"
          },
          {
            "reference": "urn:uuid:f5018d46-053b-4048-9bdb-8f38def304b2"
          },
          {
            "reference": "urn:uuid:6a5d4800-6430-43f2-b7cf-30b16b457f1e"
          }
        ],
        "result": [
          {
            "reference": "urn:uuid:2d09f71e-c495-44db-838d-4ac29c29fd80"
          },
          {
            "reference": "urn:uuid:9aa9471c-56b8-49ba-8a84-c201a98c96f6"
          },
          {
            "reference": "urn:uuid:259bc340-d440-44f7-b6de-336d98c968b1"
          },
          {
            "reference": "urn:uuid:2cf91f0c-ae48-484f-a021-025fde420117"
          },
          {
            "reference": "urn:uuid:b2a1e160-a7bc-45a7-bdda-68d516e38d58"
          },
          {
            "reference": "urn:uuid:a1e7b18d-2850-4b89-9789-5521e2b71301"
          },
          {
            "reference": "urn:uuid:765ce769-a7d9-46f1-871b-df5123fac46a"
          },
          {
            "reference": "urn:uuid:a892b179-d696-483e-9ec0-7420ef2283cf"
          },
          {
            "reference": "urn:uuid:5855cc4f-d46c-4c7e-916c-48510130f6c5"
          },
          {
            "reference": "urn:uuid:2328df2b-3cca-461d-a331-0cc2dbc05ca2"
          },
          {
            "reference": "urn:uuid:2db94686-f69e-46cb-b60d-2998cf347b11"
          },
          {
            "reference": "urn:uuid:4fca053c-4511-4a73-a75f-25fe5f39d3f4"
          },
          {
            "reference": "urn:uuid:0c866b50-1e11-4885-87aa-1b29ca5dd8c3"
          },
          {
            "reference": "urn:uuid:03a0d34a-1f80-49cb-99f6-01943af91352"
          },
          {
            "reference": "urn:uuid:bf920635-7fc7-4cf5-8f32-ae48de658582"
          },
          {
            "reference": "urn:uuid:3f21ad89-0a34-43d0-a700-3458ce514d33"
          },
          {
            "reference": "urn:uuid:e2e88402-dac2-4af5-8489-335eb777770b"
          },
          {
            "reference": "urn:uuid:da3a551c-053d-4480-a7f7-7b390e77f663"
          },
          {
            "reference": "urn:uuid:f382511e-327b-4b68-b589-852f63462ae4"
          },
          {
            "reference": "urn:uuid:97309a59-956e-4085-b8ee-d63e182cecce"
          },
          {
            "reference": "urn:uuid:93a7b936-334d-45bc-b4e7-e016e0909a87"
          },
          {
            "reference": "urn:uuid:8a7f5d82-cc86-46e0-94d9-ca30e479d50d"
          },
          {
            "reference": "urn:uuid:1e949bea-4e85-433c-85f1-cfeae2a6888b"
          },
          {
            "reference": "urn:uuid:27eb3627-edb9-4db4-8bcf-7ec2aa500ea1"
          },
          {
            "reference": "urn:uuid:5296bb83-180b-4af7-9fb9-8b790f9c7025"
          },
          {
            "reference": "urn:uuid:5b32d8fd-ada5-40e3-b2fe-4dcce81185c2"
          },
          {
            "reference": "urn:uuid:fbfa86fc-8b2a-42d5-8fb0-9d6c0aec5633"
          },
          {
            "reference": "urn:uuid:6814d8f7-40f6-4dde-bbce-f48fc91f490f"
          },
          {
            "reference": "urn:uuid:a860e512-5cad-48ec-92b1-6b9fa4a1f2d7"
          },
          {
            "reference": "urn:uuid:0d68a7a1-2567-4827-9328-6506e41b6524"
          },
          {
            "reference": "urn:uuid:83f68ccc-b772-4fb5-9e6b-e183e932d861"
          },
          {
            "reference": "urn:uuid:c93760b3-8d74-44eb-abb0-363ffcb424f6"
          }
        ],
        "status": "registered",
        "code": {
          "coding": [
            {
              "code": "11502-2",
              "system": "http://loinc.org",
              "display": "Laboratory report"
            }
          ]
        },
        "subject": {
          "reference": "urn:uuid:7cfb99d1-6515-47b1-b223-c223d47d6328",
          "display": "Maria Nohlmans"
        }
      }
    },
    {
      "fullUrl": "urn:uuid:7cfb99d1-6515-47b1-b223-c223d47d6328",
      "resource": {
        "resourceType": "Patient",
        "id": "7cfb99d1-6515-47b1-b223-c223d47d6328",
        "meta": {
          "security": [
            {
              "system": "http://terminology.hl7.org/CodeSystem/v3-ActReason",
              "code": "HTEST"
            },
            {
              "system": "http://terminology.hl7.org/CodeSystem/v3-ActReason",
              "code": "TRAIN"
            }
          ],
          "tag": [
            {
              "system": "https://synderai.net/fhir/CodeSystem/tags",
              "code": "synthetic",
              "display": "SYNDERAI Synthetic data"
            }
          ],
          "profile": [
            "http://hl7.eu/fhir/base/StructureDefinition/patient-eu-core"
          ]
        },
        "identifier": [
          {
            "type": {
              "coding": [
                {
                  "code": "PT",
                  "system": "http://terminology.hl7.org/CodeSystem/v2-0203"
                }
              ]
            },
            "system": "http://ec.europa.eu/identifier/eci",
            "value": "6886-506417-1"
          },
          {
            "type": {
              "coding": [
                {
                  "code": "MR",
                  "system": "http://terminology.hl7.org/CodeSystem/v2-0203"
                }
              ]
            },
            "system": "http://local.setting.eu/identifier",
            "value": "2cb21ed6-b617-b1f3-2290-589a710de5ee"
          }
        ],
        "name": [
          {
            "family": "Nohlmans"
          },
          {
            "given": [
              "Maria"
            ]
          },
          {
            "text": "Maria Nohlmans"
          }
        ],
        "address": [
          {
            "line": [
              "Alfons-Wulff-Weg 1"
            ],
            "use": "home",
            "type": "physical",
            "postalCode": "25813",
            "city": "Husum",
            "country": "Germany"
          }
        ],
        "telecom": [
          {
            "system": "phone",
            "value": "+49(0)1911 105501"
          }
        ],
        "extension": [
          {
            "url": "http://hl7.org/fhir/StructureDefinition/patient-nationality",
            "valueCodeableConcept": {
              "coding": [
                {
                  "code": "DE",
                  "system": "http://hl7.org/fhir/ValueSet/country"
                }
              ]
            }
          }
        ],
        "text": {
          "status": "generated",
          "div": "<div xmlns=\"http://www.w3.org/1999/xhtml\"><table class=\"hl7__ips\"><tr><td>Maria Nohlmans</td><td>female</td><td>11-Jun-1947</td></tr></table></div>"
        },
        "gender": "female",
        "birthDate": "1947-06-11"
      }
    },
    {
      "fullUrl": "urn:uuid:faf88f2e-e1c9-4268-b3be-bf56f2a28f39",
      "resource": {
        "resourceType": "ServiceRequest",
        "id": "faf88f2e-e1c9-4268-b3be-bf56f2a28f39",
        "meta": {
          "profile": [
            "http://hl7.eu/fhir/laboratory/StructureDefinition/ServiceRequest-eu-lab"
          ]
        },
        "identifier": [
          {
            "system": "http://example.org",
            "value": "ba5646c1-fd38-4479-b9b1-b209700bcaff"
          }
        ],
        "specimen": [
          {
            "reference": "urn:uuid:64c9e631-967c-4f18-9d0d-161632efda2d"
          },
          {
            "reference": "urn:uuid:ea2f76a5-7dbe-44e6-b54b-83f05d8c64f4"
          },
          {
            "reference": "urn:uuid:f5018d46-053b-4048-9bdb-8f38def304b2"
          },
          {
            "reference": "urn:uuid:6a5d4800-6430-43f2-b7cf-30b16b457f1e"
          }
        ],
        "reasonCode": [
          {
            "coding": [
              {
                "code": "401314000",
                "system": "http://snomed.info/sct",
                "display": "Acute non-ST segment elevation myocardial infarction"
              }
            ]
          },
          {
            "coding": [
              {
                "code": "157141000119108",
                "system": "http://snomed.info/sct",
                "display": "Proteinuria due to type 2 diabetes mellitus"
              }
            ]
          },
          {
            "coding": [
              {
                "code": "237602007",
                "system": "http://snomed.info/sct",
                "display": "Metabolic syndrome X"
              }
            ]
          },
          {
            "coding": [
              {
                "code": "90781000119102",
                "system": "http://snomed.info/sct",
                "display": "Microalbuminuria due to type 2 diabetes mellitus"
              }
            ]
          },
          {
            "coding": [
              {
                "code": "127013003",
                "system": "http://snomed.info/sct",
                "display": "Disorder of kidney due to diabetes mellitus"
              }
            ]
          },
          {
            "coding": [
              {
                "code": "59621000",
                "system": "http://snomed.info/sct",
                "display": "Essential hypertension"
              }
            ]
          },
          {
            "coding": [
              {
                "code": "271737000",
                "system": "http://snomed.info/sct",
                "display": "Anemia"
              }
            ]
          },
          {
            "coding": [
              {
                "code": "15777000",
                "system": "http://snomed.info/sct",
                "display": "Prediabetes"
              }
            ]
          }
        ],
        "status": "active",
        "intent": "order",
        "code": {
          "coding": [
            {
              "code": "108252007",
              "system": "http://snomed.info/sct",
              "display": "Laboratory procedure"
            }
          ]
        },
        "subject": {
          "reference": "urn:uuid:7cfb99d1-6515-47b1-b223-c223d47d6328",
          "display": "Maria Nohlmans"
        },
        "requester": {
          "reference": "urn:uuid:3a9edee4-20d3-42d7-b4dc-16f966983d78"
        }
      }
    },
    {
      "fullUrl": "urn:uuid:3a9edee4-20d3-42d7-b4dc-16f966983d78",
      "resource": {
        "resourceType": "PractitionerRole",
        "id": "3a9edee4-20d3-42d7-b4dc-16f966983d78",
        "meta": {
          "profile": [
            "http://hl7.eu/fhir/base/StructureDefinition/practitionerRole-eu"
          ]
        },
        "text": {
          "status": "generated",
          "div": "<div xmlns=\"http://www.w3.org/1999/xhtml\">Provider Role Id: 3a9edee4-20d3-42d7-b4dc-16f966983d78</div>"
        },
        "organization": {
          "reference": "urn:uuid:10ed38a5-51c2-4580-be6d-f6af636efa43"
        }
      }
    },
    {
      "fullUrl": "urn:uuid:10ed38a5-51c2-4580-be6d-f6af636efa43",
      "resource": {
        "resourceType": "Organization",
        "id": "10ed38a5-51c2-4580-be6d-f6af636efa43",
        "meta": {
          "profile": [
            "http://hl7.eu/fhir/base/StructureDefinition/organization-eu"
          ]
        },
        "identifier": [
          {
            "assigner": {
              "display": "HL7 Europe"
            },
            "system": "urn:oid:2.16.840.1.113883.2.51.999",
            "value": "9a5bcb54-c932-4eeb-aded-2911733dbd62"
          }
        ],
        "address": [
          {
            "line": [
              "Brinckmannstraße 35"
            ],
            "city": "Husum",
            "postalCode": "25813",
            "country": "Germany"
          }
        ],
        "text": {
          "status": "generated",
          "div": "<div xmlns=\"http://www.w3.org/1999/xhtml\">Provider Organization: Dr. Wolfram Hussels Kieferorthopäde</div>"
        },
        "name": "Dr. Wolfram Hussels Kieferorthopäde"
      }
    },
    {
      "fullUrl": "urn:uuid:64c9e631-967c-4f18-9d0d-161632efda2d",
      "resource": {
        "resourceType": "Specimen",
        "id": "64c9e631-967c-4f18-9d0d-161632efda2d",
        "meta": {
          "profile": [
            "http://hl7.eu/fhir/laboratory/StructureDefinition/Specimen-eu-lab"
          ]
        },
        "collection": {
          "collectedDateTime": "2016-09-23"
        },
        "text": {
          "status": "generated",
          "div": "<div xmlns=\"http://www.w3.org/1999/xhtml\"><table class=\"hl7__eu__lab__report\"><tr><th>Specimen</th><th>Collection Date</th></tr><tr><td>Whole blood specimen (specimen)</td><td><span class=\"nb\">23-Sep-2016</span></td></tr></table></div>"
        },
        "type": {
          "coding": [
            {
              "code": "258580003",
              "system": "http://snomed.info/sct",
              "display": "Whole blood specimen (specimen)"
            }
          ]
        }
      }
    },
    {
      "fullUrl": "urn:uuid:ea2f76a5-7dbe-44e6-b54b-83f05d8c64f4",
      "resource": {
        "resourceType": "Specimen",
        "id": "ea2f76a5-7dbe-44e6-b54b-83f05d8c64f4",
        "meta": {
          "profile": [
            "http://hl7.eu/fhir/laboratory/StructureDefinition/Specimen-eu-lab"
          ]
        },
        "collection": {
          "collectedDateTime": "2016-09-23"
        },
        "text": {
          "status": "generated",
          "div": "<div xmlns=\"http://www.w3.org/1999/xhtml\"><table class=\"hl7__eu__lab__report\"><tr><th>Specimen</th><th>Collection Date</th></tr><tr><td>Acellular blood (serum or plasma) specimen</td><td><span class=\"nb\">23-Sep-2016</span></td></tr></table></div>"
        },
        "type": {
          "coding": [
            {
              "code": "122592007",
              "system": "http://snomed.info/sct",
              "display": "Acellular blood (serum or plasma) specimen"
            }
          ]
        }
      }
    },
    {
      "fullUrl": "urn:uuid:f5018d46-053b-4048-9bdb-8f38def304b2",
      "resource": {
        "resourceType": "Specimen",
        "id": "f5018d46-053b-4048-9bdb-8f38def304b2",
        "meta": {
          "profile": [
            "http://hl7.eu/fhir/laboratory/StructureDefinition/Specimen-eu-lab"
          ]
        },
        "collection": {
          "collectedDateTime": "2016-09-23"
        },
        "text": {
          "status": "generated",
          "div": "<div xmlns=\"http://www.w3.org/1999/xhtml\"><table class=\"hl7__eu__lab__report\"><tr><th>Specimen</th><th>Collection Date</th></tr><tr><td>Serum specimen</td><td><span class=\"nb\">23-Sep-2016</span></td></tr></table></div>"
        },
        "type": {
          "coding": [
            {
              "code": "119364003",
              "system": "http://snomed.info/sct",
              "display": "Serum specimen"
            }
          ]
        }
      }
    },
    {
      "fullUrl": "urn:uuid:6a5d4800-6430-43f2-b7cf-30b16b457f1e",
      "resource": {
        "resourceType": "Specimen",
        "id": "6a5d4800-6430-43f2-b7cf-30b16b457f1e",
        "meta": {
          "profile": [
            "http://hl7.eu/fhir/laboratory/StructureDefinition/Specimen-eu-lab"
          ]
        },
        "collection": {
          "collectedDateTime": "2016-09-23"
        },
        "text": {
          "status": "generated",
          "div": "<div xmlns=\"http://www.w3.org/1999/xhtml\"><table class=\"hl7__eu__lab__report\"><tr><th>Specimen</th><th>Collection Date</th></tr><tr><td>Urine specimen</td><td><span class=\"nb\">23-Sep-2016</span></td></tr></table></div>"
        },
        "type": {
          "coding": [
            {
              "code": "122575003",
              "system": "http://snomed.info/sct",
              "display": "Urine specimen"
            }
          ]
        }
      }
    },
    {
      "fullUrl": "urn:uuid:2d09f71e-c495-44db-838d-4ac29c29fd80",
      "resource": {
        "resourceType": "Observation",
        "id": "2d09f71e-c495-44db-838d-4ac29c29fd80",
        "meta": {
          "profile": [
            "http://hl7.eu/fhir/laboratory/StructureDefinition/Observation-resultslab-eu-lab"
          ]
        },
        "performer": [
          {
            "display": "The Central European Lab"
          }
        ],
        "category": [
          {
            "coding": [
              {
                "system": "http://terminology.hl7.org/CodeSystem/observation-category",
                "code": "laboratory"
              }
            ]
          }
        ],
        "code": {
          "coding": [
            {
              "code": "2339-0",
              "system": "http://loinc.org",
              "display": "Glucose [Mass/volume] in Blood"
            }
          ],
          "text": "Glucose [Mass/volume] in Blood"
        },
        "valueQuantity": {
          "system": "http://unitsofmeasure.org",
          "value": 77.3,
          "unit": "mg/dL",
          "code": "mg/dL"
        },
        "referenceRange": [
          {
            "low": {
              "value": 70,
              "code": "mg/dL",
              "system": "http://unitsofmeasure.org"
            }
          },
          {
            "high": {
              "value": 140,
              "code": "mg/dL",
              "system": "http://unitsofmeasure.org"
            }
          }
        ],
        "text": {
          "status": "generated",
          "div": "<div xmlns=\"http://www.w3.org/1999/xhtml\"><table class=\"hl7__eu__lab__report\"><tr><th>Test</th><th>23-Sep-2016</th><th>Reference&#xA0;Range</th><th>Unit</th></tr><tr><td>Glucose [Mass/volume] in Blood</td><td>77.3</td><td>70 - 140</td><td></td><td>mg/dL</td></tr></table></div>"
        },
        "status": "final",
        "subject": {
          "reference": "urn:uuid:7cfb99d1-6515-47b1-b223-c223d47d6328",
          "display": "Maria Nohlmans"
        },
        "effectiveDateTime": "2016-09-23T17:29:39Z",
        "specimen": {
          "reference": "urn:uuid:64c9e631-967c-4f18-9d0d-161632efda2d"
        }
      }
    },
    {
      "fullUrl": "urn:uuid:9aa9471c-56b8-49ba-8a84-c201a98c96f6",
      "resource": {
        "resourceType": "Observation",
        "id": "9aa9471c-56b8-49ba-8a84-c201a98c96f6",
        "meta": {
          "profile": [
            "http://hl7.eu/fhir/laboratory/StructureDefinition/Observation-resultslab-eu-lab"
          ]
        },
        "performer": [
          {
            "display": "The Central European Lab"
          }
        ],
        "category": [
          {
            "coding": [
              {
                "system": "http://terminology.hl7.org/CodeSystem/observation-category",
                "code": "laboratory"
              }
            ]
          }
        ],
        "code": {
          "coding": [
            {
              "code": "6299-2",
              "system": "http://loinc.org",
              "display": "Urea nitrogen [Mass/volume] in Blood"
            }
          ],
          "text": "Urea nitrogen [Mass/volume] in Blood"
        },
        "valueQuantity": {
          "system": "http://unitsofmeasure.org",
          "value": 18.4,
          "unit": "mg/dL",
          "code": "mg/dL"
        },
        "referenceRange": [
          {
            "low": {
              "value": 7,
              "code": "mg/dL",
              "system": "http://unitsofmeasure.org"
            }
          },
          {
            "high": {
              "value": 30,
              "code": "mg/dL",
              "system": "http://unitsofmeasure.org"
            }
          }
        ],
        "text": {
          "status": "generated",
          "div": "<div xmlns=\"http://www.w3.org/1999/xhtml\"><table class=\"hl7__eu__lab__report\"><tr><th>Test</th><th>23-Sep-2016</th><th>Reference&#xA0;Range</th><th>Unit</th></tr><tr><td>Urea nitrogen [Mass/volume] in Blood</td><td>18.4</td><td>7 - 30</td><td></td><td>mg/dL</td></tr></table></div>"
        },
        "status": "final",
        "subject": {
          "reference": "urn:uuid:7cfb99d1-6515-47b1-b223-c223d47d6328",
          "display": "Maria Nohlmans"
        },
        "effectiveDateTime": "2016-09-23T17:29:39Z",
        "specimen": {
          "reference": "urn:uuid:64c9e631-967c-4f18-9d0d-161632efda2d"
        }
      }
    },
    {
      "fullUrl": "urn:uuid:259bc340-d440-44f7-b6de-336d98c968b1",
      "resource": {
        "resourceType": "Observation",
        "id": "259bc340-d440-44f7-b6de-336d98c968b1",
        "meta": {
          "profile": [
            "http://hl7.eu/fhir/laboratory/StructureDefinition/Observation-resultslab-eu-lab"
          ]
        },
        "performer": [
          {
            "display": "The Central European Lab"
          }
        ],
        "category": [
          {
            "coding": [
              {
                "system": "http://terminology.hl7.org/CodeSystem/observation-category",
                "code": "laboratory"
              }
            ]
          }
        ],
        "code": {
          "coding": [
            {
              "code": "38483-4",
              "system": "http://loinc.org",
              "display": "Creatinine [Mass/volume] in Blood"
            }
          ],
          "text": "Creatinine [Mass/volume] in Blood"
        },
        "valueQuantity": {
          "system": "http://unitsofmeasure.org",
          "value": 3.3,
          "unit": "mg/dL",
          "code": "mg/dL"
        },
        "referenceRange": [
          {
            "low": {
              "value": 0.5,
              "code": "mg/dL",
              "system": "http://unitsofmeasure.org"
            }
          },
          {
            "high": {
              "value": 1.3,
              "code": "mg/dL",
              "system": "http://unitsofmeasure.org"
            }
          }
        ],
        "interpretation": [
          {
            "coding": [
              {
                "code": "H",
                "system": "http://terminology.hl7.org/CodeSystem/v3-ObservationInterpretation",
                "display": "High"
              }
            ]
          }
        ],
        "text": {
          "status": "generated",
          "div": "<div xmlns=\"http://www.w3.org/1999/xhtml\"><table class=\"hl7__eu__lab__report\"><tr><th>Test</th><th>23-Sep-2016</th><th>Reference&#xA0;Range</th><th>Unit</th></tr><tr><td>Creatinine [Mass/volume] in Blood</td><td>3.3</td><td>0.5 - 1.3</td><td>H</td><td>mg/dL</td></tr></table></div>"
        },
        "status": "final",
        "subject": {
          "reference": "urn:uuid:7cfb99d1-6515-47b1-b223-c223d47d6328",
          "display": "Maria Nohlmans"
        },
        "effectiveDateTime": "2016-09-23T17:29:39Z",
        "specimen": {
          "reference": "urn:uuid:64c9e631-967c-4f18-9d0d-161632efda2d"
        }
      }
    },
    {
      "fullUrl": "urn:uuid:2cf91f0c-ae48-484f-a021-025fde420117",
      "resource": {
        "resourceType": "Observation",
        "id": "2cf91f0c-ae48-484f-a021-025fde420117",
        "meta": {
          "profile": [
            "http://hl7.eu/fhir/laboratory/StructureDefinition/Observation-resultslab-eu-lab"
          ]
        },
        "performer": [
          {
            "display": "The Central European Lab"
          }
        ],
        "category": [
          {
            "coding": [
              {
                "system": "http://terminology.hl7.org/CodeSystem/observation-category",
                "code": "laboratory"
              }
            ]
          }
        ],
        "code": {
          "coding": [
            {
              "code": "49765-1",
              "system": "http://loinc.org",
              "display": "Calcium [Mass/volume] in Blood"
            }
          ],
          "text": "Calcium [Mass/volume] in Blood"
        },
        "valueQuantity": {
          "system": "http://unitsofmeasure.org",
          "value": 8.7,
          "unit": "mg/dL",
          "code": "mg/dL"
        },
        "referenceRange": [
          {
            "low": {
              "value": 8.6,
              "code": "mg/dL",
              "system": "http://unitsofmeasure.org"
            }
          },
          {
            "high": {
              "value": 10.2,
              "code": "mg/dL",
              "system": "http://unitsofmeasure.org"
            }
          }
        ],
        "text": {
          "status": "generated",
          "div": "<div xmlns=\"http://www.w3.org/1999/xhtml\"><table class=\"hl7__eu__lab__report\"><tr><th>Test</th><th>23-Sep-2016</th><th>Reference&#xA0;Range</th><th>Unit</th></tr><tr><td>Calcium [Mass/volume] in Blood</td><td>8.7</td><td>8.6 - 10.2</td><td></td><td>mg/dL</td></tr></table></div>"
        },
        "status": "final",
        "subject": {
          "reference": "urn:uuid:7cfb99d1-6515-47b1-b223-c223d47d6328",
          "display": "Maria Nohlmans"
        },
        "effectiveDateTime": "2016-09-23T17:29:39Z",
        "specimen": {
          "reference": "urn:uuid:64c9e631-967c-4f18-9d0d-161632efda2d"
        }
      }
    },
    {
      "fullUrl": "urn:uuid:b2a1e160-a7bc-45a7-bdda-68d516e38d58",
      "resource": {
        "resourceType": "Observation",
        "id": "b2a1e160-a7bc-45a7-bdda-68d516e38d58",
        "meta": {
          "profile": [
            "http://hl7.eu/fhir/laboratory/StructureDefinition/Observation-resultslab-eu-lab"
          ]
        },
        "performer": [
          {
            "display": "The Central European Lab"
          }
        ],
        "category": [
          {
            "coding": [
              {
                "system": "http://terminology.hl7.org/CodeSystem/observation-category",
                "code": "laboratory"
              }
            ]
          }
        ],
        "code": {
          "coding": [
            {
              "code": "2947-0",
              "system": "http://loinc.org",
              "display": "Sodium [Moles/volume] in Blood"
            }
          ],
          "text": "Sodium [Moles/volume] in Blood"
        },
        "valueQuantity": {
          "system": "http://unitsofmeasure.org",
          "value": 136.2,
          "unit": "mmol/L",
          "code": "mmol/L"
        },
        "referenceRange": [
          {
            "low": {
              "value": 135,
              "code": "mmol/L",
              "system": "http://unitsofmeasure.org"
            }
          },
          {
            "high": {
              "value": 145,
              "code": "mmol/L",
              "system": "http://unitsofmeasure.org"
            }
          }
        ],
        "text": {
          "status": "generated",
          "div": "<div xmlns=\"http://www.w3.org/1999/xhtml\"><table class=\"hl7__eu__lab__report\"><tr><th>Test</th><th>23-Sep-2016</th><th>Reference&#xA0;Range</th><th>Unit</th></tr><tr><td>Sodium [Moles/volume] in Blood</td><td>136.2</td><td>135 - 145</td><td></td><td>mmol/L</td></tr></table></div>"
        },
        "status": "final",
        "subject": {
          "reference": "urn:uuid:7cfb99d1-6515-47b1-b223-c223d47d6328",
          "display": "Maria Nohlmans"
        },
        "effectiveDateTime": "2016-09-23T17:29:39Z",
        "specimen": {
          "reference": "urn:uuid:64c9e631-967c-4f18-9d0d-161632efda2d"
        }
      }
    },
    {
      "fullUrl": "urn:uuid:a1e7b18d-2850-4b89-9789-5521e2b71301",
      "resource": {
        "resourceType": "Observation",
        "id": "a1e7b18d-2850-4b89-9789-5521e2b71301",
        "meta": {
          "profile": [
            "http://hl7.eu/fhir/laboratory/StructureDefinition/Observation-resultslab-eu-lab"
          ]
        },
        "performer": [
          {
            "display": "The Central European Lab"
          }
        ],
        "category": [
          {
            "coding": [
              {
                "system": "http://terminology.hl7.org/CodeSystem/observation-category",
                "code": "laboratory"
              }
            ]
          }
        ],
        "code": {
          "coding": [
            {
              "code": "6298-4",
              "system": "http://loinc.org",
              "display": "Potassium [Moles/volume] in Blood"
            }
          ],
          "text": "Potassium [Moles/volume] in Blood"
        },
        "valueQuantity": {
          "system": "http://unitsofmeasure.org",
          "value": 4.2,
          "unit": "mmol/L",
          "code": "mmol/L"
        },
        "referenceRange": [
          {
            "low": {
              "value": 3.5,
              "code": "mmol/L",
              "system": "http://unitsofmeasure.org"
            }
          },
          {
            "high": {
              "value": 5.1,
              "code": "mmol/L",
              "system": "http://unitsofmeasure.org"
            }
          }
        ],
        "text": {
          "status": "generated",
          "div": "<div xmlns=\"http://www.w3.org/1999/xhtml\"><table class=\"hl7__eu__lab__report\"><tr><th>Test</th><th>23-Sep-2016</th><th>Reference&#xA0;Range</th><th>Unit</th></tr><tr><td>Potassium [Moles/volume] in Blood</td><td>4.2</td><td>3.5 - 5.1</td><td></td><td>mmol/L</td></tr></table></div>"
        },
        "status": "final",
        "subject": {
          "reference": "urn:uuid:7cfb99d1-6515-47b1-b223-c223d47d6328",
          "display": "Maria Nohlmans"
        },
        "effectiveDateTime": "2016-09-23T17:29:39Z",
        "specimen": {
          "reference": "urn:uuid:64c9e631-967c-4f18-9d0d-161632efda2d"
        }
      }
    },
    {
      "fullUrl": "urn:uuid:765ce769-a7d9-46f1-871b-df5123fac46a",
      "resource": {
        "resourceType": "Observation",
        "id": "765ce769-a7d9-46f1-871b-df5123fac46a",
        "meta": {
          "profile": [
            "http://hl7.eu/fhir/laboratory/StructureDefinition/Observation-resultslab-eu-lab"
          ]
        },
        "performer": [
          {
            "display": "The Central European Lab"
          }
        ],
        "category": [
          {
            "coding": [
              {
                "system": "http://terminology.hl7.org/CodeSystem/observation-category",
                "code": "laboratory"
              }
            ]
          }
        ],
        "code": {
          "coding": [
            {
              "code": "2069-3",
              "system": "http://loinc.org",
              "display": "Chloride [Moles/volume] in Blood"
            }
          ],
          "text": "Chloride [Moles/volume] in Blood"
        },
        "valueQuantity": {
          "system": "http://unitsofmeasure.org",
          "value": 101.7,
          "unit": "mmol/L",
          "code": "mmol/L"
        },
        "referenceRange": [
          {
            "low": {
              "value": 98,
              "code": "mmol/L",
              "system": "http://unitsofmeasure.org"
            }
          },
          {
            "high": {
              "value": 114,
              "code": "mmol/L",
              "system": "http://unitsofmeasure.org"
            }
          }
        ],
        "text": {
          "status": "generated",
          "div": "<div xmlns=\"http://www.w3.org/1999/xhtml\"><table class=\"hl7__eu__lab__report\"><tr><th>Test</th><th>23-Sep-2016</th><th>Reference&#xA0;Range</th><th>Unit</th></tr><tr><td>Chloride [Moles/volume] in Blood</td><td>101.7</td><td>98 - 114</td><td></td><td>mmol/L</td></tr></table></div>"
        },
        "status": "final",
        "subject": {
          "reference": "urn:uuid:7cfb99d1-6515-47b1-b223-c223d47d6328",
          "display": "Maria Nohlmans"
        },
        "effectiveDateTime": "2016-09-23T17:29:39Z",
        "specimen": {
          "reference": "urn:uuid:64c9e631-967c-4f18-9d0d-161632efda2d"
        }
      }
    },
    {
      "fullUrl": "urn:uuid:a892b179-d696-483e-9ec0-7420ef2283cf",
      "resource": {
        "resourceType": "Observation",
        "id": "a892b179-d696-483e-9ec0-7420ef2283cf",
        "meta": {
          "profile": [
            "http://hl7.eu/fhir/laboratory/StructureDefinition/Observation-resultslab-eu-lab"
          ]
        },
        "performer": [
          {
            "display": "The Central European Lab"
          }
        ],
        "category": [
          {
            "coding": [
              {
                "system": "http://terminology.hl7.org/CodeSystem/observation-category",
                "code": "laboratory"
              }
            ]
          }
        ],
        "code": {
          "coding": [
            {
              "code": "20565-8",
              "system": "http://loinc.org",
              "display": "Carbon dioxide, total [Moles/volume] in Blood"
            }
          ],
          "text": "Carbon dioxide, total [Moles/volume] in Blood"
        },
        "valueQuantity": {
          "system": "http://unitsofmeasure.org",
          "value": 24.8,
          "unit": "mmol/L",
          "code": "mmol/L"
        },
        "referenceRange": [
          {
            "low": {
              "value": 22,
              "code": "mmol/L",
              "system": "http://unitsofmeasure.org"
            }
          },
          {
            "high": {
              "value": 32,
              "code": "mmol/L",
              "system": "http://unitsofmeasure.org"
            }
          }
        ],
        "text": {
          "status": "generated",
          "div": "<div xmlns=\"http://www.w3.org/1999/xhtml\"><table class=\"hl7__eu__lab__report\"><tr><th>Test</th><th>23-Sep-2016</th><th>Reference&#xA0;Range</th><th>Unit</th></tr><tr><td>Carbon dioxide, total [Moles/volume] in Blood</td><td>24.8</td><td>22 - 32</td><td></td><td>mmol/L</td></tr></table></div>"
        },
        "status": "final",
        "subject": {
          "reference": "urn:uuid:7cfb99d1-6515-47b1-b223-c223d47d6328",
          "display": "Maria Nohlmans"
        },
        "effectiveDateTime": "2016-09-23T17:29:39Z",
        "specimen": {
          "reference": "urn:uuid:64c9e631-967c-4f18-9d0d-161632efda2d"
        }
      }
    },
    {
      "fullUrl": "urn:uuid:5855cc4f-d46c-4c7e-916c-48510130f6c5",
      "resource": {
        "resourceType": "Observation",
        "id": "5855cc4f-d46c-4c7e-916c-48510130f6c5",
        "meta": {
          "profile": [
            "http://hl7.eu/fhir/laboratory/StructureDefinition/Observation-resultslab-eu-lab"
          ]
        },
        "performer": [
          {
            "display": "The Central European Lab"
          }
        ],
        "category": [
          {
            "coding": [
              {
                "system": "http://terminology.hl7.org/CodeSystem/observation-category",
                "code": "laboratory"
              }
            ]
          }
        ],
        "code": {
          "coding": [
            {
              "code": "2885-2",
              "system": "http://loinc.org",
              "display": "Protein [Mass/volume] in Serum or Plasma"
            }
          ],
          "text": "Protein [Mass/volume] in Serum or Plasma"
        },
        "valueQuantity": {
          "system": "http://unitsofmeasure.org",
          "value": 6.4,
          "unit": "g/dL",
          "code": "g/dL"
        },
        "referenceRange": [
          {
            "low": {
              "value": 6,
              "code": "g/dL",
              "system": "http://unitsofmeasure.org"
            }
          },
          {
            "high": {
              "value": 8.3,
              "code": "g/dL",
              "system": "http://unitsofmeasure.org"
            }
          }
        ],
        "text": {
          "status": "generated",
          "div": "<div xmlns=\"http://www.w3.org/1999/xhtml\"><table class=\"hl7__eu__lab__report\"><tr><th>Test</th><th>23-Sep-2016</th><th>Reference&#xA0;Range</th><th>Unit</th></tr><tr><td>Protein [Mass/volume] in Serum or Plasma</td><td>6.4</td><td>6 - 8.3</td><td></td><td>g/dL</td></tr></table></div>"
        },
        "status": "final",
        "subject": {
          "reference": "urn:uuid:7cfb99d1-6515-47b1-b223-c223d47d6328",
          "display": "Maria Nohlmans"
        },
        "effectiveDateTime": "2016-09-23T17:29:39Z",
        "specimen": {
          "reference": "urn:uuid:ea2f76a5-7dbe-44e6-b54b-83f05d8c64f4"
        }
      }
    },
    {
      "fullUrl": "urn:uuid:2328df2b-3cca-461d-a331-0cc2dbc05ca2",
      "resource": {
        "resourceType": "Observation",
        "id": "2328df2b-3cca-461d-a331-0cc2dbc05ca2",
        "meta": {
          "profile": [
            "http://hl7.eu/fhir/laboratory/StructureDefinition/Observation-resultslab-eu-lab"
          ]
        },
        "performer": [
          {
            "display": "The Central European Lab"
          }
        ],
        "category": [
          {
            "coding": [
              {
                "system": "http://terminology.hl7.org/CodeSystem/observation-category",
                "code": "laboratory"
              }
            ]
          }
        ],
        "code": {
          "coding": [
            {
              "code": "1751-7",
              "system": "http://loinc.org",
              "display": "Albumin [Mass/volume] in Serum or Plasma"
            }
          ],
          "text": "Albumin [Mass/volume] in Serum or Plasma"
        },
        "valueQuantity": {
          "system": "http://unitsofmeasure.org",
          "value": 3.6,
          "unit": "g/dL",
          "code": "g/dL"
        },
        "referenceRange": [
          {
            "low": {
              "value": 3.5,
              "code": "g/dL",
              "system": "http://unitsofmeasure.org"
            }
          },
          {
            "high": {
              "value": 5.5,
              "code": "g/dL",
              "system": "http://unitsofmeasure.org"
            }
          }
        ],
        "text": {
          "status": "generated",
          "div": "<div xmlns=\"http://www.w3.org/1999/xhtml\"><table class=\"hl7__eu__lab__report\"><tr><th>Test</th><th>23-Sep-2016</th><th>Reference&#xA0;Range</th><th>Unit</th></tr><tr><td>Albumin [Mass/volume] in Serum or Plasma</td><td>3.6</td><td>3.5 - 5.5</td><td></td><td>g/dL</td></tr></table></div>"
        },
        "status": "final",
        "subject": {
          "reference": "urn:uuid:7cfb99d1-6515-47b1-b223-c223d47d6328",
          "display": "Maria Nohlmans"
        },
        "effectiveDateTime": "2016-09-23T17:29:39Z",
        "specimen": {
          "reference": "urn:uuid:ea2f76a5-7dbe-44e6-b54b-83f05d8c64f4"
        }
      }
    },
    {
      "fullUrl": "urn:uuid:2db94686-f69e-46cb-b60d-2998cf347b11",
      "resource": {
        "resourceType": "Observation",
        "id": "2db94686-f69e-46cb-b60d-2998cf347b11",
        "meta": {
          "profile": [
            "http://hl7.eu/fhir/laboratory/StructureDefinition/Observation-resultslab-eu-lab"
          ]
        },
        "performer": [
          {
            "display": "The Central European Lab"
          }
        ],
        "category": [
          {
            "coding": [
              {
                "system": "http://terminology.hl7.org/CodeSystem/observation-category",
                "code": "laboratory"
              }
            ]
          }
        ],
        "code": {
          "coding": [
            {
              "code": "10834-0",
              "system": "http://loinc.org",
              "display": "Globulin [Mass/volume] in Serum by calculation"
            }
          ],
          "text": "Globulin [Mass/volume] in Serum by calculation"
        },
        "valueQuantity": {
          "system": "http://unitsofmeasure.org",
          "value": 2.9,
          "unit": "g/L",
          "code": "g/L"
        },
        "referenceRange": [
          {
            "low": {
              "value": 2,
              "code": "g/L",
              "system": "http://unitsofmeasure.org"
            }
          },
          {
            "high": {
              "value": 3.5,
              "code": "g/L",
              "system": "http://unitsofmeasure.org"
            }
          }
        ],
        "text": {
          "status": "generated",
          "div": "<div xmlns=\"http://www.w3.org/1999/xhtml\"><table class=\"hl7__eu__lab__report\"><tr><th>Test</th><th>23-Sep-2016</th><th>Reference&#xA0;Range</th><th>Unit</th></tr><tr><td>Globulin [Mass/volume] in Serum by calculation</td><td>2.9</td><td>2 - 3.5</td><td></td><td>g/L</td></tr></table></div>"
        },
        "status": "final",
        "subject": {
          "reference": "urn:uuid:7cfb99d1-6515-47b1-b223-c223d47d6328",
          "display": "Maria Nohlmans"
        },
        "effectiveDateTime": "2016-09-23T17:29:39Z",
        "specimen": {
          "reference": "urn:uuid:f5018d46-053b-4048-9bdb-8f38def304b2"
        }
      }
    },
    {
      "fullUrl": "urn:uuid:4fca053c-4511-4a73-a75f-25fe5f39d3f4",
      "resource": {
        "resourceType": "Observation",
        "id": "4fca053c-4511-4a73-a75f-25fe5f39d3f4",
        "meta": {
          "profile": [
            "http://hl7.eu/fhir/laboratory/StructureDefinition/Observation-resultslab-eu-lab"
          ]
        },
        "performer": [
          {
            "display": "The Central European Lab"
          }
        ],
        "category": [
          {
            "coding": [
              {
                "system": "http://terminology.hl7.org/CodeSystem/observation-category",
                "code": "laboratory"
              }
            ]
          }
        ],
        "code": {
          "coding": [
            {
              "code": "1975-2",
              "system": "http://loinc.org",
              "display": "Bilirubin.total [Mass/volume] in Serum or Plasma"
            }
          ],
          "text": "Bilirubin.total [Mass/volume] in Serum or Plasma"
        },
        "valueQuantity": {
          "system": "http://unitsofmeasure.org",
          "value": 0.2,
          "unit": "mg/dL",
          "code": "mg/dL"
        },
        "referenceRange": [
          {
            "low": {
              "value": 0.3,
              "code": "mg/dL",
              "system": "http://unitsofmeasure.org"
            }
          },
          {
            "high": {
              "value": 1.2,
              "code": "mg/dL",
              "system": "http://unitsofmeasure.org"
            }
          }
        ],
        "interpretation": [
          {
            "coding": [
              {
                "code": "L",
                "system": "http://terminology.hl7.org/CodeSystem/v3-ObservationInterpretation",
                "display": "Low"
              }
            ]
          }
        ],
        "text": {
          "status": "generated",
          "div": "<div xmlns=\"http://www.w3.org/1999/xhtml\"><table class=\"hl7__eu__lab__report\"><tr><th>Test</th><th>23-Sep-2016</th><th>Reference&#xA0;Range</th><th>Unit</th></tr><tr><td>Bilirubin.total [Mass/volume] in Serum or Plasma</td><td>0.2</td><td>0.3 - 1.2</td><td>L</td><td>mg/dL</td></tr></table></div>"
        },
        "status": "final",
        "subject": {
          "reference": "urn:uuid:7cfb99d1-6515-47b1-b223-c223d47d6328",
          "display": "Maria Nohlmans"
        },
        "effectiveDateTime": "2016-09-23T17:29:39Z",
        "specimen": {
          "reference": "urn:uuid:ea2f76a5-7dbe-44e6-b54b-83f05d8c64f4"
        }
      }
    },
    {
      "fullUrl": "urn:uuid:0c866b50-1e11-4885-87aa-1b29ca5dd8c3",
      "resource": {
        "resourceType": "Observation",
        "id": "0c866b50-1e11-4885-87aa-1b29ca5dd8c3",
        "meta": {
          "profile": [
            "http://hl7.eu/fhir/laboratory/StructureDefinition/Observation-resultslab-eu-lab"
          ]
        },
        "performer": [
          {
            "display": "The Central European Lab"
          }
        ],
        "category": [
          {
            "coding": [
              {
                "system": "http://terminology.hl7.org/CodeSystem/observation-category",
                "code": "laboratory"
              }
            ]
          }
        ],
        "code": {
          "coding": [
            {
              "code": "6768-6",
              "system": "http://loinc.org",
              "display": "Alkaline phosphatase [Enzymatic activity/volume] in Serum or Plasma"
            }
          ],
          "text": "Alkaline phosphatase [Enzymatic activity/volume] in Serum or Plasma"
        },
        "valueQuantity": {
          "system": "http://unitsofmeasure.org",
          "value": 78.1,
          "unit": "U/L",
          "code": "U/L"
        },
        "referenceRange": [
          {
            "low": {
              "value": 44,
              "code": "U/L",
              "system": "http://unitsofmeasure.org"
            }
          },
          {
            "high": {
              "value": 142,
              "code": "U/L",
              "system": "http://unitsofmeasure.org"
            }
          }
        ],
        "text": {
          "status": "generated",
          "div": "<div xmlns=\"http://www.w3.org/1999/xhtml\"><table class=\"hl7__eu__lab__report\"><tr><th>Test</th><th>23-Sep-2016</th><th>Reference&#xA0;Range</th><th>Unit</th></tr><tr><td>Alkaline phosphatase [Enzymatic activity/volume] in Serum or Plasma</td><td>78.1</td><td>44 - 142</td><td></td><td>U/L</td></tr></table></div>"
        },
        "status": "final",
        "subject": {
          "reference": "urn:uuid:7cfb99d1-6515-47b1-b223-c223d47d6328",
          "display": "Maria Nohlmans"
        },
        "effectiveDateTime": "2016-09-23T17:29:39Z",
        "specimen": {
          "reference": "urn:uuid:ea2f76a5-7dbe-44e6-b54b-83f05d8c64f4"
        }
      }
    },
    {
      "fullUrl": "urn:uuid:03a0d34a-1f80-49cb-99f6-01943af91352",
      "resource": {
        "resourceType": "Observation",
        "id": "03a0d34a-1f80-49cb-99f6-01943af91352",
        "meta": {
          "profile": [
            "http://hl7.eu/fhir/laboratory/StructureDefinition/Observation-resultslab-eu-lab"
          ]
        },
        "performer": [
          {
            "display": "The Central European Lab"
          }
        ],
        "category": [
          {
            "coding": [
              {
                "system": "http://terminology.hl7.org/CodeSystem/observation-category",
                "code": "laboratory"
              }
            ]
          }
        ],
        "code": {
          "coding": [
            {
              "code": "1742-6",
              "system": "http://loinc.org",
              "display": "Alanine aminotransferase [Enzymatic activity/volume] in Serum or Plasma"
            }
          ],
          "text": "Alanine aminotransferase [Enzymatic activity/volume] in Serum or Plasma"
        },
        "valueQuantity": {
          "system": "http://unitsofmeasure.org",
          "value": 57.1,
          "unit": "U/L",
          "code": "U/L"
        },
        "referenceRange": [
          {
            "low": {
              "value": 7,
              "code": "U/L",
              "system": "http://unitsofmeasure.org"
            }
          },
          {
            "high": {
              "value": 40,
              "code": "U/L",
              "system": "http://unitsofmeasure.org"
            }
          }
        ],
        "interpretation": [
          {
            "coding": [
              {
                "code": "H",
                "system": "http://terminology.hl7.org/CodeSystem/v3-ObservationInterpretation",
                "display": "High"
              }
            ]
          }
        ],
        "text": {
          "status": "generated",
          "div": "<div xmlns=\"http://www.w3.org/1999/xhtml\"><table class=\"hl7__eu__lab__report\"><tr><th>Test</th><th>23-Sep-2016</th><th>Reference&#xA0;Range</th><th>Unit</th></tr><tr><td>Alanine aminotransferase [Enzymatic activity/volume] in Serum or Plasma</td><td>57.1</td><td>7 - 40</td><td>H</td><td>U/L</td></tr></table></div>"
        },
        "status": "final",
        "subject": {
          "reference": "urn:uuid:7cfb99d1-6515-47b1-b223-c223d47d6328",
          "display": "Maria Nohlmans"
        },
        "effectiveDateTime": "2016-09-23T17:29:39Z",
        "specimen": {
          "reference": "urn:uuid:ea2f76a5-7dbe-44e6-b54b-83f05d8c64f4"
        }
      }
    },
    {
      "fullUrl": "urn:uuid:bf920635-7fc7-4cf5-8f32-ae48de658582",
      "resource": {
        "resourceType": "Observation",
        "id": "bf920635-7fc7-4cf5-8f32-ae48de658582",
        "meta": {
          "profile": [
            "http://hl7.eu/fhir/laboratory/StructureDefinition/Observation-resultslab-eu-lab"
          ]
        },
        "performer": [
          {
            "display": "The Central European Lab"
          }
        ],
        "category": [
          {
            "coding": [
              {
                "system": "http://terminology.hl7.org/CodeSystem/observation-category",
                "code": "laboratory"
              }
            ]
          }
        ],
        "code": {
          "coding": [
            {
              "code": "1920-8",
              "system": "http://loinc.org",
              "display": "Aspartate aminotransferase [Enzymatic activity/volume] in Serum or Plasma"
            }
          ],
          "text": "Aspartate aminotransferase [Enzymatic activity/volume] in Serum or Plasma"
        },
        "valueQuantity": {
          "system": "http://unitsofmeasure.org",
          "value": 18,
          "unit": "U/L",
          "code": "U/L"
        },
        "referenceRange": [
          {
            "low": {
              "value": 10,
              "code": "U/L",
              "system": "http://unitsofmeasure.org"
            }
          },
          {
            "high": {
              "value": 40,
              "code": "U/L",
              "system": "http://unitsofmeasure.org"
            }
          }
        ],
        "text": {
          "status": "generated",
          "div": "<div xmlns=\"http://www.w3.org/1999/xhtml\"><table class=\"hl7__eu__lab__report\"><tr><th>Test</th><th>23-Sep-2016</th><th>Reference&#xA0;Range</th><th>Unit</th></tr><tr><td>Aspartate aminotransferase [Enzymatic activity/volume] in Serum or Plasma</td><td>18.0</td><td>10 - 40</td><td></td><td>U/L</td></tr></table></div>"
        },
        "status": "final",
        "subject": {
          "reference": "urn:uuid:7cfb99d1-6515-47b1-b223-c223d47d6328",
          "display": "Maria Nohlmans"
        },
        "effectiveDateTime": "2016-09-23T17:29:39Z",
        "specimen": {
          "reference": "urn:uuid:ea2f76a5-7dbe-44e6-b54b-83f05d8c64f4"
        }
      }
    },
    {
      "fullUrl": "urn:uuid:3f21ad89-0a34-43d0-a700-3458ce514d33",
      "resource": {
        "resourceType": "Observation",
        "id": "3f21ad89-0a34-43d0-a700-3458ce514d33",
        "meta": {
          "profile": [
            "http://hl7.eu/fhir/laboratory/StructureDefinition/Observation-resultslab-eu-lab"
          ]
        },
        "performer": [
          {
            "display": "The Central European Lab"
          }
        ],
        "category": [
          {
            "coding": [
              {
                "system": "http://terminology.hl7.org/CodeSystem/observation-category",
                "code": "laboratory"
              }
            ]
          }
        ],
        "code": {
          "coding": [
            {
              "code": "5767-9",
              "system": "http://loinc.org",
              "display": "Appearance of Urine"
            }
          ],
          "text": "Appearance of Urine"
        },
        "text": {
          "status": "generated",
          "div": "<div xmlns=\"http://www.w3.org/1999/xhtml\"><table class=\"hl7__eu__lab__report\"><tr><th>Test</th><th>23-Sep-2016</th><th>Reference&#xA0;Range</th><th>Unit</th></tr><tr><td>Appearance of Urine</td></tr></table></div>"
        },
        "status": "final",
        "subject": {
          "reference": "urn:uuid:7cfb99d1-6515-47b1-b223-c223d47d6328",
          "display": "Maria Nohlmans"
        },
        "effectiveDateTime": "2016-09-23T17:29:39Z",
        "specimen": {
          "reference": "urn:uuid:6a5d4800-6430-43f2-b7cf-30b16b457f1e"
        }
      }
    },
    {
      "fullUrl": "urn:uuid:e2e88402-dac2-4af5-8489-335eb777770b",
      "resource": {
        "resourceType": "Observation",
        "id": "e2e88402-dac2-4af5-8489-335eb777770b",
        "meta": {
          "profile": [
            "http://hl7.eu/fhir/laboratory/StructureDefinition/Observation-resultslab-eu-lab"
          ]
        },
        "performer": [
          {
            "display": "The Central European Lab"
          }
        ],
        "category": [
          {
            "coding": [
              {
                "system": "http://terminology.hl7.org/CodeSystem/observation-category",
                "code": "laboratory"
              }
            ]
          }
        ],
        "code": {
          "coding": [
            {
              "code": "34533-0",
              "system": "http://loinc.org",
              "display": "Odor of Urine"
            }
          ],
          "text": "Odor of Urine"
        },
        "text": {
          "status": "generated",
          "div": "<div xmlns=\"http://www.w3.org/1999/xhtml\"><table class=\"hl7__eu__lab__report\"><tr><th>Test</th><th>23-Sep-2016</th><th>Reference&#xA0;Range</th><th>Unit</th></tr><tr><td>Odor of Urine</td></tr></table></div>"
        },
        "status": "final",
        "subject": {
          "reference": "urn:uuid:7cfb99d1-6515-47b1-b223-c223d47d6328",
          "display": "Maria Nohlmans"
        },
        "effectiveDateTime": "2016-09-23T17:29:39Z",
        "specimen": {
          "reference": "urn:uuid:6a5d4800-6430-43f2-b7cf-30b16b457f1e"
        }
      }
    },
    {
      "fullUrl": "urn:uuid:da3a551c-053d-4480-a7f7-7b390e77f663",
      "resource": {
        "resourceType": "Observation",
        "id": "da3a551c-053d-4480-a7f7-7b390e77f663",
        "meta": {
          "profile": [
            "http://hl7.eu/fhir/laboratory/StructureDefinition/Observation-resultslab-eu-lab"
          ]
        },
        "performer": [
          {
            "display": "The Central European Lab"
          }
        ],
        "category": [
          {
            "coding": [
              {
                "system": "http://terminology.hl7.org/CodeSystem/observation-category",
                "code": "laboratory"
              }
            ]
          }
        ],
        "code": {
          "coding": [
            {
              "code": "32167-9",
              "system": "http://loinc.org",
              "display": "Clarity of Urine"
            }
          ],
          "text": "Clarity of Urine"
        },
        "text": {
          "status": "generated",
          "div": "<div xmlns=\"http://www.w3.org/1999/xhtml\"><table class=\"hl7__eu__lab__report\"><tr><th>Test</th><th>23-Sep-2016</th><th>Reference&#xA0;Range</th><th>Unit</th></tr><tr><td>Clarity of Urine</td></tr></table></div>"
        },
        "status": "final",
        "subject": {
          "reference": "urn:uuid:7cfb99d1-6515-47b1-b223-c223d47d6328",
          "display": "Maria Nohlmans"
        },
        "effectiveDateTime": "2016-09-23T17:29:39Z",
        "specimen": {
          "reference": "urn:uuid:6a5d4800-6430-43f2-b7cf-30b16b457f1e"
        }
      }
    },
    {
      "fullUrl": "urn:uuid:f382511e-327b-4b68-b589-852f63462ae4",
      "resource": {
        "resourceType": "Observation",
        "id": "f382511e-327b-4b68-b589-852f63462ae4",
        "meta": {
          "profile": [
            "http://hl7.eu/fhir/laboratory/StructureDefinition/Observation-resultslab-eu-lab"
          ]
        },
        "performer": [
          {
            "display": "The Central European Lab"
          }
        ],
        "category": [
          {
            "coding": [
              {
                "system": "http://terminology.hl7.org/CodeSystem/observation-category",
                "code": "laboratory"
              }
            ]
          }
        ],
        "code": {
          "coding": [
            {
              "code": "5778-6",
              "system": "http://loinc.org",
              "display": "Color of Urine"
            }
          ],
          "text": "Color of Urine"
        },
        "text": {
          "status": "generated",
          "div": "<div xmlns=\"http://www.w3.org/1999/xhtml\"><table class=\"hl7__eu__lab__report\"><tr><th>Test</th><th>23-Sep-2016</th><th>Reference&#xA0;Range</th><th>Unit</th></tr><tr><td>Color of Urine</td></tr></table></div>"
        },
        "status": "final",
        "subject": {
          "reference": "urn:uuid:7cfb99d1-6515-47b1-b223-c223d47d6328",
          "display": "Maria Nohlmans"
        },
        "effectiveDateTime": "2016-09-23T17:29:39Z",
        "specimen": {
          "reference": "urn:uuid:6a5d4800-6430-43f2-b7cf-30b16b457f1e"
        }
      }
    },
    {
      "fullUrl": "urn:uuid:97309a59-956e-4085-b8ee-d63e182cecce",
      "resource": {
        "resourceType": "Observation",
        "id": "97309a59-956e-4085-b8ee-d63e182cecce",
        "meta": {
          "profile": [
            "http://hl7.eu/fhir/laboratory/StructureDefinition/Observation-resultslab-eu-lab"
          ]
        },
        "performer": [
          {
            "display": "The Central European Lab"
          }
        ],
        "category": [
          {
            "coding": [
              {
                "system": "http://terminology.hl7.org/CodeSystem/observation-category",
                "code": "laboratory"
              }
            ]
          }
        ],
        "code": {
          "coding": [
            {
              "code": "5792-7",
              "system": "http://loinc.org",
              "display": "Glucose [Mass/volume] in Urine by Test strip"
            }
          ],
          "text": "Glucose [Mass/volume] in Urine by Test strip"
        },
        "valueQuantity": {
          "system": "http://unitsofmeasure.org",
          "value": 1.8,
          "unit": "mg/dL",
          "code": "mg/dL"
        },
        "referenceRange": [
          {
            "low": {
              "value": 0.8,
              "code": "mg/dL",
              "system": "http://unitsofmeasure.org"
            }
          },
          {
            "high": {
              "value": 0,
              "code": "mg/dL",
              "system": "http://unitsofmeasure.org"
            }
          }
        ],
        "interpretation": [
          {
            "coding": [
              {
                "code": "H",
                "system": "http://terminology.hl7.org/CodeSystem/v3-ObservationInterpretation",
                "display": "High"
              }
            ]
          }
        ],
        "text": {
          "status": "generated",
          "div": "<div xmlns=\"http://www.w3.org/1999/xhtml\"><table class=\"hl7__eu__lab__report\"><tr><th>Test</th><th>23-Sep-2016</th><th>Reference&#xA0;Range</th><th>Unit</th></tr><tr><td>Glucose [Mass/volume] in Urine by Test strip</td><td>1.8</td><td>0.8 - 0</td><td>H</td><td>mg/dL</td></tr></table></div>"
        },
        "status": "final",
        "subject": {
          "reference": "urn:uuid:7cfb99d1-6515-47b1-b223-c223d47d6328",
          "display": "Maria Nohlmans"
        },
        "effectiveDateTime": "2016-09-23T17:29:39Z",
        "specimen": {
          "reference": "urn:uuid:6a5d4800-6430-43f2-b7cf-30b16b457f1e"
        }
      }
    },
    {
      "fullUrl": "urn:uuid:93a7b936-334d-45bc-b4e7-e016e0909a87",
      "resource": {
        "resourceType": "Observation",
        "id": "93a7b936-334d-45bc-b4e7-e016e0909a87",
        "meta": {
          "profile": [
            "http://hl7.eu/fhir/laboratory/StructureDefinition/Observation-resultslab-eu-lab"
          ]
        },
        "performer": [
          {
            "display": "The Central European Lab"
          }
        ],
        "category": [
          {
            "coding": [
              {
                "system": "http://terminology.hl7.org/CodeSystem/observation-category",
                "code": "laboratory"
              }
            ]
          }
        ],
        "code": {
          "coding": [
            {
              "code": "25428-4",
              "system": "http://loinc.org",
              "display": "Glucose [Presence] in Urine by Test strip"
            }
          ],
          "text": "Glucose [Presence] in Urine by Test strip"
        },
        "text": {
          "status": "generated",
          "div": "<div xmlns=\"http://www.w3.org/1999/xhtml\"><table class=\"hl7__eu__lab__report\"><tr><th>Test</th><th>23-Sep-2016</th><th>Reference&#xA0;Range</th><th>Unit</th></tr><tr><td>Glucose [Presence] in Urine by Test strip</td></tr></table></div>"
        },
        "status": "final",
        "subject": {
          "reference": "urn:uuid:7cfb99d1-6515-47b1-b223-c223d47d6328",
          "display": "Maria Nohlmans"
        },
        "effectiveDateTime": "2016-09-23T17:29:39Z",
        "specimen": {
          "reference": "urn:uuid:6a5d4800-6430-43f2-b7cf-30b16b457f1e"
        }
      }
    },
    {
      "fullUrl": "urn:uuid:8a7f5d82-cc86-46e0-94d9-ca30e479d50d",
      "resource": {
        "resourceType": "Observation",
        "id": "8a7f5d82-cc86-46e0-94d9-ca30e479d50d",
        "meta": {
          "profile": [
            "http://hl7.eu/fhir/laboratory/StructureDefinition/Observation-resultslab-eu-lab"
          ]
        },
        "performer": [
          {
            "display": "The Central European Lab"
          }
        ],
        "category": [
          {
            "coding": [
              {
                "system": "http://terminology.hl7.org/CodeSystem/observation-category",
                "code": "laboratory"
              }
            ]
          }
        ],
        "code": {
          "coding": [
            {
              "code": "20505-4",
              "system": "http://loinc.org",
              "display": "Bilirubin.total [Mass/volume] in Urine by Test strip"
            }
          ],
          "text": "Bilirubin.total [Mass/volume] in Urine by Test strip"
        },
        "valueQuantity": {
          "system": "http://unitsofmeasure.org",
          "value": 0.6,
          "unit": "mg/dL",
          "code": "mg/dL"
        },
        "referenceRange": [
          {
            "low": {
              "value": 0,
              "code": "mg/dL",
              "system": "http://unitsofmeasure.org"
            }
          },
          {
            "high": {
              "value": 1.5,
              "code": "mg/dL",
              "system": "http://unitsofmeasure.org"
            }
          }
        ],
        "text": {
          "status": "generated",
          "div": "<div xmlns=\"http://www.w3.org/1999/xhtml\"><table class=\"hl7__eu__lab__report\"><tr><th>Test</th><th>23-Sep-2016</th><th>Reference&#xA0;Range</th><th>Unit</th></tr><tr><td>Bilirubin.total [Mass/volume] in Urine by Test strip</td><td>0.6</td><td>0 - 1.5</td><td></td><td>mg/dL</td></tr></table></div>"
        },
        "status": "final",
        "subject": {
          "reference": "urn:uuid:7cfb99d1-6515-47b1-b223-c223d47d6328",
          "display": "Maria Nohlmans"
        },
        "effectiveDateTime": "2016-09-23T17:29:39Z",
        "specimen": {
          "reference": "urn:uuid:6a5d4800-6430-43f2-b7cf-30b16b457f1e"
        }
      }
    },
    {
      "fullUrl": "urn:uuid:1e949bea-4e85-433c-85f1-cfeae2a6888b",
      "resource": {
        "resourceType": "Observation",
        "id": "1e949bea-4e85-433c-85f1-cfeae2a6888b",
        "meta": {
          "profile": [
            "http://hl7.eu/fhir/laboratory/StructureDefinition/Observation-resultslab-eu-lab"
          ]
        },
        "performer": [
          {
            "display": "The Central European Lab"
          }
        ],
        "category": [
          {
            "coding": [
              {
                "system": "http://terminology.hl7.org/CodeSystem/observation-category",
                "code": "laboratory"
              }
            ]
          }
        ],
        "code": {
          "coding": [
            {
              "code": "5770-3",
              "system": "http://loinc.org",
              "display": "Bilirubin.total [Presence] in Urine by Test strip"
            }
          ],
          "text": "Bilirubin.total [Presence] in Urine by Test strip"
        },
        "text": {
          "status": "generated",
          "div": "<div xmlns=\"http://www.w3.org/1999/xhtml\"><table class=\"hl7__eu__lab__report\"><tr><th>Test</th><th>23-Sep-2016</th><th>Reference&#xA0;Range</th><th>Unit</th></tr><tr><td>Bilirubin.total [Presence] in Urine by Test strip</td></tr></table></div>"
        },
        "status": "final",
        "subject": {
          "reference": "urn:uuid:7cfb99d1-6515-47b1-b223-c223d47d6328",
          "display": "Maria Nohlmans"
        },
        "effectiveDateTime": "2016-09-23T17:29:39Z",
        "specimen": {
          "reference": "urn:uuid:6a5d4800-6430-43f2-b7cf-30b16b457f1e"
        }
      }
    },
    {
      "fullUrl": "urn:uuid:27eb3627-edb9-4db4-8bcf-7ec2aa500ea1",
      "resource": {
        "resourceType": "Observation",
        "id": "27eb3627-edb9-4db4-8bcf-7ec2aa500ea1",
        "meta": {
          "profile": [
            "http://hl7.eu/fhir/laboratory/StructureDefinition/Observation-resultslab-eu-lab"
          ]
        },
        "performer": [
          {
            "display": "The Central European Lab"
          }
        ],
        "category": [
          {
            "coding": [
              {
                "system": "http://terminology.hl7.org/CodeSystem/observation-category",
                "code": "laboratory"
              }
            ]
          }
        ],
        "code": {
          "coding": [
            {
              "code": "5797-6",
              "system": "http://loinc.org",
              "display": "Ketones [Mass/volume] in Urine by Test strip"
            }
          ],
          "text": "Ketones [Mass/volume] in Urine by Test strip"
        },
        "valueQuantity": {
          "system": "http://unitsofmeasure.org",
          "value": 17,
          "unit": "mg/dL",
          "code": "mg/dL"
        },
        "referenceRange": [
          {
            "low": {
              "value": 0,
              "code": "mg/dL",
              "system": "http://unitsofmeasure.org"
            }
          },
          {
            "high": {
              "value": 8,
              "code": "mg/dL",
              "system": "http://unitsofmeasure.org"
            }
          }
        ],
        "interpretation": [
          {
            "coding": [
              {
                "code": "H",
                "system": "http://terminology.hl7.org/CodeSystem/v3-ObservationInterpretation",
                "display": "High"
              }
            ]
          }
        ],
        "text": {
          "status": "generated",
          "div": "<div xmlns=\"http://www.w3.org/1999/xhtml\"><table class=\"hl7__eu__lab__report\"><tr><th>Test</th><th>23-Sep-2016</th><th>Reference&#xA0;Range</th><th>Unit</th></tr><tr><td>Ketones [Mass/volume] in Urine by Test strip</td><td>17.0</td><td>0 - 8</td><td>H</td><td>mg/dL</td></tr></table></div>"
        },
        "status": "final",
        "subject": {
          "reference": "urn:uuid:7cfb99d1-6515-47b1-b223-c223d47d6328",
          "display": "Maria Nohlmans"
        },
        "effectiveDateTime": "2016-09-23T17:29:39Z",
        "specimen": {
          "reference": "urn:uuid:6a5d4800-6430-43f2-b7cf-30b16b457f1e"
        }
      }
    },
    {
      "fullUrl": "urn:uuid:5296bb83-180b-4af7-9fb9-8b790f9c7025",
      "resource": {
        "resourceType": "Observation",
        "id": "5296bb83-180b-4af7-9fb9-8b790f9c7025",
        "meta": {
          "profile": [
            "http://hl7.eu/fhir/laboratory/StructureDefinition/Observation-resultslab-eu-lab"
          ]
        },
        "performer": [
          {
            "display": "The Central European Lab"
          }
        ],
        "category": [
          {
            "coding": [
              {
                "system": "http://terminology.hl7.org/CodeSystem/observation-category",
                "code": "laboratory"
              }
            ]
          }
        ],
        "code": {
          "coding": [
            {
              "code": "2514-8",
              "system": "http://loinc.org",
              "display": "Ketones [Presence] in Urine by Test strip"
            }
          ],
          "text": "Ketones [Presence] in Urine by Test strip"
        },
        "text": {
          "status": "generated",
          "div": "<div xmlns=\"http://www.w3.org/1999/xhtml\"><table class=\"hl7__eu__lab__report\"><tr><th>Test</th><th>23-Sep-2016</th><th>Reference&#xA0;Range</th><th>Unit</th></tr><tr><td>Ketones [Presence] in Urine by Test strip</td></tr></table></div>"
        },
        "status": "final",
        "subject": {
          "reference": "urn:uuid:7cfb99d1-6515-47b1-b223-c223d47d6328",
          "display": "Maria Nohlmans"
        },
        "effectiveDateTime": "2016-09-23T17:29:39Z",
        "specimen": {
          "reference": "urn:uuid:6a5d4800-6430-43f2-b7cf-30b16b457f1e"
        }
      }
    },
    {
      "fullUrl": "urn:uuid:5b32d8fd-ada5-40e3-b2fe-4dcce81185c2",
      "resource": {
        "resourceType": "Observation",
        "id": "5b32d8fd-ada5-40e3-b2fe-4dcce81185c2",
        "meta": {
          "profile": [
            "http://hl7.eu/fhir/laboratory/StructureDefinition/Observation-resultslab-eu-lab"
          ]
        },
        "performer": [
          {
            "display": "The Central European Lab"
          }
        ],
        "category": [
          {
            "coding": [
              {
                "system": "http://terminology.hl7.org/CodeSystem/observation-category",
                "code": "laboratory"
              }
            ]
          }
        ],
        "code": {
          "coding": [
            {
              "code": "5811-5",
              "system": "http://loinc.org",
              "display": "Specific gravity of Urine by Test strip"
            }
          ],
          "text": "Specific gravity of Urine by Test strip"
        },
        "valueQuantity": {
          "system": "http://unitsofmeasure.org",
          "value": 1,
          "unit": "{nominal}",
          "code": "{nominal}"
        },
        "referenceRange": [
          {
            "low": {
              "value": 1.01,
              "code": "g/mL",
              "system": "http://unitsofmeasure.org"
            }
          },
          {
            "high": {
              "value": 1.03,
              "code": "g/mL",
              "system": "http://unitsofmeasure.org"
            }
          }
        ],
        "interpretation": [
          {
            "coding": [
              {
                "code": "L",
                "system": "http://terminology.hl7.org/CodeSystem/v3-ObservationInterpretation",
                "display": "Low"
              }
            ]
          }
        ],
        "text": {
          "status": "generated",
          "div": "<div xmlns=\"http://www.w3.org/1999/xhtml\"><table class=\"hl7__eu__lab__report\"><tr><th>Test</th><th>23-Sep-2016</th><th>Reference&#xA0;Range</th><th>Unit</th></tr><tr><td>Specific gravity of Urine by Test strip</td><td>1.0</td><td>1.01 - 1.03</td><td>L</td><td>{nominal}</td></tr></table></div>"
        },
        "status": "final",
        "subject": {
          "reference": "urn:uuid:7cfb99d1-6515-47b1-b223-c223d47d6328",
          "display": "Maria Nohlmans"
        },
        "effectiveDateTime": "2016-09-23T17:29:39Z",
        "specimen": {
          "reference": "urn:uuid:6a5d4800-6430-43f2-b7cf-30b16b457f1e"
        }
      }
    },
    {
      "fullUrl": "urn:uuid:fbfa86fc-8b2a-42d5-8fb0-9d6c0aec5633",
      "resource": {
        "resourceType": "Observation",
        "id": "fbfa86fc-8b2a-42d5-8fb0-9d6c0aec5633",
        "meta": {
          "profile": [
            "http://hl7.eu/fhir/laboratory/StructureDefinition/Observation-resultslab-eu-lab"
          ]
        },
        "performer": [
          {
            "display": "The Central European Lab"
          }
        ],
        "category": [
          {
            "coding": [
              {
                "system": "http://terminology.hl7.org/CodeSystem/observation-category",
                "code": "laboratory"
              }
            ]
          }
        ],
        "code": {
          "coding": [
            {
              "code": "5803-2",
              "system": "http://loinc.org",
              "display": "pH of Urine by Test strip"
            }
          ],
          "text": "pH of Urine by Test strip"
        },
        "valueQuantity": {
          "system": "http://unitsofmeasure.org",
          "value": 6,
          "unit": "pH",
          "code": "pH"
        },
        "referenceRange": [
          {
            "low": {
              "value": 4.6,
              "code": "pH",
              "system": "http://unitsofmeasure.org"
            }
          },
          {
            "high": {
              "value": 7.5,
              "code": "pH",
              "system": "http://unitsofmeasure.org"
            }
          }
        ],
        "text": {
          "status": "generated",
          "div": "<div xmlns=\"http://www.w3.org/1999/xhtml\"><table class=\"hl7__eu__lab__report\"><tr><th>Test</th><th>23-Sep-2016</th><th>Reference&#xA0;Range</th><th>Unit</th></tr><tr><td>pH of Urine by Test strip</td><td>6.0</td><td>4.6 - 7.5</td><td></td><td>pH</td></tr></table></div>"
        },
        "status": "final",
        "subject": {
          "reference": "urn:uuid:7cfb99d1-6515-47b1-b223-c223d47d6328",
          "display": "Maria Nohlmans"
        },
        "effectiveDateTime": "2016-09-23T17:29:39Z",
        "specimen": {
          "reference": "urn:uuid:6a5d4800-6430-43f2-b7cf-30b16b457f1e"
        }
      }
    },
    {
      "fullUrl": "urn:uuid:6814d8f7-40f6-4dde-bbce-f48fc91f490f",
      "resource": {
        "resourceType": "Observation",
        "id": "6814d8f7-40f6-4dde-bbce-f48fc91f490f",
        "meta": {
          "profile": [
            "http://hl7.eu/fhir/laboratory/StructureDefinition/Observation-resultslab-eu-lab"
          ]
        },
        "performer": [
          {
            "display": "The Central European Lab"
          }
        ],
        "category": [
          {
            "coding": [
              {
                "system": "http://terminology.hl7.org/CodeSystem/observation-category",
                "code": "laboratory"
              }
            ]
          }
        ],
        "code": {
          "coding": [
            {
              "code": "5804-0",
              "system": "http://loinc.org",
              "display": "Protein [Mass/volume] in Urine by Test strip"
            }
          ],
          "text": "Protein [Mass/volume] in Urine by Test strip"
        },
        "valueQuantity": {
          "system": "http://unitsofmeasure.org",
          "value": 294,
          "unit": "mg/dL",
          "code": "mg/dL"
        },
        "referenceRange": [
          {
            "low": {
              "value": 0,
              "code": "mg/dL",
              "system": "http://unitsofmeasure.org"
            }
          },
          {
            "high": {
              "value": 14,
              "code": "mg/dL",
              "system": "http://unitsofmeasure.org"
            }
          }
        ],
        "interpretation": [
          {
            "coding": [
              {
                "code": "H",
                "system": "http://terminology.hl7.org/CodeSystem/v3-ObservationInterpretation",
                "display": "High"
              }
            ]
          }
        ],
        "text": {
          "status": "generated",
          "div": "<div xmlns=\"http://www.w3.org/1999/xhtml\"><table class=\"hl7__eu__lab__report\"><tr><th>Test</th><th>23-Sep-2016</th><th>Reference&#xA0;Range</th><th>Unit</th></tr><tr><td>Protein [Mass/volume] in Urine by Test strip</td><td>294.0</td><td>0 - 14</td><td>H</td><td>mg/dL</td></tr></table></div>"
        },
        "status": "final",
        "subject": {
          "reference": "urn:uuid:7cfb99d1-6515-47b1-b223-c223d47d6328",
          "display": "Maria Nohlmans"
        },
        "effectiveDateTime": "2016-09-23T17:29:39Z",
        "specimen": {
          "reference": "urn:uuid:6a5d4800-6430-43f2-b7cf-30b16b457f1e"
        }
      }
    },
    {
      "fullUrl": "urn:uuid:a860e512-5cad-48ec-92b1-6b9fa4a1f2d7",
      "resource": {
        "resourceType": "Observation",
        "id": "a860e512-5cad-48ec-92b1-6b9fa4a1f2d7",
        "meta": {
          "profile": [
            "http://hl7.eu/fhir/laboratory/StructureDefinition/Observation-resultslab-eu-lab"
          ]
        },
        "performer": [
          {
            "display": "The Central European Lab"
          }
        ],
        "category": [
          {
            "coding": [
              {
                "system": "http://terminology.hl7.org/CodeSystem/observation-category",
                "code": "laboratory"
              }
            ]
          }
        ],
        "code": {
          "coding": [
            {
              "code": "20454-5",
              "system": "http://loinc.org",
              "display": "Protein [Presence] in Urine by Test strip"
            }
          ],
          "text": "Protein [Presence] in Urine by Test strip"
        },
        "text": {
          "status": "generated",
          "div": "<div xmlns=\"http://www.w3.org/1999/xhtml\"><table class=\"hl7__eu__lab__report\"><tr><th>Test</th><th>23-Sep-2016</th><th>Reference&#xA0;Range</th><th>Unit</th></tr><tr><td>Protein [Presence] in Urine by Test strip</td></tr></table></div>"
        },
        "status": "final",
        "subject": {
          "reference": "urn:uuid:7cfb99d1-6515-47b1-b223-c223d47d6328",
          "display": "Maria Nohlmans"
        },
        "effectiveDateTime": "2016-09-23T17:29:39Z",
        "specimen": {
          "reference": "urn:uuid:6a5d4800-6430-43f2-b7cf-30b16b457f1e"
        }
      }
    },
    {
      "fullUrl": "urn:uuid:0d68a7a1-2567-4827-9328-6506e41b6524",
      "resource": {
        "resourceType": "Observation",
        "id": "0d68a7a1-2567-4827-9328-6506e41b6524",
        "meta": {
          "profile": [
            "http://hl7.eu/fhir/laboratory/StructureDefinition/Observation-resultslab-eu-lab"
          ]
        },
        "performer": [
          {
            "display": "The Central European Lab"
          }
        ],
        "category": [
          {
            "coding": [
              {
                "system": "http://terminology.hl7.org/CodeSystem/observation-category",
                "code": "laboratory"
              }
            ]
          }
        ],
        "code": {
          "coding": [
            {
              "code": "5802-4",
              "system": "http://loinc.org",
              "display": "Nitrite [Presence] in Urine by Test strip"
            }
          ],
          "text": "Nitrite [Presence] in Urine by Test strip"
        },
        "text": {
          "status": "generated",
          "div": "<div xmlns=\"http://www.w3.org/1999/xhtml\"><table class=\"hl7__eu__lab__report\"><tr><th>Test</th><th>23-Sep-2016</th><th>Reference&#xA0;Range</th><th>Unit</th></tr><tr><td>Nitrite [Presence] in Urine by Test strip</td></tr></table></div>"
        },
        "status": "final",
        "subject": {
          "reference": "urn:uuid:7cfb99d1-6515-47b1-b223-c223d47d6328",
          "display": "Maria Nohlmans"
        },
        "effectiveDateTime": "2016-09-23T17:29:39Z",
        "specimen": {
          "reference": "urn:uuid:6a5d4800-6430-43f2-b7cf-30b16b457f1e"
        }
      }
    },
    {
      "fullUrl": "urn:uuid:83f68ccc-b772-4fb5-9e6b-e183e932d861",
      "resource": {
        "resourceType": "Observation",
        "id": "83f68ccc-b772-4fb5-9e6b-e183e932d861",
        "meta": {
          "profile": [
            "http://hl7.eu/fhir/laboratory/StructureDefinition/Observation-resultslab-eu-lab"
          ]
        },
        "performer": [
          {
            "display": "The Central European Lab"
          }
        ],
        "category": [
          {
            "coding": [
              {
                "system": "http://terminology.hl7.org/CodeSystem/observation-category",
                "code": "laboratory"
              }
            ]
          }
        ],
        "code": {
          "coding": [
            {
              "code": "5794-3",
              "system": "http://loinc.org",
              "display": "Hemoglobin [Presence] in Urine by Test strip"
            }
          ],
          "text": "Hemoglobin [Presence] in Urine by Test strip"
        },
        "text": {
          "status": "generated",
          "div": "<div xmlns=\"http://www.w3.org/1999/xhtml\"><table class=\"hl7__eu__lab__report\"><tr><th>Test</th><th>23-Sep-2016</th><th>Reference&#xA0;Range</th><th>Unit</th></tr><tr><td>Hemoglobin [Presence] in Urine by Test strip</td></tr></table></div>"
        },
        "status": "final",
        "subject": {
          "reference": "urn:uuid:7cfb99d1-6515-47b1-b223-c223d47d6328",
          "display": "Maria Nohlmans"
        },
        "effectiveDateTime": "2016-09-23T17:29:39Z",
        "specimen": {
          "reference": "urn:uuid:6a5d4800-6430-43f2-b7cf-30b16b457f1e"
        }
      }
    },
    {
      "fullUrl": "urn:uuid:c93760b3-8d74-44eb-abb0-363ffcb424f6",
      "resource": {
        "resourceType": "Observation",
        "id": "c93760b3-8d74-44eb-abb0-363ffcb424f6",
        "meta": {
          "profile": [
            "http://hl7.eu/fhir/laboratory/StructureDefinition/Observation-resultslab-eu-lab"
          ]
        },
        "performer": [
          {
            "display": "The Central European Lab"
          }
        ],
        "category": [
          {
            "coding": [
              {
                "system": "http://terminology.hl7.org/CodeSystem/observation-category",
                "code": "laboratory"
              }
            ]
          }
        ],
        "code": {
          "coding": [
            {
              "code": "5799-2",
              "system": "http://loinc.org",
              "display": "Leukocyte esterase [Presence] in Urine by Test strip"
            }
          ],
          "text": "Leukocyte esterase [Presence] in Urine by Test strip"
        },
        "text": {
          "status": "generated",
          "div": "<div xmlns=\"http://www.w3.org/1999/xhtml\"><table class=\"hl7__eu__lab__report\"><tr><th>Test</th><th>23-Sep-2016</th><th>Reference&#xA0;Range</th><th>Unit</th></tr><tr><td>Leukocyte esterase [Presence] in Urine by Test strip</td></tr></table></div>"
        },
        "status": "final",
        "subject": {
          "reference": "urn:uuid:7cfb99d1-6515-47b1-b223-c223d47d6328",
          "display": "Maria Nohlmans"
        },
        "effectiveDateTime": "2016-09-23T17:29:39Z",
        "specimen": {
          "reference": "urn:uuid:6a5d4800-6430-43f2-b7cf-30b16b457f1e"
        }
      }
    },
    {
      "fullUrl": "urn:uuid:90a16564-44a9-4d8a-9e2e-ca579bae3fe0",
      "resource": {
        "resourceType": "Device",
        "id": "90a16564-44a9-4d8a-9e2e-ca579bae3fe0",
        "deviceName": [
          {
            "name": "SYNDERAI Synthetic Generator",
            "type": "manufacturer-name"
          }
        ],
        "version": [
          {
            "value": "5.0"
          }
        ],
        "text": {
          "status": "generated",
          "div": "<div xmlns=\"http://www.w3.org/1999/xhtml\">SYNDERAI Synthetic Generator v5.0</div>"
        },
        "status": "active\"",
        "distinctIdentifier": "synderai-generator-50",
        "manufacturer": "SYNDERAI Project"
      }
    },
    {
      "fullUrl": "urn:uuid:7acf11ec-0c0d-4168-90d6-98f0a302ddab",
      "resource": {
        "resourceType": "Provenance",
        "id": "7acf11ec-0c0d-4168-90d6-98f0a302ddab",
        "target": [
          {
            "reference": "Patient/7cfb99d1-6515-47b1-b223-c223d47d6328"
          },
          {
            "reference": "Bundle/1fb034ed-4ebb-4172-bb84-27fc0bbc2fc3"
          },
          {
            "reference": "Composition/d297efa0-0bfa-45c8-a727-065e5cc9b66d"
          },
          {
            "reference": "PractitionerRole/c9c756d9-f117-44b3-946a-0bf53417a0bc"
          },
          {
            "reference": "Practitioner/f425a37e-891e-44d5-98a5-d87f917ee988"
          },
          {
            "reference": "PractitionerRole/3a9edee4-20d3-42d7-b4dc-16f966983d78"
          },
          {
            "reference": "Organization/10ed38a5-51c2-4580-be6d-f6af636efa43"
          }
        ],
        "activity": {
          "text": "Synthetic Example Data Generation"
        },
        "policy": [
          "https://synderai.net/synderai-synthetic-data-policy"
        ],
        "agent": [
          {
            "type": {
              "text": "author"
            },
            "who": {
              "reference": "Device/90a16564-44a9-4d8a-9e2e-ca579bae3fe0"
            }
          }
        ],
        "reason": [
          {
            "text": "Interoperability Testing and Training (non-clinical use)"
          }
        ],
        "text": {
          "status": "generated",
          "div": "<div xmlns=\"http://www.w3.org/1999/xhtml\">Provenance for SYNDERAI Synthetic Example Data Resource</div>"
        },
        "recorded": "2016-09-23T19:29:39Z"
      }
    },
    {
      "fullUrl": "urn:uuid:c9c756d9-f117-44b3-946a-0bf53417a0bc",
      "resource": {
        "resourceType": "PractitionerRole",
        "id": "c9c756d9-f117-44b3-946a-0bf53417a0bc",
        "meta": {
          "profile": [
            "http://hl7.eu/fhir/base/StructureDefinition/practitionerRole-eu"
          ]
        },
        "text": {
          "status": "generated",
          "div": "<div xmlns=\"http://www.w3.org/1999/xhtml\">Laboratory Role Id: c9c756d9-f117-44b3-946a-0bf53417a0bc</div>"
        },
        "practitioner": {
          "reference": "urn:uuid:f425a37e-891e-44d5-98a5-d87f917ee988"
        }
      }
    },
    {
      "fullUrl": "urn:uuid:f425a37e-891e-44d5-98a5-d87f917ee988",
      "resource": {
        "resourceType": "Practitioner",
        "id": "f425a37e-891e-44d5-98a5-d87f917ee988",
        "meta": {
          "profile": [
            "http://hl7.eu/fhir/base/StructureDefinition/practitioner-eu"
          ]
        },
        "identifier": [
          {
            "assigner": {
              "display": "HL7 Europe"
            },
            "system": "urn:oid:2.16.840.1.113883.2.51.999",
            "value": "00038218-b6ff-4c7e-afac-e2c008a1d244"
          }
        ],
        "name": [
          {
            "prefix": [
              "dr"
            ],
            "given": [
              "Ex"
            ],
            "family": "Ample"
          }
        ],
        "address": [
          {
            "line": [
              "Laboratoire Central Européenne",
              "Boulevard du Jardin Botanique 32"
            ],
            "postalCode": "1000",
            "city": "Brussels",
            "country": "Belgium"
          }
        ],
        "text": {
          "status": "generated",
          "div": "<div xmlns=\"http://www.w3.org/1999/xhtml\">Laboratory: Laboratoire Central Européenne, 1000 Brussels, Belgium</div>"
        }
      }
    }
  ],
  "type": "document",
  "timestamp": "2016-09-23T19:29:39Z"
}
