{
  "resourceType": "Bundle",
  "id": "92be1c71-a1a5-4304-b520-5bb17f2b576c",
  "meta": {
    "profile": [
      "http://hl7.eu/fhir/laboratory/StructureDefinition/Bundle-eu-lab"
    ]
  },
  "identifier": {
    "assigner": {
      "display": "HL7 Europe"
    },
    "system": "urn:oid:2.16.840.1.113883.2.51.999",
    "value": "a79eed16-7dc5-4950-9acc-f720db4450c3"
  },
  "entry": [
    {
      "fullUrl": "urn:uuid:3007dca6-e189-4bea-a655-f9c3491b6b22",
      "resource": {
        "resourceType": "Composition",
        "id": "3007dca6-e189-4bea-a655-f9c3491b6b22",
        "meta": {
          "profile": [
            "http://hl7.eu/fhir/laboratory/StructureDefinition/Composition-eu-lab"
          ]
        },
        "identifier": {
          "assigner": {
            "display": "HL7 Europe"
          },
          "system": "urn:oid:2.16.840.1.113883.2.51.999",
          "value": "6a7d3f50-22f8-44df-8d57-956f521417bf"
        },
        "author": [
          {
            "reference": "urn:uuid:439974aa-bc78-4e55-bd23-2b9b3edb384c"
          }
        ],
        "category": [
          {
            "coding": [
              {
                "code": "26436-6",
                "system": "http://loinc.org",
                "display": "Laboratory studies (set)"
              }
            ]
          }
        ],
        "type": {
          "coding": [
            {
              "code": "11502-2",
              "system": "http://loinc.org",
              "display": "Laboratory report"
            }
          ],
          "text": "Laboratory Report"
        },
        "section": [
          {
            "code": {
              "coding": [
                {
                  "code": "26436-6",
                  "system": "http://loinc.org",
                  "display": "Laboratory studies (set)"
                }
              ],
              "text": "Laboratory studies"
            },
            "section": [
              {
                "code": {
                  "coding": [
                    {
                      "code": "$18723-7",
                      "system": "http://loinc.org",
                      "display": "Hematology studies (set)"
                    }
                  ],
                  "text": "Hematology"
                },
                "entry": [
                  {
                    "reference": "urn:uuid:c53186eb-b618-4894-90c1-2212baafe4dd"
                  },
                  {
                    "reference": "urn:uuid:3f51fcb5-dbdd-46eb-959b-6ec7051abfc6"
                  },
                  {
                    "reference": "urn:uuid:7661565e-28f2-4680-ad3a-3e4a050e3920"
                  },
                  {
                    "reference": "urn:uuid:cc9c8d39-a5a4-4de2-a895-7243cd04fef1"
                  },
                  {
                    "reference": "urn:uuid:6cdc52db-9791-4494-8c5b-c23dd57f81f5"
                  },
                  {
                    "reference": "urn:uuid:63389b21-4a4e-4257-ad5d-a3bc859150b3"
                  },
                  {
                    "reference": "urn:uuid:9cc82a88-67d9-4e39-9917-470d74a7f77a"
                  },
                  {
                    "reference": "urn:uuid:abc60018-be2a-42e8-997b-fa63276f22ea"
                  },
                  {
                    "reference": "urn:uuid:e0eb7026-e667-44b0-892f-71219a54d50a"
                  },
                  {
                    "reference": "urn:uuid:4c0e9604-73a6-4e92-874e-06580b978d3f"
                  },
                  {
                    "reference": "urn:uuid:ef6e4b0a-9e12-45aa-b1f5-f1bff7704179"
                  }
                ],
                "text": {
                  "status": "generated",
                  "div": "<div xmlns=\"http://www.w3.org/1999/xhtml\"><h3>Hematology</h3><table class=\"hl7__eu__lab__report\"><thead><tr><th>Test</th><th>18-MAR-2025</th><th>Reference&#xA0;Range</th><th>Unit</th></tr></thead><tbody><tr><td>Leukocytes [#/volume] in Blood by Automated count</td><td>8.1</td><td>3.5 - 10.5</td><td>10*3/uL</td></tr><tr><td>Erythrocytes [#/volume] in Blood by Automated count</td><td>4.7</td><td>4 - 5</td><td>10*6/uL</td></tr><tr><td>Hemoglobin [Mass/volume] in Blood</td><td>12.5</td><td>12.1 - 15.5</td><td>g/dL</td></tr><tr><td>Hematocrit [Volume Fraction] of Blood by Automated count</td><td>40.0</td><td>36.1 - 44.3</td><td>%</td></tr><tr><td>MCV [Entitic volume] by Automated count</td><td>85.8</td><td>82 - 98</td><td>fL</td></tr><tr><td>MCH [Entitic mass] by Automated count</td><td>29.4</td><td>27 - 33</td><td>pg</td></tr><tr><td>MCHC [Mass/volume] by Automated count</td><td>33.6</td><td>32 - 37</td><td>g/dL</td></tr><tr><td>Erythrocyte distribution width [Entitic volume] by Automated count</td><td>40.4</td><td>36 - 55</td><td>fL</td></tr><tr><td>Platelets [#/volume] in Blood by Automated count</td><td>309.3</td><td>150 - 400</td><td>10*3/uL</td></tr><tr><td>Platelet distribution width [Entitic volume] in Blood by Automated count</td><td><strong>489.3 H</strong></td><td>11.6 - 17.4</td><td>fL</td></tr><tr><td>Platelet mean volume [Entitic volume] in Blood by Automated count</td><td>12.2</td><td>7.2 - 13.5</td><td>fL</td></tr></tbody></table></div>"
                },
                "title": "Hematology"
              },
              {
                "code": {
                  "coding": [
                    {
                      "code": "$18719-5",
                      "system": "http://loinc.org",
                      "display": "Chemistry studies (set)"
                    }
                  ],
                  "text": "Chemistry"
                },
                "entry": [
                  {
                    "reference": "urn:uuid:642648bf-931b-443e-8fef-86accf484667"
                  },
                  {
                    "reference": "urn:uuid:6d86a3c0-a99b-4103-93d3-2d9dc7227dc4"
                  },
                  {
                    "reference": "urn:uuid:944e1b8a-d53c-4383-93e6-8c470a670776"
                  },
                  {
                    "reference": "urn:uuid:1a8cb827-4333-4ed1-86d6-828739e00e51"
                  },
                  {
                    "reference": "urn:uuid:c44509da-e33a-4203-b5eb-68b9441249b1"
                  },
                  {
                    "reference": "urn:uuid:3ebf526e-7e38-4991-b8a8-2b9031264692"
                  },
                  {
                    "reference": "urn:uuid:94e3e166-2c10-4f16-a20b-e12d18169973"
                  },
                  {
                    "reference": "urn:uuid:f89d27f5-6a45-4c7e-a4c8-13013a8ed724"
                  },
                  {
                    "reference": "urn:uuid:7f96d245-23c6-4da9-bb3c-4f44fb9eff3c"
                  }
                ],
                "text": {
                  "status": "generated",
                  "div": "<div xmlns=\"http://www.w3.org/1999/xhtml\"><h3>Chemistry</h3><table class=\"hl7__eu__lab__report\"><thead><tr><th>Test</th><th>18-MAR-2025</th><th>Reference&#xA0;Range</th><th>Unit</th></tr></thead><tbody><tr><td>Hemoglobin A1c/Hemoglobin.total in Blood</td><td><strong>5.9 H</strong></td><td>4.8 - 5.7</td><td>%</td></tr><tr><td>Glucose [Mass/volume] in Blood</td><td>87.8</td><td>70 - 100</td><td>mg/dL</td></tr><tr><td>Urea nitrogen [Mass/volume] in Blood</td><td>12.4</td><td>7 - 20</td><td>mg/dL</td></tr><tr><td>Creatinine [Mass/volume] in Blood</td><td>0.8</td><td>0.6 - 1.1</td><td>mg/dL</td></tr><tr><td>Calcium [Mass/volume] in Blood</td><td>9.0</td><td>8.5 - 10.5</td><td>mg/dL</td></tr><tr><td>Sodium [Moles/volume] in Blood</td><td>140.8</td><td>135 - 145</td><td>mmol/L</td></tr><tr><td>Potassium [Moles/volume] in Blood</td><td>4.8</td><td>3.5 - 5.1</td><td>mmol/L</td></tr><tr><td>Chloride [Moles/volume] in Blood</td><td>108.9</td><td>98 - 110</td><td>mmol/L</td></tr><tr><td>Carbon dioxide, total [Moles/volume] in Blood</td><td>27.0</td><td>22 - 29</td><td>mmol/L</td></tr></tbody></table></div>"
                },
                "title": "Chemistry"
              }
            ],
            "title": "Laboratory Report"
          },
          {
            "text": {
              "status": "generated",
              "div": "<div xmlns=\"http://www.w3.org/1999/xhtml\"><h3>Annotation</h3><table class=\"hl7__eu__lab__report\"><tr><th>Conclusion and Recommendations based on this report and previous findings known to us</th></tr><tr><td>All results are within normal limits except for a mildly elevated HbA1c (5.9%), suggesting possible prediabetes, and a significantly increased platelet distribution width, which may indicate platelet size variability but is of unclear clinical significance without further context. Other parameters, including renal function, electrolytes, and blood counts, are unremarkable. Correlation with clinical findings is recommended.</td></tr></table></div>"
            },
            "code": {
              "coding": [
                {
                  "system": "http://loinc.org",
                  "code": "48767-8",
                  "display": "Annotation comment"
                }
              ]
            },
            "title": "Annotation comment"
          }
        ],
        "status": "final",
        "subject": {
          "reference": "urn:uuid:4cac9e1e-2f63-4d51-9abc-a879ebb47cbd",
          "display": "Marina Norbiato"
        },
        "date": "2025-03-18T06:31:43Z",
        "title": "Laboratory Report",
        "confidentiality": "N"
      }
    },
    {
      "fullUrl": "urn:uuid:bbeaf638-4f35-46c0-ba8b-0e8e0e997b09",
      "resource": {
        "resourceType": "DiagnosticReport",
        "id": "bbeaf638-4f35-46c0-ba8b-0e8e0e997b09",
        "meta": {
          "profile": [
            "http://hl7.eu/fhir/laboratory/StructureDefinition/DiagnosticReport-eu-lab"
          ]
        },
        "identifier": [
          {
            "assigner": {
              "display": "HL7 Europe"
            },
            "system": "urn:oid:2.16.840.1.113883.2.51.999",
            "value": "5033ffe1-b2bd-4f6f-b80e-f1658026a3fa"
          }
        ],
        "extension": [
          {
            "url": "http://hl7.org/fhir/5.0/StructureDefinition/extension-DiagnosticReport.composition",
            "valueReference": {
              "reference": "urn:uuid:6a7d3f50-22f8-44df-8d57-956f521417bf"
            }
          }
        ],
        "category": [
          {
            "coding": [
              {
                "code": "26436-6",
                "system": "http://loinc.org",
                "display": "Laboratory studies (set)"
              }
            ]
          }
        ],
        "specimen": [
          {
            "reference": "urn:uuid:77bc9693-db58-4a13-8e66-6c4ad861c6ab"
          },
          {
            "reference": "urn:uuid:77bc9693-db58-4a13-8e66-6c4ad861c6ab"
          }
        ],
        "result": [
          {
            "reference": "urn:uuid:642648bf-931b-443e-8fef-86accf484667"
          },
          {
            "reference": "urn:uuid:6d86a3c0-a99b-4103-93d3-2d9dc7227dc4"
          },
          {
            "reference": "urn:uuid:944e1b8a-d53c-4383-93e6-8c470a670776"
          },
          {
            "reference": "urn:uuid:1a8cb827-4333-4ed1-86d6-828739e00e51"
          },
          {
            "reference": "urn:uuid:c44509da-e33a-4203-b5eb-68b9441249b1"
          },
          {
            "reference": "urn:uuid:3ebf526e-7e38-4991-b8a8-2b9031264692"
          },
          {
            "reference": "urn:uuid:94e3e166-2c10-4f16-a20b-e12d18169973"
          },
          {
            "reference": "urn:uuid:f89d27f5-6a45-4c7e-a4c8-13013a8ed724"
          },
          {
            "reference": "urn:uuid:7f96d245-23c6-4da9-bb3c-4f44fb9eff3c"
          },
          {
            "reference": "urn:uuid:c53186eb-b618-4894-90c1-2212baafe4dd"
          },
          {
            "reference": "urn:uuid:3f51fcb5-dbdd-46eb-959b-6ec7051abfc6"
          },
          {
            "reference": "urn:uuid:7661565e-28f2-4680-ad3a-3e4a050e3920"
          },
          {
            "reference": "urn:uuid:cc9c8d39-a5a4-4de2-a895-7243cd04fef1"
          },
          {
            "reference": "urn:uuid:6cdc52db-9791-4494-8c5b-c23dd57f81f5"
          },
          {
            "reference": "urn:uuid:63389b21-4a4e-4257-ad5d-a3bc859150b3"
          },
          {
            "reference": "urn:uuid:9cc82a88-67d9-4e39-9917-470d74a7f77a"
          },
          {
            "reference": "urn:uuid:abc60018-be2a-42e8-997b-fa63276f22ea"
          },
          {
            "reference": "urn:uuid:e0eb7026-e667-44b0-892f-71219a54d50a"
          },
          {
            "reference": "urn:uuid:4c0e9604-73a6-4e92-874e-06580b978d3f"
          },
          {
            "reference": "urn:uuid:ef6e4b0a-9e12-45aa-b1f5-f1bff7704179"
          }
        ],
        "status": "registered",
        "code": {
          "coding": [
            {
              "code": "11502-2",
              "system": "http://loinc.org",
              "display": "Laboratory report"
            }
          ]
        },
        "subject": {
          "reference": "urn:uuid:4cac9e1e-2f63-4d51-9abc-a879ebb47cbd",
          "display": "Marina Norbiato"
        }
      }
    },
    {
      "fullUrl": "urn:uuid:4cac9e1e-2f63-4d51-9abc-a879ebb47cbd",
      "resource": {
        "resourceType": "Patient",
        "id": "4cac9e1e-2f63-4d51-9abc-a879ebb47cbd",
        "meta": {
          "security": [
            {
              "system": "http://terminology.hl7.org/CodeSystem/v3-ActReason",
              "code": "HTEST"
            },
            {
              "system": "http://terminology.hl7.org/CodeSystem/v3-ActReason",
              "code": "TRAIN"
            }
          ],
          "tag": [
            {
              "system": "https://synderai.net/fhir/CodeSystem/tags",
              "code": "synthetic",
              "display": "SYNDERAI Synthetic data"
            }
          ],
          "profile": [
            "http://hl7.eu/fhir/base/StructureDefinition/patient-eu-core"
          ]
        },
        "identifier": [
          {
            "type": {
              "coding": [
                {
                  "code": "PT",
                  "system": "http://terminology.hl7.org/CodeSystem/v2-0203"
                }
              ]
            },
            "system": "http://ec.europa.eu/identifier/eci",
            "value": "5004-598122-7"
          },
          {
            "type": {
              "coding": [
                {
                  "code": "MR",
                  "system": "http://terminology.hl7.org/CodeSystem/v2-0203"
                }
              ]
            },
            "system": "http://local.setting.eu/identifier",
            "value": "35cd3e66-58a0-050b-9928-8805facaac98"
          }
        ],
        "name": [
          {
            "family": "Norbiato"
          },
          {
            "given": [
              "Marina"
            ]
          },
          {
            "text": "Marina Norbiato"
          }
        ],
        "address": [
          {
            "line": [
              "Via Squarcione, 2 Piano 6"
            ],
            "use": "home",
            "type": "physical",
            "postalCode": "25080",
            "city": "Remedello Di Sotto",
            "country": "Italy"
          }
        ],
        "telecom": [
          {
            "system": "phone",
            "value": "016359725"
          }
        ],
        "extension": [
          {
            "url": "http://hl7.org/fhir/StructureDefinition/patient-nationality",
            "valueCodeableConcept": {
              "coding": [
                {
                  "code": "IT",
                  "system": "http://hl7.org/fhir/ValueSet/country"
                }
              ]
            }
          }
        ],
        "text": {
          "status": "generated",
          "div": "<div xmlns=\"http://www.w3.org/1999/xhtml\"><table class=\"hl7__ips\"><tr><td>Marina Norbiato</td><td>female</td><td>30-Aug-1999</td></tr></table></div>"
        },
        "gender": "female",
        "birthDate": "1999-08-30"
      }
    },
    {
      "fullUrl": "urn:uuid:270b5d3b-e813-4623-ab71-d304636bf6e7",
      "resource": {
        "resourceType": "ServiceRequest",
        "id": "270b5d3b-e813-4623-ab71-d304636bf6e7",
        "meta": {
          "profile": [
            "http://hl7.eu/fhir/laboratory/StructureDefinition/ServiceRequest-eu-lab"
          ]
        },
        "identifier": [
          {
            "system": "http://example.org",
            "value": "883a2c22-e30a-413a-bb4a-258a0e92fa85"
          }
        ],
        "specimen": [
          {
            "reference": "urn:uuid:77bc9693-db58-4a13-8e66-6c4ad861c6ab"
          }
        ],
        "reasonCode": [
          {
            "coding": [
              {
                "code": "15777000",
                "system": "http://snomed.info/sct",
                "display": "Prediabetes"
              }
            ]
          }
        ],
        "status": "active",
        "intent": "order",
        "code": {
          "coding": [
            {
              "code": "108252007",
              "system": "http://snomed.info/sct",
              "display": "Laboratory procedure"
            }
          ]
        },
        "subject": {
          "reference": "urn:uuid:4cac9e1e-2f63-4d51-9abc-a879ebb47cbd",
          "display": "Marina Norbiato"
        },
        "requester": {
          "reference": "urn:uuid:96291a2b-eb24-4dd5-aadd-c7c7b15525cb"
        }
      }
    },
    {
      "fullUrl": "urn:uuid:96291a2b-eb24-4dd5-aadd-c7c7b15525cb",
      "resource": {
        "resourceType": "PractitionerRole",
        "id": "96291a2b-eb24-4dd5-aadd-c7c7b15525cb",
        "meta": {
          "profile": [
            "http://hl7.eu/fhir/base/StructureDefinition/practitionerRole-eu"
          ]
        },
        "text": {
          "status": "generated",
          "div": "<div xmlns=\"http://www.w3.org/1999/xhtml\">Provider Role Id: 96291a2b-eb24-4dd5-aadd-c7c7b15525cb</div>"
        },
        "organization": {
          "reference": "urn:uuid:50798978-d5b4-4d19-9d05-449122b356be"
        }
      }
    },
    {
      "fullUrl": "urn:uuid:50798978-d5b4-4d19-9d05-449122b356be",
      "resource": {
        "resourceType": "Organization",
        "id": "50798978-d5b4-4d19-9d05-449122b356be",
        "meta": {
          "profile": [
            "http://hl7.eu/fhir/base/StructureDefinition/organization-eu"
          ]
        },
        "identifier": [
          {
            "assigner": {
              "display": "HL7 Europe"
            },
            "system": "urn:oid:2.16.840.1.113883.2.51.999",
            "value": "6a48e0bd-b004-4f6e-b752-7240b1e517e7"
          }
        ],
        "address": [
          {
            "line": [
              "Piazzetta Donatori di sangue 1"
            ],
            "city": "Leno",
            "postalCode": "25024",
            "country": "Italy"
          }
        ],
        "text": {
          "status": "generated",
          "div": "<div xmlns=\"http://www.w3.org/1999/xhtml\">Provider Organization: Ospedale di Leno</div>"
        },
        "name": "Ospedale di Leno"
      }
    },
    {
      "fullUrl": "urn:uuid:77bc9693-db58-4a13-8e66-6c4ad861c6ab",
      "resource": {
        "resourceType": "Specimen",
        "id": "77bc9693-db58-4a13-8e66-6c4ad861c6ab",
        "meta": {
          "profile": [
            "http://hl7.eu/fhir/laboratory/StructureDefinition/Specimen-eu-lab"
          ]
        },
        "collection": {
          "collectedDateTime": "2025-03-18"
        },
        "text": {
          "status": "generated",
          "div": "<div xmlns=\"http://www.w3.org/1999/xhtml\"><table class=\"hl7__eu__lab__report\"><tr><th>Specimen</th><th>Collection Date</th></tr><tr><td>Whole blood specimen (specimen)</td><td><span class=\"nb\">18-Mar-2025</span></td></tr></table></div>"
        },
        "type": {
          "coding": [
            {
              "code": "258580003",
              "system": "http://snomed.info/sct",
              "display": "Whole blood specimen (specimen)"
            }
          ]
        }
      }
    },
    {
      "fullUrl": "urn:uuid:77bc9693-db58-4a13-8e66-6c4ad861c6ab",
      "resource": {
        "resourceType": "Specimen",
        "id": "77bc9693-db58-4a13-8e66-6c4ad861c6ab",
        "meta": {
          "profile": [
            "http://hl7.eu/fhir/laboratory/StructureDefinition/Specimen-eu-lab"
          ]
        },
        "collection": {
          "collectedDateTime": "2025-03-18"
        },
        "text": {
          "status": "generated",
          "div": "<div xmlns=\"http://www.w3.org/1999/xhtml\"><table class=\"hl7__eu__lab__report\"><tr><th>Specimen</th><th>Collection Date</th></tr><tr><td>Whole blood specimen (specimen)</td><td><span class=\"nb\">18-Mar-2025</span></td></tr></table></div>"
        },
        "type": {
          "coding": [
            {
              "code": "258580003",
              "system": "http://snomed.info/sct",
              "display": "Whole blood specimen (specimen)"
            }
          ]
        }
      }
    },
    {
      "fullUrl": "urn:uuid:642648bf-931b-443e-8fef-86accf484667",
      "resource": {
        "resourceType": "Observation",
        "id": "642648bf-931b-443e-8fef-86accf484667",
        "meta": {
          "profile": [
            "http://hl7.eu/fhir/laboratory/StructureDefinition/Observation-resultslab-eu-lab"
          ]
        },
        "performer": [
          {
            "display": "The Central European Lab"
          }
        ],
        "category": [
          {
            "coding": [
              {
                "system": "http://terminology.hl7.org/CodeSystem/observation-category",
                "code": "laboratory"
              }
            ]
          }
        ],
        "code": {
          "coding": [
            {
              "code": "4548-4",
              "system": "http://loinc.org",
              "display": "Hemoglobin A1c/Hemoglobin.total in Blood"
            }
          ],
          "text": "Hemoglobin A1c/Hemoglobin.total in Blood"
        },
        "valueQuantity": {
          "system": "http://unitsofmeasure.org",
          "value": 5.9,
          "unit": "%",
          "code": "%"
        },
        "referenceRange": [
          {
            "low": {
              "value": 4.8,
              "code": "%",
              "system": "http://unitsofmeasure.org"
            }
          },
          {
            "high": {
              "value": 5.7,
              "code": "%",
              "system": "http://unitsofmeasure.org"
            }
          }
        ],
        "interpretation": [
          {
            "coding": [
              {
                "code": "H",
                "system": "http://terminology.hl7.org/CodeSystem/v3-ObservationInterpretation",
                "display": "High"
              }
            ]
          }
        ],
        "text": {
          "status": "generated",
          "div": "<div xmlns=\"http://www.w3.org/1999/xhtml\"><table class=\"hl7__eu__lab__report\"><tr><th>Test</th><th>18-Mar-2025</th><th>Reference&#xA0;Range</th><th>Unit</th></tr><tr><td>Hemoglobin A1c/Hemoglobin.total in Blood</td><td>5.9</td><td>4.8 - 5.7</td><td>H</td><td>%</td></tr></table></div>"
        },
        "status": "final",
        "subject": {
          "reference": "urn:uuid:4cac9e1e-2f63-4d51-9abc-a879ebb47cbd",
          "display": "Marina Norbiato"
        },
        "effectiveDateTime": "2025-03-18T05:31:43Z",
        "specimen": {
          "reference": "urn:uuid:77bc9693-db58-4a13-8e66-6c4ad861c6ab"
        }
      }
    },
    {
      "fullUrl": "urn:uuid:6d86a3c0-a99b-4103-93d3-2d9dc7227dc4",
      "resource": {
        "resourceType": "Observation",
        "id": "6d86a3c0-a99b-4103-93d3-2d9dc7227dc4",
        "meta": {
          "profile": [
            "http://hl7.eu/fhir/laboratory/StructureDefinition/Observation-resultslab-eu-lab"
          ]
        },
        "performer": [
          {
            "display": "The Central European Lab"
          }
        ],
        "category": [
          {
            "coding": [
              {
                "system": "http://terminology.hl7.org/CodeSystem/observation-category",
                "code": "laboratory"
              }
            ]
          }
        ],
        "code": {
          "coding": [
            {
              "code": "2339-0",
              "system": "http://loinc.org",
              "display": "Glucose [Mass/volume] in Blood"
            }
          ],
          "text": "Glucose [Mass/volume] in Blood"
        },
        "valueQuantity": {
          "system": "http://unitsofmeasure.org",
          "value": 87.8,
          "unit": "mg/dL",
          "code": "mg/dL"
        },
        "referenceRange": [
          {
            "low": {
              "value": 70,
              "code": "mg/dL",
              "system": "http://unitsofmeasure.org"
            }
          },
          {
            "high": {
              "value": 100,
              "code": "mg/dL",
              "system": "http://unitsofmeasure.org"
            }
          }
        ],
        "text": {
          "status": "generated",
          "div": "<div xmlns=\"http://www.w3.org/1999/xhtml\"><table class=\"hl7__eu__lab__report\"><tr><th>Test</th><th>18-Mar-2025</th><th>Reference&#xA0;Range</th><th>Unit</th></tr><tr><td>Glucose [Mass/volume] in Blood</td><td>87.8</td><td>70 - 100</td><td></td><td>mg/dL</td></tr></table></div>"
        },
        "status": "final",
        "subject": {
          "reference": "urn:uuid:4cac9e1e-2f63-4d51-9abc-a879ebb47cbd",
          "display": "Marina Norbiato"
        },
        "effectiveDateTime": "2025-03-18T05:31:43Z",
        "specimen": {
          "reference": "urn:uuid:77bc9693-db58-4a13-8e66-6c4ad861c6ab"
        }
      }
    },
    {
      "fullUrl": "urn:uuid:944e1b8a-d53c-4383-93e6-8c470a670776",
      "resource": {
        "resourceType": "Observation",
        "id": "944e1b8a-d53c-4383-93e6-8c470a670776",
        "meta": {
          "profile": [
            "http://hl7.eu/fhir/laboratory/StructureDefinition/Observation-resultslab-eu-lab"
          ]
        },
        "performer": [
          {
            "display": "The Central European Lab"
          }
        ],
        "category": [
          {
            "coding": [
              {
                "system": "http://terminology.hl7.org/CodeSystem/observation-category",
                "code": "laboratory"
              }
            ]
          }
        ],
        "code": {
          "coding": [
            {
              "code": "6299-2",
              "system": "http://loinc.org",
              "display": "Urea nitrogen [Mass/volume] in Blood"
            }
          ],
          "text": "Urea nitrogen [Mass/volume] in Blood"
        },
        "valueQuantity": {
          "system": "http://unitsofmeasure.org",
          "value": 12.4,
          "unit": "mg/dL",
          "code": "mg/dL"
        },
        "referenceRange": [
          {
            "low": {
              "value": 7,
              "code": "mg/dL",
              "system": "http://unitsofmeasure.org"
            }
          },
          {
            "high": {
              "value": 20,
              "code": "mg/dL",
              "system": "http://unitsofmeasure.org"
            }
          }
        ],
        "text": {
          "status": "generated",
          "div": "<div xmlns=\"http://www.w3.org/1999/xhtml\"><table class=\"hl7__eu__lab__report\"><tr><th>Test</th><th>18-Mar-2025</th><th>Reference&#xA0;Range</th><th>Unit</th></tr><tr><td>Urea nitrogen [Mass/volume] in Blood</td><td>12.4</td><td>7 - 20</td><td></td><td>mg/dL</td></tr></table></div>"
        },
        "status": "final",
        "subject": {
          "reference": "urn:uuid:4cac9e1e-2f63-4d51-9abc-a879ebb47cbd",
          "display": "Marina Norbiato"
        },
        "effectiveDateTime": "2025-03-18T05:31:43Z",
        "specimen": {
          "reference": "urn:uuid:77bc9693-db58-4a13-8e66-6c4ad861c6ab"
        }
      }
    },
    {
      "fullUrl": "urn:uuid:1a8cb827-4333-4ed1-86d6-828739e00e51",
      "resource": {
        "resourceType": "Observation",
        "id": "1a8cb827-4333-4ed1-86d6-828739e00e51",
        "meta": {
          "profile": [
            "http://hl7.eu/fhir/laboratory/StructureDefinition/Observation-resultslab-eu-lab"
          ]
        },
        "performer": [
          {
            "display": "The Central European Lab"
          }
        ],
        "category": [
          {
            "coding": [
              {
                "system": "http://terminology.hl7.org/CodeSystem/observation-category",
                "code": "laboratory"
              }
            ]
          }
        ],
        "code": {
          "coding": [
            {
              "code": "38483-4",
              "system": "http://loinc.org",
              "display": "Creatinine [Mass/volume] in Blood"
            }
          ],
          "text": "Creatinine [Mass/volume] in Blood"
        },
        "valueQuantity": {
          "system": "http://unitsofmeasure.org",
          "value": 0.8,
          "unit": "mg/dL",
          "code": "mg/dL"
        },
        "referenceRange": [
          {
            "low": {
              "value": 0.6,
              "code": "mg/dL",
              "system": "http://unitsofmeasure.org"
            }
          },
          {
            "high": {
              "value": 1.1,
              "code": "mg/dL",
              "system": "http://unitsofmeasure.org"
            }
          }
        ],
        "text": {
          "status": "generated",
          "div": "<div xmlns=\"http://www.w3.org/1999/xhtml\"><table class=\"hl7__eu__lab__report\"><tr><th>Test</th><th>18-Mar-2025</th><th>Reference&#xA0;Range</th><th>Unit</th></tr><tr><td>Creatinine [Mass/volume] in Blood</td><td>0.8</td><td>0.6 - 1.1</td><td></td><td>mg/dL</td></tr></table></div>"
        },
        "status": "final",
        "subject": {
          "reference": "urn:uuid:4cac9e1e-2f63-4d51-9abc-a879ebb47cbd",
          "display": "Marina Norbiato"
        },
        "effectiveDateTime": "2025-03-18T05:31:43Z",
        "specimen": {
          "reference": "urn:uuid:77bc9693-db58-4a13-8e66-6c4ad861c6ab"
        }
      }
    },
    {
      "fullUrl": "urn:uuid:c44509da-e33a-4203-b5eb-68b9441249b1",
      "resource": {
        "resourceType": "Observation",
        "id": "c44509da-e33a-4203-b5eb-68b9441249b1",
        "meta": {
          "profile": [
            "http://hl7.eu/fhir/laboratory/StructureDefinition/Observation-resultslab-eu-lab"
          ]
        },
        "performer": [
          {
            "display": "The Central European Lab"
          }
        ],
        "category": [
          {
            "coding": [
              {
                "system": "http://terminology.hl7.org/CodeSystem/observation-category",
                "code": "laboratory"
              }
            ]
          }
        ],
        "code": {
          "coding": [
            {
              "code": "49765-1",
              "system": "http://loinc.org",
              "display": "Calcium [Mass/volume] in Blood"
            }
          ],
          "text": "Calcium [Mass/volume] in Blood"
        },
        "valueQuantity": {
          "system": "http://unitsofmeasure.org",
          "value": 9,
          "unit": "mg/dL",
          "code": "mg/dL"
        },
        "referenceRange": [
          {
            "low": {
              "value": 8.5,
              "code": "mg/dL",
              "system": "http://unitsofmeasure.org"
            }
          },
          {
            "high": {
              "value": 10.5,
              "code": "mg/dL",
              "system": "http://unitsofmeasure.org"
            }
          }
        ],
        "text": {
          "status": "generated",
          "div": "<div xmlns=\"http://www.w3.org/1999/xhtml\"><table class=\"hl7__eu__lab__report\"><tr><th>Test</th><th>18-Mar-2025</th><th>Reference&#xA0;Range</th><th>Unit</th></tr><tr><td>Calcium [Mass/volume] in Blood</td><td>9.0</td><td>8.5 - 10.5</td><td></td><td>mg/dL</td></tr></table></div>"
        },
        "status": "final",
        "subject": {
          "reference": "urn:uuid:4cac9e1e-2f63-4d51-9abc-a879ebb47cbd",
          "display": "Marina Norbiato"
        },
        "effectiveDateTime": "2025-03-18T05:31:43Z",
        "specimen": {
          "reference": "urn:uuid:77bc9693-db58-4a13-8e66-6c4ad861c6ab"
        }
      }
    },
    {
      "fullUrl": "urn:uuid:3ebf526e-7e38-4991-b8a8-2b9031264692",
      "resource": {
        "resourceType": "Observation",
        "id": "3ebf526e-7e38-4991-b8a8-2b9031264692",
        "meta": {
          "profile": [
            "http://hl7.eu/fhir/laboratory/StructureDefinition/Observation-resultslab-eu-lab"
          ]
        },
        "performer": [
          {
            "display": "The Central European Lab"
          }
        ],
        "category": [
          {
            "coding": [
              {
                "system": "http://terminology.hl7.org/CodeSystem/observation-category",
                "code": "laboratory"
              }
            ]
          }
        ],
        "code": {
          "coding": [
            {
              "code": "2947-0",
              "system": "http://loinc.org",
              "display": "Sodium [Moles/volume] in Blood"
            }
          ],
          "text": "Sodium [Moles/volume] in Blood"
        },
        "valueQuantity": {
          "system": "http://unitsofmeasure.org",
          "value": 140.8,
          "unit": "mmol/L",
          "code": "mmol/L"
        },
        "referenceRange": [
          {
            "low": {
              "value": 135,
              "code": "mmol/L",
              "system": "http://unitsofmeasure.org"
            }
          },
          {
            "high": {
              "value": 145,
              "code": "mmol/L",
              "system": "http://unitsofmeasure.org"
            }
          }
        ],
        "text": {
          "status": "generated",
          "div": "<div xmlns=\"http://www.w3.org/1999/xhtml\"><table class=\"hl7__eu__lab__report\"><tr><th>Test</th><th>18-Mar-2025</th><th>Reference&#xA0;Range</th><th>Unit</th></tr><tr><td>Sodium [Moles/volume] in Blood</td><td>140.8</td><td>135 - 145</td><td></td><td>mmol/L</td></tr></table></div>"
        },
        "status": "final",
        "subject": {
          "reference": "urn:uuid:4cac9e1e-2f63-4d51-9abc-a879ebb47cbd",
          "display": "Marina Norbiato"
        },
        "effectiveDateTime": "2025-03-18T05:31:43Z",
        "specimen": {
          "reference": "urn:uuid:77bc9693-db58-4a13-8e66-6c4ad861c6ab"
        }
      }
    },
    {
      "fullUrl": "urn:uuid:94e3e166-2c10-4f16-a20b-e12d18169973",
      "resource": {
        "resourceType": "Observation",
        "id": "94e3e166-2c10-4f16-a20b-e12d18169973",
        "meta": {
          "profile": [
            "http://hl7.eu/fhir/laboratory/StructureDefinition/Observation-resultslab-eu-lab"
          ]
        },
        "performer": [
          {
            "display": "The Central European Lab"
          }
        ],
        "category": [
          {
            "coding": [
              {
                "system": "http://terminology.hl7.org/CodeSystem/observation-category",
                "code": "laboratory"
              }
            ]
          }
        ],
        "code": {
          "coding": [
            {
              "code": "6298-4",
              "system": "http://loinc.org",
              "display": "Potassium [Moles/volume] in Blood"
            }
          ],
          "text": "Potassium [Moles/volume] in Blood"
        },
        "valueQuantity": {
          "system": "http://unitsofmeasure.org",
          "value": 4.8,
          "unit": "mmol/L",
          "code": "mmol/L"
        },
        "referenceRange": [
          {
            "low": {
              "value": 3.5,
              "code": "mmol/L",
              "system": "http://unitsofmeasure.org"
            }
          },
          {
            "high": {
              "value": 5.1,
              "code": "mmol/L",
              "system": "http://unitsofmeasure.org"
            }
          }
        ],
        "text": {
          "status": "generated",
          "div": "<div xmlns=\"http://www.w3.org/1999/xhtml\"><table class=\"hl7__eu__lab__report\"><tr><th>Test</th><th>18-Mar-2025</th><th>Reference&#xA0;Range</th><th>Unit</th></tr><tr><td>Potassium [Moles/volume] in Blood</td><td>4.8</td><td>3.5 - 5.1</td><td></td><td>mmol/L</td></tr></table></div>"
        },
        "status": "final",
        "subject": {
          "reference": "urn:uuid:4cac9e1e-2f63-4d51-9abc-a879ebb47cbd",
          "display": "Marina Norbiato"
        },
        "effectiveDateTime": "2025-03-18T05:31:43Z",
        "specimen": {
          "reference": "urn:uuid:77bc9693-db58-4a13-8e66-6c4ad861c6ab"
        }
      }
    },
    {
      "fullUrl": "urn:uuid:f89d27f5-6a45-4c7e-a4c8-13013a8ed724",
      "resource": {
        "resourceType": "Observation",
        "id": "f89d27f5-6a45-4c7e-a4c8-13013a8ed724",
        "meta": {
          "profile": [
            "http://hl7.eu/fhir/laboratory/StructureDefinition/Observation-resultslab-eu-lab"
          ]
        },
        "performer": [
          {
            "display": "The Central European Lab"
          }
        ],
        "category": [
          {
            "coding": [
              {
                "system": "http://terminology.hl7.org/CodeSystem/observation-category",
                "code": "laboratory"
              }
            ]
          }
        ],
        "code": {
          "coding": [
            {
              "code": "2069-3",
              "system": "http://loinc.org",
              "display": "Chloride [Moles/volume] in Blood"
            }
          ],
          "text": "Chloride [Moles/volume] in Blood"
        },
        "valueQuantity": {
          "system": "http://unitsofmeasure.org",
          "value": 108.9,
          "unit": "mmol/L",
          "code": "mmol/L"
        },
        "referenceRange": [
          {
            "low": {
              "value": 98,
              "code": "mmol/L",
              "system": "http://unitsofmeasure.org"
            }
          },
          {
            "high": {
              "value": 110,
              "code": "mmol/L",
              "system": "http://unitsofmeasure.org"
            }
          }
        ],
        "text": {
          "status": "generated",
          "div": "<div xmlns=\"http://www.w3.org/1999/xhtml\"><table class=\"hl7__eu__lab__report\"><tr><th>Test</th><th>18-Mar-2025</th><th>Reference&#xA0;Range</th><th>Unit</th></tr><tr><td>Chloride [Moles/volume] in Blood</td><td>108.9</td><td>98 - 110</td><td></td><td>mmol/L</td></tr></table></div>"
        },
        "status": "final",
        "subject": {
          "reference": "urn:uuid:4cac9e1e-2f63-4d51-9abc-a879ebb47cbd",
          "display": "Marina Norbiato"
        },
        "effectiveDateTime": "2025-03-18T05:31:43Z",
        "specimen": {
          "reference": "urn:uuid:77bc9693-db58-4a13-8e66-6c4ad861c6ab"
        }
      }
    },
    {
      "fullUrl": "urn:uuid:7f96d245-23c6-4da9-bb3c-4f44fb9eff3c",
      "resource": {
        "resourceType": "Observation",
        "id": "7f96d245-23c6-4da9-bb3c-4f44fb9eff3c",
        "meta": {
          "profile": [
            "http://hl7.eu/fhir/laboratory/StructureDefinition/Observation-resultslab-eu-lab"
          ]
        },
        "performer": [
          {
            "display": "The Central European Lab"
          }
        ],
        "category": [
          {
            "coding": [
              {
                "system": "http://terminology.hl7.org/CodeSystem/observation-category",
                "code": "laboratory"
              }
            ]
          }
        ],
        "code": {
          "coding": [
            {
              "code": "20565-8",
              "system": "http://loinc.org",
              "display": "Carbon dioxide, total [Moles/volume] in Blood"
            }
          ],
          "text": "Carbon dioxide, total [Moles/volume] in Blood"
        },
        "valueQuantity": {
          "system": "http://unitsofmeasure.org",
          "value": 27,
          "unit": "mmol/L",
          "code": "mmol/L"
        },
        "referenceRange": [
          {
            "low": {
              "value": 22,
              "code": "mmol/L",
              "system": "http://unitsofmeasure.org"
            }
          },
          {
            "high": {
              "value": 29,
              "code": "mmol/L",
              "system": "http://unitsofmeasure.org"
            }
          }
        ],
        "text": {
          "status": "generated",
          "div": "<div xmlns=\"http://www.w3.org/1999/xhtml\"><table class=\"hl7__eu__lab__report\"><tr><th>Test</th><th>18-Mar-2025</th><th>Reference&#xA0;Range</th><th>Unit</th></tr><tr><td>Carbon dioxide, total [Moles/volume] in Blood</td><td>27.0</td><td>22 - 29</td><td></td><td>mmol/L</td></tr></table></div>"
        },
        "status": "final",
        "subject": {
          "reference": "urn:uuid:4cac9e1e-2f63-4d51-9abc-a879ebb47cbd",
          "display": "Marina Norbiato"
        },
        "effectiveDateTime": "2025-03-18T05:31:43Z",
        "specimen": {
          "reference": "urn:uuid:77bc9693-db58-4a13-8e66-6c4ad861c6ab"
        }
      }
    },
    {
      "fullUrl": "urn:uuid:c53186eb-b618-4894-90c1-2212baafe4dd",
      "resource": {
        "resourceType": "Observation",
        "id": "c53186eb-b618-4894-90c1-2212baafe4dd",
        "meta": {
          "profile": [
            "http://hl7.eu/fhir/laboratory/StructureDefinition/Observation-resultslab-eu-lab"
          ]
        },
        "performer": [
          {
            "display": "The Central European Lab"
          }
        ],
        "category": [
          {
            "coding": [
              {
                "system": "http://terminology.hl7.org/CodeSystem/observation-category",
                "code": "laboratory"
              }
            ]
          }
        ],
        "code": {
          "coding": [
            {
              "code": "6690-2",
              "system": "http://loinc.org",
              "display": "Leukocytes [#/volume] in Blood by Automated count"
            }
          ],
          "text": "Leukocytes [#/volume] in Blood by Automated count"
        },
        "valueQuantity": {
          "system": "http://unitsofmeasure.org",
          "value": 8.1,
          "unit": "10*3/uL",
          "code": "10*3/uL"
        },
        "referenceRange": [
          {
            "low": {
              "value": 3.5,
              "code": "10*3/uL",
              "system": "http://unitsofmeasure.org"
            }
          },
          {
            "high": {
              "value": 10.5,
              "code": "10*3/uL",
              "system": "http://unitsofmeasure.org"
            }
          }
        ],
        "text": {
          "status": "generated",
          "div": "<div xmlns=\"http://www.w3.org/1999/xhtml\"><table class=\"hl7__eu__lab__report\"><tr><th>Test</th><th>18-Mar-2025</th><th>Reference&#xA0;Range</th><th>Unit</th></tr><tr><td>Leukocytes [#/volume] in Blood by Automated count</td><td>8.1</td><td>3.5 - 10.5</td><td></td><td>10*3/uL</td></tr></table></div>"
        },
        "status": "final",
        "subject": {
          "reference": "urn:uuid:4cac9e1e-2f63-4d51-9abc-a879ebb47cbd",
          "display": "Marina Norbiato"
        },
        "effectiveDateTime": "2025-03-18T05:31:43Z",
        "specimen": {
          "reference": "urn:uuid:77bc9693-db58-4a13-8e66-6c4ad861c6ab"
        }
      }
    },
    {
      "fullUrl": "urn:uuid:3f51fcb5-dbdd-46eb-959b-6ec7051abfc6",
      "resource": {
        "resourceType": "Observation",
        "id": "3f51fcb5-dbdd-46eb-959b-6ec7051abfc6",
        "meta": {
          "profile": [
            "http://hl7.eu/fhir/laboratory/StructureDefinition/Observation-resultslab-eu-lab"
          ]
        },
        "performer": [
          {
            "display": "The Central European Lab"
          }
        ],
        "category": [
          {
            "coding": [
              {
                "system": "http://terminology.hl7.org/CodeSystem/observation-category",
                "code": "laboratory"
              }
            ]
          }
        ],
        "code": {
          "coding": [
            {
              "code": "789-8",
              "system": "http://loinc.org",
              "display": "Erythrocytes [#/volume] in Blood by Automated count"
            }
          ],
          "text": "Erythrocytes [#/volume] in Blood by Automated count"
        },
        "valueQuantity": {
          "system": "http://unitsofmeasure.org",
          "value": 4.7,
          "unit": "10*6/uL",
          "code": "10*6/uL"
        },
        "referenceRange": [
          {
            "low": {
              "value": 4,
              "code": "10*6/uL",
              "system": "http://unitsofmeasure.org"
            }
          },
          {
            "high": {
              "value": 5,
              "code": "10*6/uL",
              "system": "http://unitsofmeasure.org"
            }
          }
        ],
        "text": {
          "status": "generated",
          "div": "<div xmlns=\"http://www.w3.org/1999/xhtml\"><table class=\"hl7__eu__lab__report\"><tr><th>Test</th><th>18-Mar-2025</th><th>Reference&#xA0;Range</th><th>Unit</th></tr><tr><td>Erythrocytes [#/volume] in Blood by Automated count</td><td>4.7</td><td>4 - 5</td><td></td><td>10*6/uL</td></tr></table></div>"
        },
        "status": "final",
        "subject": {
          "reference": "urn:uuid:4cac9e1e-2f63-4d51-9abc-a879ebb47cbd",
          "display": "Marina Norbiato"
        },
        "effectiveDateTime": "2025-03-18T05:31:43Z",
        "specimen": {
          "reference": "urn:uuid:77bc9693-db58-4a13-8e66-6c4ad861c6ab"
        }
      }
    },
    {
      "fullUrl": "urn:uuid:7661565e-28f2-4680-ad3a-3e4a050e3920",
      "resource": {
        "resourceType": "Observation",
        "id": "7661565e-28f2-4680-ad3a-3e4a050e3920",
        "meta": {
          "profile": [
            "http://hl7.eu/fhir/laboratory/StructureDefinition/Observation-resultslab-eu-lab"
          ]
        },
        "performer": [
          {
            "display": "The Central European Lab"
          }
        ],
        "category": [
          {
            "coding": [
              {
                "system": "http://terminology.hl7.org/CodeSystem/observation-category",
                "code": "laboratory"
              }
            ]
          }
        ],
        "code": {
          "coding": [
            {
              "code": "718-7",
              "system": "http://loinc.org",
              "display": "Hemoglobin [Mass/volume] in Blood"
            }
          ],
          "text": "Hemoglobin [Mass/volume] in Blood"
        },
        "valueQuantity": {
          "system": "http://unitsofmeasure.org",
          "value": 12.5,
          "unit": "g/dL",
          "code": "g/dL"
        },
        "referenceRange": [
          {
            "low": {
              "value": 12.1,
              "code": "g/dL",
              "system": "http://unitsofmeasure.org"
            }
          },
          {
            "high": {
              "value": 15.5,
              "code": "g/dL",
              "system": "http://unitsofmeasure.org"
            }
          }
        ],
        "text": {
          "status": "generated",
          "div": "<div xmlns=\"http://www.w3.org/1999/xhtml\"><table class=\"hl7__eu__lab__report\"><tr><th>Test</th><th>18-Mar-2025</th><th>Reference&#xA0;Range</th><th>Unit</th></tr><tr><td>Hemoglobin [Mass/volume] in Blood</td><td>12.5</td><td>12.1 - 15.5</td><td></td><td>g/dL</td></tr></table></div>"
        },
        "status": "final",
        "subject": {
          "reference": "urn:uuid:4cac9e1e-2f63-4d51-9abc-a879ebb47cbd",
          "display": "Marina Norbiato"
        },
        "effectiveDateTime": "2025-03-18T05:31:43Z",
        "specimen": {
          "reference": "urn:uuid:77bc9693-db58-4a13-8e66-6c4ad861c6ab"
        }
      }
    },
    {
      "fullUrl": "urn:uuid:cc9c8d39-a5a4-4de2-a895-7243cd04fef1",
      "resource": {
        "resourceType": "Observation",
        "id": "cc9c8d39-a5a4-4de2-a895-7243cd04fef1",
        "meta": {
          "profile": [
            "http://hl7.eu/fhir/laboratory/StructureDefinition/Observation-resultslab-eu-lab"
          ]
        },
        "performer": [
          {
            "display": "The Central European Lab"
          }
        ],
        "category": [
          {
            "coding": [
              {
                "system": "http://terminology.hl7.org/CodeSystem/observation-category",
                "code": "laboratory"
              }
            ]
          }
        ],
        "code": {
          "coding": [
            {
              "code": "4544-3",
              "system": "http://loinc.org",
              "display": "Hematocrit [Volume Fraction] of Blood by Automated count"
            }
          ],
          "text": "Hematocrit [Volume Fraction] of Blood by Automated count"
        },
        "valueQuantity": {
          "system": "http://unitsofmeasure.org",
          "value": 40,
          "unit": "%",
          "code": "%"
        },
        "referenceRange": [
          {
            "low": {
              "value": 36.1,
              "code": "%",
              "system": "http://unitsofmeasure.org"
            }
          },
          {
            "high": {
              "value": 44.3,
              "code": "%",
              "system": "http://unitsofmeasure.org"
            }
          }
        ],
        "text": {
          "status": "generated",
          "div": "<div xmlns=\"http://www.w3.org/1999/xhtml\"><table class=\"hl7__eu__lab__report\"><tr><th>Test</th><th>18-Mar-2025</th><th>Reference&#xA0;Range</th><th>Unit</th></tr><tr><td>Hematocrit [Volume Fraction] of Blood by Automated count</td><td>40.0</td><td>36.1 - 44.3</td><td></td><td>%</td></tr></table></div>"
        },
        "status": "final",
        "subject": {
          "reference": "urn:uuid:4cac9e1e-2f63-4d51-9abc-a879ebb47cbd",
          "display": "Marina Norbiato"
        },
        "effectiveDateTime": "2025-03-18T05:31:43Z",
        "specimen": {
          "reference": "urn:uuid:77bc9693-db58-4a13-8e66-6c4ad861c6ab"
        }
      }
    },
    {
      "fullUrl": "urn:uuid:6cdc52db-9791-4494-8c5b-c23dd57f81f5",
      "resource": {
        "resourceType": "Observation",
        "id": "6cdc52db-9791-4494-8c5b-c23dd57f81f5",
        "meta": {
          "profile": [
            "http://hl7.eu/fhir/laboratory/StructureDefinition/Observation-resultslab-eu-lab"
          ]
        },
        "performer": [
          {
            "display": "The Central European Lab"
          }
        ],
        "category": [
          {
            "coding": [
              {
                "system": "http://terminology.hl7.org/CodeSystem/observation-category",
                "code": "laboratory"
              }
            ]
          }
        ],
        "code": {
          "coding": [
            {
              "code": "787-2",
              "system": "http://loinc.org",
              "display": "MCV [Entitic volume] by Automated count"
            }
          ],
          "text": "MCV [Entitic volume] by Automated count"
        },
        "valueQuantity": {
          "system": "http://unitsofmeasure.org",
          "value": 85.8,
          "unit": "fL",
          "code": "fL"
        },
        "referenceRange": [
          {
            "low": {
              "value": 82,
              "code": "fL",
              "system": "http://unitsofmeasure.org"
            }
          },
          {
            "high": {
              "value": 98,
              "code": "fL",
              "system": "http://unitsofmeasure.org"
            }
          }
        ],
        "text": {
          "status": "generated",
          "div": "<div xmlns=\"http://www.w3.org/1999/xhtml\"><table class=\"hl7__eu__lab__report\"><tr><th>Test</th><th>18-Mar-2025</th><th>Reference&#xA0;Range</th><th>Unit</th></tr><tr><td>MCV [Entitic volume] by Automated count</td><td>85.8</td><td>82 - 98</td><td></td><td>fL</td></tr></table></div>"
        },
        "status": "final",
        "subject": {
          "reference": "urn:uuid:4cac9e1e-2f63-4d51-9abc-a879ebb47cbd",
          "display": "Marina Norbiato"
        },
        "effectiveDateTime": "2025-03-18T05:31:43Z",
        "specimen": {
          "reference": "urn:uuid:77bc9693-db58-4a13-8e66-6c4ad861c6ab"
        }
      }
    },
    {
      "fullUrl": "urn:uuid:63389b21-4a4e-4257-ad5d-a3bc859150b3",
      "resource": {
        "resourceType": "Observation",
        "id": "63389b21-4a4e-4257-ad5d-a3bc859150b3",
        "meta": {
          "profile": [
            "http://hl7.eu/fhir/laboratory/StructureDefinition/Observation-resultslab-eu-lab"
          ]
        },
        "performer": [
          {
            "display": "The Central European Lab"
          }
        ],
        "category": [
          {
            "coding": [
              {
                "system": "http://terminology.hl7.org/CodeSystem/observation-category",
                "code": "laboratory"
              }
            ]
          }
        ],
        "code": {
          "coding": [
            {
              "code": "785-6",
              "system": "http://loinc.org",
              "display": "MCH [Entitic mass] by Automated count"
            }
          ],
          "text": "MCH [Entitic mass] by Automated count"
        },
        "valueQuantity": {
          "system": "http://unitsofmeasure.org",
          "value": 29.4,
          "unit": "pg",
          "code": "pg"
        },
        "referenceRange": [
          {
            "low": {
              "value": 27,
              "code": "pg",
              "system": "http://unitsofmeasure.org"
            }
          },
          {
            "high": {
              "value": 33,
              "code": "pg",
              "system": "http://unitsofmeasure.org"
            }
          }
        ],
        "text": {
          "status": "generated",
          "div": "<div xmlns=\"http://www.w3.org/1999/xhtml\"><table class=\"hl7__eu__lab__report\"><tr><th>Test</th><th>18-Mar-2025</th><th>Reference&#xA0;Range</th><th>Unit</th></tr><tr><td>MCH [Entitic mass] by Automated count</td><td>29.4</td><td>27 - 33</td><td></td><td>pg</td></tr></table></div>"
        },
        "status": "final",
        "subject": {
          "reference": "urn:uuid:4cac9e1e-2f63-4d51-9abc-a879ebb47cbd",
          "display": "Marina Norbiato"
        },
        "effectiveDateTime": "2025-03-18T05:31:43Z",
        "specimen": {
          "reference": "urn:uuid:77bc9693-db58-4a13-8e66-6c4ad861c6ab"
        }
      }
    },
    {
      "fullUrl": "urn:uuid:9cc82a88-67d9-4e39-9917-470d74a7f77a",
      "resource": {
        "resourceType": "Observation",
        "id": "9cc82a88-67d9-4e39-9917-470d74a7f77a",
        "meta": {
          "profile": [
            "http://hl7.eu/fhir/laboratory/StructureDefinition/Observation-resultslab-eu-lab"
          ]
        },
        "performer": [
          {
            "display": "The Central European Lab"
          }
        ],
        "category": [
          {
            "coding": [
              {
                "system": "http://terminology.hl7.org/CodeSystem/observation-category",
                "code": "laboratory"
              }
            ]
          }
        ],
        "code": {
          "coding": [
            {
              "code": "786-4",
              "system": "http://loinc.org",
              "display": "MCHC [Mass/volume] by Automated count"
            }
          ],
          "text": "MCHC [Mass/volume] by Automated count"
        },
        "valueQuantity": {
          "system": "http://unitsofmeasure.org",
          "value": 33.6,
          "unit": "g/dL",
          "code": "g/dL"
        },
        "referenceRange": [
          {
            "low": {
              "value": 32,
              "code": "g/dL",
              "system": "http://unitsofmeasure.org"
            }
          },
          {
            "high": {
              "value": 37,
              "code": "g/dL",
              "system": "http://unitsofmeasure.org"
            }
          }
        ],
        "text": {
          "status": "generated",
          "div": "<div xmlns=\"http://www.w3.org/1999/xhtml\"><table class=\"hl7__eu__lab__report\"><tr><th>Test</th><th>18-Mar-2025</th><th>Reference&#xA0;Range</th><th>Unit</th></tr><tr><td>MCHC [Mass/volume] by Automated count</td><td>33.6</td><td>32 - 37</td><td></td><td>g/dL</td></tr></table></div>"
        },
        "status": "final",
        "subject": {
          "reference": "urn:uuid:4cac9e1e-2f63-4d51-9abc-a879ebb47cbd",
          "display": "Marina Norbiato"
        },
        "effectiveDateTime": "2025-03-18T05:31:43Z",
        "specimen": {
          "reference": "urn:uuid:77bc9693-db58-4a13-8e66-6c4ad861c6ab"
        }
      }
    },
    {
      "fullUrl": "urn:uuid:abc60018-be2a-42e8-997b-fa63276f22ea",
      "resource": {
        "resourceType": "Observation",
        "id": "abc60018-be2a-42e8-997b-fa63276f22ea",
        "meta": {
          "profile": [
            "http://hl7.eu/fhir/laboratory/StructureDefinition/Observation-resultslab-eu-lab"
          ]
        },
        "performer": [
          {
            "display": "The Central European Lab"
          }
        ],
        "category": [
          {
            "coding": [
              {
                "system": "http://terminology.hl7.org/CodeSystem/observation-category",
                "code": "laboratory"
              }
            ]
          }
        ],
        "code": {
          "coding": [
            {
              "code": "21000-5",
              "system": "http://loinc.org",
              "display": "Erythrocyte distribution width [Entitic volume] by Automated count"
            }
          ],
          "text": "Erythrocyte distribution width [Entitic volume] by Automated count"
        },
        "valueQuantity": {
          "system": "http://unitsofmeasure.org",
          "value": 40.4,
          "unit": "fL",
          "code": "fL"
        },
        "referenceRange": [
          {
            "low": {
              "value": 36,
              "code": "fL",
              "system": "http://unitsofmeasure.org"
            }
          },
          {
            "high": {
              "value": 55,
              "code": "fL",
              "system": "http://unitsofmeasure.org"
            }
          }
        ],
        "text": {
          "status": "generated",
          "div": "<div xmlns=\"http://www.w3.org/1999/xhtml\"><table class=\"hl7__eu__lab__report\"><tr><th>Test</th><th>18-Mar-2025</th><th>Reference&#xA0;Range</th><th>Unit</th></tr><tr><td>Erythrocyte distribution width [Entitic volume] by Automated count</td><td>40.4</td><td>36 - 55</td><td></td><td>fL</td></tr></table></div>"
        },
        "status": "final",
        "subject": {
          "reference": "urn:uuid:4cac9e1e-2f63-4d51-9abc-a879ebb47cbd",
          "display": "Marina Norbiato"
        },
        "effectiveDateTime": "2025-03-18T05:31:43Z",
        "specimen": {
          "reference": "urn:uuid:77bc9693-db58-4a13-8e66-6c4ad861c6ab"
        }
      }
    },
    {
      "fullUrl": "urn:uuid:e0eb7026-e667-44b0-892f-71219a54d50a",
      "resource": {
        "resourceType": "Observation",
        "id": "e0eb7026-e667-44b0-892f-71219a54d50a",
        "meta": {
          "profile": [
            "http://hl7.eu/fhir/laboratory/StructureDefinition/Observation-resultslab-eu-lab"
          ]
        },
        "performer": [
          {
            "display": "The Central European Lab"
          }
        ],
        "category": [
          {
            "coding": [
              {
                "system": "http://terminology.hl7.org/CodeSystem/observation-category",
                "code": "laboratory"
              }
            ]
          }
        ],
        "code": {
          "coding": [
            {
              "code": "777-3",
              "system": "http://loinc.org",
              "display": "Platelets [#/volume] in Blood by Automated count"
            }
          ],
          "text": "Platelets [#/volume] in Blood by Automated count"
        },
        "valueQuantity": {
          "system": "http://unitsofmeasure.org",
          "value": 309.3,
          "unit": "10*3/uL",
          "code": "10*3/uL"
        },
        "referenceRange": [
          {
            "low": {
              "value": 150,
              "code": "10*3/uL",
              "system": "http://unitsofmeasure.org"
            }
          },
          {
            "high": {
              "value": 400,
              "code": "10*3/uL",
              "system": "http://unitsofmeasure.org"
            }
          }
        ],
        "text": {
          "status": "generated",
          "div": "<div xmlns=\"http://www.w3.org/1999/xhtml\"><table class=\"hl7__eu__lab__report\"><tr><th>Test</th><th>18-Mar-2025</th><th>Reference&#xA0;Range</th><th>Unit</th></tr><tr><td>Platelets [#/volume] in Blood by Automated count</td><td>309.3</td><td>150 - 400</td><td></td><td>10*3/uL</td></tr></table></div>"
        },
        "status": "final",
        "subject": {
          "reference": "urn:uuid:4cac9e1e-2f63-4d51-9abc-a879ebb47cbd",
          "display": "Marina Norbiato"
        },
        "effectiveDateTime": "2025-03-18T05:31:43Z",
        "specimen": {
          "reference": "urn:uuid:77bc9693-db58-4a13-8e66-6c4ad861c6ab"
        }
      }
    },
    {
      "fullUrl": "urn:uuid:4c0e9604-73a6-4e92-874e-06580b978d3f",
      "resource": {
        "resourceType": "Observation",
        "id": "4c0e9604-73a6-4e92-874e-06580b978d3f",
        "meta": {
          "profile": [
            "http://hl7.eu/fhir/laboratory/StructureDefinition/Observation-resultslab-eu-lab"
          ]
        },
        "performer": [
          {
            "display": "The Central European Lab"
          }
        ],
        "category": [
          {
            "coding": [
              {
                "system": "http://terminology.hl7.org/CodeSystem/observation-category",
                "code": "laboratory"
              }
            ]
          }
        ],
        "code": {
          "coding": [
            {
              "code": "32207-3",
              "system": "http://loinc.org",
              "display": "Platelet distribution width [Entitic volume] in Blood by Automated count"
            }
          ],
          "text": "Platelet distribution width [Entitic volume] in Blood by Automated count"
        },
        "valueQuantity": {
          "system": "http://unitsofmeasure.org",
          "value": 489.3,
          "unit": "fL",
          "code": "fL"
        },
        "referenceRange": [
          {
            "low": {
              "value": 11.6,
              "code": "fL",
              "system": "http://unitsofmeasure.org"
            }
          },
          {
            "high": {
              "value": 17.4,
              "code": "fL",
              "system": "http://unitsofmeasure.org"
            }
          }
        ],
        "interpretation": [
          {
            "coding": [
              {
                "code": "H",
                "system": "http://terminology.hl7.org/CodeSystem/v3-ObservationInterpretation",
                "display": "High"
              }
            ]
          }
        ],
        "text": {
          "status": "generated",
          "div": "<div xmlns=\"http://www.w3.org/1999/xhtml\"><table class=\"hl7__eu__lab__report\"><tr><th>Test</th><th>18-Mar-2025</th><th>Reference&#xA0;Range</th><th>Unit</th></tr><tr><td>Platelet distribution width [Entitic volume] in Blood by Automated count</td><td>489.3</td><td>11.6 - 17.4</td><td>H</td><td>fL</td></tr></table></div>"
        },
        "status": "final",
        "subject": {
          "reference": "urn:uuid:4cac9e1e-2f63-4d51-9abc-a879ebb47cbd",
          "display": "Marina Norbiato"
        },
        "effectiveDateTime": "2025-03-18T05:31:43Z",
        "specimen": {
          "reference": "urn:uuid:77bc9693-db58-4a13-8e66-6c4ad861c6ab"
        }
      }
    },
    {
      "fullUrl": "urn:uuid:ef6e4b0a-9e12-45aa-b1f5-f1bff7704179",
      "resource": {
        "resourceType": "Observation",
        "id": "ef6e4b0a-9e12-45aa-b1f5-f1bff7704179",
        "meta": {
          "profile": [
            "http://hl7.eu/fhir/laboratory/StructureDefinition/Observation-resultslab-eu-lab"
          ]
        },
        "performer": [
          {
            "display": "The Central European Lab"
          }
        ],
        "category": [
          {
            "coding": [
              {
                "system": "http://terminology.hl7.org/CodeSystem/observation-category",
                "code": "laboratory"
              }
            ]
          }
        ],
        "code": {
          "coding": [
            {
              "code": "32623-1",
              "system": "http://loinc.org",
              "display": "Platelet mean volume [Entitic volume] in Blood by Automated count"
            }
          ],
          "text": "Platelet mean volume [Entitic volume] in Blood by Automated count"
        },
        "valueQuantity": {
          "system": "http://unitsofmeasure.org",
          "value": 12.2,
          "unit": "fL",
          "code": "fL"
        },
        "referenceRange": [
          {
            "low": {
              "value": 7.2,
              "code": "fL",
              "system": "http://unitsofmeasure.org"
            }
          },
          {
            "high": {
              "value": 13.5,
              "code": "fL",
              "system": "http://unitsofmeasure.org"
            }
          }
        ],
        "text": {
          "status": "generated",
          "div": "<div xmlns=\"http://www.w3.org/1999/xhtml\"><table class=\"hl7__eu__lab__report\"><tr><th>Test</th><th>18-Mar-2025</th><th>Reference&#xA0;Range</th><th>Unit</th></tr><tr><td>Platelet mean volume [Entitic volume] in Blood by Automated count</td><td>12.2</td><td>7.2 - 13.5</td><td></td><td>fL</td></tr></table></div>"
        },
        "status": "final",
        "subject": {
          "reference": "urn:uuid:4cac9e1e-2f63-4d51-9abc-a879ebb47cbd",
          "display": "Marina Norbiato"
        },
        "effectiveDateTime": "2025-03-18T05:31:43Z",
        "specimen": {
          "reference": "urn:uuid:77bc9693-db58-4a13-8e66-6c4ad861c6ab"
        }
      }
    },
    {
      "fullUrl": "urn:uuid:3b3d9567-504e-4e0a-94ab-ccd066f56d62",
      "resource": {
        "resourceType": "Device",
        "id": "3b3d9567-504e-4e0a-94ab-ccd066f56d62",
        "deviceName": [
          {
            "name": "SYNDERAI Synthetic Generator",
            "type": "manufacturer-name"
          }
        ],
        "version": [
          {
            "value": "5.0"
          }
        ],
        "text": {
          "status": "generated",
          "div": "<div xmlns=\"http://www.w3.org/1999/xhtml\">SYNDERAI Synthetic Generator v5.0</div>"
        },
        "status": "active\"",
        "distinctIdentifier": "synderai-generator-50",
        "manufacturer": "SYNDERAI Project"
      }
    },
    {
      "fullUrl": "urn:uuid:68f0ce04-445a-434e-853d-fb81b28530d9",
      "resource": {
        "resourceType": "Provenance",
        "id": "68f0ce04-445a-434e-853d-fb81b28530d9",
        "target": [
          {
            "reference": "Patient/4cac9e1e-2f63-4d51-9abc-a879ebb47cbd"
          },
          {
            "reference": "Bundle/92be1c71-a1a5-4304-b520-5bb17f2b576c"
          },
          {
            "reference": "Composition/3007dca6-e189-4bea-a655-f9c3491b6b22"
          },
          {
            "reference": "PractitionerRole/439974aa-bc78-4e55-bd23-2b9b3edb384c"
          },
          {
            "reference": "Practitioner/1bee961b-cac8-449a-a6b7-33a7df6aea24"
          },
          {
            "reference": "PractitionerRole/96291a2b-eb24-4dd5-aadd-c7c7b15525cb"
          },
          {
            "reference": "Organization/50798978-d5b4-4d19-9d05-449122b356be"
          }
        ],
        "activity": {
          "text": "Synthetic Example Data Generation"
        },
        "policy": [
          "https://synderai.net/synderai-synthetic-data-policy"
        ],
        "agent": [
          {
            "type": {
              "text": "author"
            },
            "who": {
              "reference": "Device/3b3d9567-504e-4e0a-94ab-ccd066f56d62"
            }
          }
        ],
        "reason": [
          {
            "text": "Interoperability Testing and Training (non-clinical use)"
          }
        ],
        "text": {
          "status": "generated",
          "div": "<div xmlns=\"http://www.w3.org/1999/xhtml\">Provenance for SYNDERAI Synthetic Example Data Resource</div>"
        },
        "recorded": "2025-03-18T06:31:43Z"
      }
    },
    {
      "fullUrl": "urn:uuid:439974aa-bc78-4e55-bd23-2b9b3edb384c",
      "resource": {
        "resourceType": "PractitionerRole",
        "id": "439974aa-bc78-4e55-bd23-2b9b3edb384c",
        "meta": {
          "profile": [
            "http://hl7.eu/fhir/base/StructureDefinition/practitionerRole-eu"
          ]
        },
        "text": {
          "status": "generated",
          "div": "<div xmlns=\"http://www.w3.org/1999/xhtml\">Laboratory Role Id: 439974aa-bc78-4e55-bd23-2b9b3edb384c</div>"
        },
        "practitioner": {
          "reference": "urn:uuid:1bee961b-cac8-449a-a6b7-33a7df6aea24"
        }
      }
    },
    {
      "fullUrl": "urn:uuid:1bee961b-cac8-449a-a6b7-33a7df6aea24",
      "resource": {
        "resourceType": "Practitioner",
        "id": "1bee961b-cac8-449a-a6b7-33a7df6aea24",
        "meta": {
          "profile": [
            "http://hl7.eu/fhir/base/StructureDefinition/practitioner-eu"
          ]
        },
        "identifier": [
          {
            "assigner": {
              "display": "HL7 Europe"
            },
            "system": "urn:oid:2.16.840.1.113883.2.51.999",
            "value": "07280872-4711-4221-a16c-3852011e05ce"
          }
        ],
        "name": [
          {
            "prefix": [
              "dr"
            ],
            "given": [
              "Ex"
            ],
            "family": "Ample"
          }
        ],
        "address": [
          {
            "line": [
              "Laboratoire Central Européenne",
              "Boulevard du Jardin Botanique 32"
            ],
            "postalCode": "1000",
            "city": "Brussels",
            "country": "Belgium"
          }
        ],
        "text": {
          "status": "generated",
          "div": "<div xmlns=\"http://www.w3.org/1999/xhtml\">Laboratory: Laboratoire Central Européenne, 1000 Brussels, Belgium</div>"
        }
      }
    }
  ],
  "type": "document",
  "timestamp": "2025-03-18T06:31:43Z"
}
