{
  "resourceType": "Bundle",
  "id": "07be547d-7e47-402f-b45e-67a427e31be7",
  "meta": {
    "profile": [
      "http://hl7.eu/fhir/laboratory/StructureDefinition/Bundle-eu-lab"
    ]
  },
  "identifier": {
    "assigner": {
      "display": "HL7 Europe"
    },
    "system": "urn:oid:2.16.840.1.113883.2.51.999",
    "value": "ac1502a6-3b19-41b3-b54f-ad926523dba0"
  },
  "entry": [
    {
      "fullUrl": "urn:uuid:3864f8c6-d115-4b7a-97bc-7ebc038a8781",
      "resource": {
        "resourceType": "Composition",
        "id": "3864f8c6-d115-4b7a-97bc-7ebc038a8781",
        "meta": {
          "profile": [
            "http://hl7.eu/fhir/laboratory/StructureDefinition/Composition-eu-lab"
          ]
        },
        "identifier": {
          "assigner": {
            "display": "HL7 Europe"
          },
          "system": "urn:oid:2.16.840.1.113883.2.51.999",
          "value": "aca63740-a4c9-4dae-a39f-0e149fbbddc6"
        },
        "author": [
          {
            "reference": "urn:uuid:d5e0fe8f-dee5-44b8-b345-57a55e65e8ba"
          }
        ],
        "category": [
          {
            "coding": [
              {
                "code": "26436-6",
                "system": "http://loinc.org",
                "display": "Laboratory studies (set)"
              }
            ]
          }
        ],
        "type": {
          "coding": [
            {
              "code": "11502-2",
              "system": "http://loinc.org",
              "display": "Laboratory report"
            }
          ],
          "text": "Laboratory Report"
        },
        "section": [
          {
            "code": {
              "coding": [
                {
                  "code": "26436-6",
                  "system": "http://loinc.org",
                  "display": "Laboratory studies (set)"
                }
              ],
              "text": "Laboratory studies"
            },
            "section": [
              {
                "code": {
                  "coding": [
                    {
                      "code": "$18723-7",
                      "system": "http://loinc.org",
                      "display": "Hematology studies (set)"
                    }
                  ],
                  "text": "Hematology"
                },
                "entry": [
                  {
                    "reference": "urn:uuid:7f15447e-19c2-498a-b41d-e396f44ce4fe"
                  },
                  {
                    "reference": "urn:uuid:f32f993e-b9a9-42e8-bcb4-f84c4111647f"
                  },
                  {
                    "reference": "urn:uuid:a1832e8e-385a-4289-ac43-866c7a7123ec"
                  },
                  {
                    "reference": "urn:uuid:e8492f23-69fe-46e5-bd5c-1cab0b47d30c"
                  },
                  {
                    "reference": "urn:uuid:3d119baa-b3ff-4b0b-b0f7-c06a3e479771"
                  },
                  {
                    "reference": "urn:uuid:625a9049-50c9-4dfb-bff9-effd50a253ac"
                  },
                  {
                    "reference": "urn:uuid:9aff7163-affa-4d6f-8079-fd0d75a7a18e"
                  },
                  {
                    "reference": "urn:uuid:86707cff-0f37-4f2c-9ea1-78c3cf861182"
                  },
                  {
                    "reference": "urn:uuid:c6035552-f9b5-4587-9588-169c03e0966e"
                  },
                  {
                    "reference": "urn:uuid:2b476cb2-38ca-4f39-922c-e1ccbfb26ae9"
                  },
                  {
                    "reference": "urn:uuid:3ce32796-a368-4893-b5ac-23fccff7f1b3"
                  }
                ],
                "text": {
                  "status": "generated",
                  "div": "<div xmlns=\"http://www.w3.org/1999/xhtml\"><h3>Hematology</h3><table class=\"hl7__eu__lab__report\"><thead><tr><th>Test</th><th>17-NOV-2017</th><th>Reference&#xA0;Range</th><th>Unit</th></tr></thead><tbody><tr><td>Leukocytes [#/volume] in Blood by Automated count</td><td>9.4</td><td>3.5 - 10.5</td><td>10*3/uL</td></tr><tr><td>Erythrocytes [#/volume] in Blood by Automated count</td><td><strong>4.1 L</strong></td><td>4.5 - 5.7</td><td>10*6/uL</td></tr><tr><td>Hemoglobin [Mass/volume] in Blood</td><td>14.8</td><td>14 - 18</td><td>g/dL</td></tr><tr><td>Hematocrit [Volume Fraction] of Blood by Automated count</td><td><strong>35.3 L</strong></td><td>38 - 50</td><td>%</td></tr><tr><td>MCV [Entitic volume] by Automated count</td><td>85.6</td><td>82 - 98</td><td>fL</td></tr><tr><td>MCH [Entitic mass] by Automated count</td><td>31.4</td><td>27 - 33</td><td>pg</td></tr><tr><td>MCHC [Mass/volume] by Automated count</td><td>34.0</td><td>31 - 36</td><td>g/dL</td></tr><tr><td>Erythrocyte distribution width [Entitic volume] by Automated count</td><td>41.2</td><td>39 - 55</td><td>fL</td></tr><tr><td>Platelets [#/volume] in Blood by Automated count</td><td>320.5</td><td>150 - 350</td><td>10*3/uL</td></tr><tr><td>Platelet distribution width [Entitic volume] in Blood by Automated count</td><td><strong>441.7 H</strong></td><td>144 - 366</td><td>fL</td></tr><tr><td>Platelet mean volume [Entitic volume] in Blood by Automated count</td><td>11.3</td><td>9.8 - 13.8</td><td>fL</td></tr></tbody></table></div>"
                },
                "title": "Hematology"
              },
              {
                "code": {
                  "coding": [
                    {
                      "code": "$18719-5",
                      "system": "http://loinc.org",
                      "display": "Chemistry studies (set)"
                    }
                  ],
                  "text": "Chemistry"
                },
                "entry": [
                  {
                    "reference": "urn:uuid:3db7ea35-dd77-47bc-a088-e9411b5e8b30"
                  },
                  {
                    "reference": "urn:uuid:e2f52b7b-f471-4423-b434-8886290bbb74"
                  },
                  {
                    "reference": "urn:uuid:05e83fb6-c3ae-4283-8b35-39e4a84164c4"
                  },
                  {
                    "reference": "urn:uuid:ff7366b0-8319-4da0-8cf3-9b9e400f23e0"
                  }
                ],
                "text": {
                  "status": "generated",
                  "div": "<div xmlns=\"http://www.w3.org/1999/xhtml\"><h3>Chemistry</h3><table class=\"hl7__eu__lab__report\"><thead><tr><th>Test</th><th>17-NOV-2017</th><th>Reference&#xA0;Range</th><th>Unit</th></tr></thead><tbody><tr><td>Cholesterol [Mass/volume] in Serum or Plasma</td><td>199.8</td><td>125 - 200</td><td>mg/dL</td></tr><tr><td>Triglyceride [Mass/volume] in Serum or Plasma</td><td>122.7</td><td>0 - 150</td><td>mg/dL</td></tr><tr><td>Cholesterol in LDL [Mass/volume] in Serum or Plasma by Direct assay</td><td>124.7</td><td>0 - 130</td><td>mg/dL</td></tr><tr><td>Cholesterol in HDL [Mass/volume] in Serum or Plasma</td><td>50.6</td><td>40 - 60</td><td>mg/dL</td></tr></tbody></table></div>"
                },
                "title": "Chemistry"
              }
            ],
            "title": "Laboratory Report"
          },
          {
            "text": {
              "status": "generated",
              "div": "<div xmlns=\"http://www.w3.org/1999/xhtml\"><h3>Annotation</h3><table class=\"hl7__eu__lab__report\"><tr><th>Conclusion and Recommendations based on this report and previous findings known to us</th></tr><tr><td>Lipid profile is within or near target ranges, with LDL at the upper limit of normal. Mild normocytic anemia is present (low erythrocytes and hematocrit, normal MCV/MCH), which may warrant further evaluation. Platelet count is normal, but platelet distribution width is elevated, possibly indicating increased platelet size variability. No acute abnormalities detected; recommend clinical correlation and follow-up for anemia.</td></tr></table></div>"
            },
            "code": {
              "coding": [
                {
                  "system": "http://loinc.org",
                  "code": "48767-8",
                  "display": "Annotation comment"
                }
              ]
            },
            "title": "Annotation comment"
          }
        ],
        "status": "final",
        "subject": {
          "reference": "urn:uuid:56ec4d5c-14c3-4a51-a04c-5c39dd0c3b88",
          "display": "Elias Höfig"
        },
        "date": "2017-11-17T10:47:46Z",
        "title": "Laboratory Report",
        "confidentiality": "N"
      }
    },
    {
      "fullUrl": "urn:uuid:2ac5fb46-4b1b-461b-87ec-8fdfd724a683",
      "resource": {
        "resourceType": "DiagnosticReport",
        "id": "2ac5fb46-4b1b-461b-87ec-8fdfd724a683",
        "meta": {
          "profile": [
            "http://hl7.eu/fhir/laboratory/StructureDefinition/DiagnosticReport-eu-lab"
          ]
        },
        "identifier": [
          {
            "assigner": {
              "display": "HL7 Europe"
            },
            "system": "urn:oid:2.16.840.1.113883.2.51.999",
            "value": "2179b2ce-0199-43d0-a874-c97f2860af62"
          }
        ],
        "extension": [
          {
            "url": "http://hl7.org/fhir/5.0/StructureDefinition/extension-DiagnosticReport.composition",
            "valueReference": {
              "reference": "urn:uuid:aca63740-a4c9-4dae-a39f-0e149fbbddc6"
            }
          }
        ],
        "category": [
          {
            "coding": [
              {
                "code": "26436-6",
                "system": "http://loinc.org",
                "display": "Laboratory studies (set)"
              }
            ]
          }
        ],
        "specimen": [
          {
            "reference": "urn:uuid:5d7e67f1-4a2e-416a-b590-1108664128f0"
          },
          {
            "reference": "urn:uuid:11213bc4-34e7-4421-a3cd-fc2aa71d9bc1"
          },
          {
            "reference": "urn:uuid:11213bc4-34e7-4421-a3cd-fc2aa71d9bc1"
          }
        ],
        "result": [
          {
            "reference": "urn:uuid:3db7ea35-dd77-47bc-a088-e9411b5e8b30"
          },
          {
            "reference": "urn:uuid:e2f52b7b-f471-4423-b434-8886290bbb74"
          },
          {
            "reference": "urn:uuid:05e83fb6-c3ae-4283-8b35-39e4a84164c4"
          },
          {
            "reference": "urn:uuid:ff7366b0-8319-4da0-8cf3-9b9e400f23e0"
          },
          {
            "reference": "urn:uuid:7f15447e-19c2-498a-b41d-e396f44ce4fe"
          },
          {
            "reference": "urn:uuid:f32f993e-b9a9-42e8-bcb4-f84c4111647f"
          },
          {
            "reference": "urn:uuid:a1832e8e-385a-4289-ac43-866c7a7123ec"
          },
          {
            "reference": "urn:uuid:e8492f23-69fe-46e5-bd5c-1cab0b47d30c"
          },
          {
            "reference": "urn:uuid:3d119baa-b3ff-4b0b-b0f7-c06a3e479771"
          },
          {
            "reference": "urn:uuid:625a9049-50c9-4dfb-bff9-effd50a253ac"
          },
          {
            "reference": "urn:uuid:9aff7163-affa-4d6f-8079-fd0d75a7a18e"
          },
          {
            "reference": "urn:uuid:86707cff-0f37-4f2c-9ea1-78c3cf861182"
          },
          {
            "reference": "urn:uuid:c6035552-f9b5-4587-9588-169c03e0966e"
          },
          {
            "reference": "urn:uuid:2b476cb2-38ca-4f39-922c-e1ccbfb26ae9"
          },
          {
            "reference": "urn:uuid:3ce32796-a368-4893-b5ac-23fccff7f1b3"
          }
        ],
        "status": "registered",
        "code": {
          "coding": [
            {
              "code": "11502-2",
              "system": "http://loinc.org",
              "display": "Laboratory report"
            }
          ]
        },
        "subject": {
          "reference": "urn:uuid:56ec4d5c-14c3-4a51-a04c-5c39dd0c3b88",
          "display": "Elias Höfig"
        }
      }
    },
    {
      "fullUrl": "urn:uuid:56ec4d5c-14c3-4a51-a04c-5c39dd0c3b88",
      "resource": {
        "resourceType": "Patient",
        "id": "56ec4d5c-14c3-4a51-a04c-5c39dd0c3b88",
        "meta": {
          "security": [
            {
              "system": "http://terminology.hl7.org/CodeSystem/v3-ActReason",
              "code": "HTEST"
            },
            {
              "system": "http://terminology.hl7.org/CodeSystem/v3-ActReason",
              "code": "TRAIN"
            }
          ],
          "tag": [
            {
              "system": "https://synderai.net/fhir/CodeSystem/tags",
              "code": "synthetic",
              "display": "SYNDERAI Synthetic data"
            }
          ],
          "profile": [
            "http://hl7.eu/fhir/base/StructureDefinition/patient-eu-core"
          ]
        },
        "identifier": [
          {
            "type": {
              "coding": [
                {
                  "code": "PT",
                  "system": "http://terminology.hl7.org/CodeSystem/v2-0203"
                }
              ]
            },
            "system": "http://ec.europa.eu/identifier/eci",
            "value": "7833-401919-3"
          },
          {
            "type": {
              "coding": [
                {
                  "code": "MR",
                  "system": "http://terminology.hl7.org/CodeSystem/v2-0203"
                }
              ]
            },
            "system": "http://local.setting.eu/identifier",
            "value": "55b3d71c-a283-2178-4db6-d251ed0e1404"
          }
        ],
        "name": [
          {
            "family": "Höfig"
          },
          {
            "given": [
              "Elias"
            ]
          },
          {
            "text": "Elias Höfig"
          }
        ],
        "address": [
          {
            "line": [
              "Pauline-Schwital-Allee 6-2"
            ],
            "use": "home",
            "type": "physical",
            "postalCode": "39326",
            "city": "Wolmirstedt",
            "country": "Germany"
          }
        ],
        "telecom": [
          {
            "system": "phone",
            "value": "+49 (0) 4602 154908"
          }
        ],
        "extension": [
          {
            "url": "http://hl7.org/fhir/StructureDefinition/patient-nationality",
            "valueCodeableConcept": {
              "coding": [
                {
                  "code": "DE",
                  "system": "http://hl7.org/fhir/ValueSet/country"
                }
              ]
            }
          }
        ],
        "text": {
          "status": "generated",
          "div": "<div xmlns=\"http://www.w3.org/1999/xhtml\"><table class=\"hl7__ips\"><tr><td>Elias Höfig</td><td>male</td><td>19-May-1974</td></tr></table></div>"
        },
        "gender": "male",
        "birthDate": "1974-05-19"
      }
    },
    {
      "fullUrl": "urn:uuid:57a4c716-7e91-48cf-a6f4-3287468baff8",
      "resource": {
        "resourceType": "ServiceRequest",
        "id": "57a4c716-7e91-48cf-a6f4-3287468baff8",
        "meta": {
          "profile": [
            "http://hl7.eu/fhir/laboratory/StructureDefinition/ServiceRequest-eu-lab"
          ]
        },
        "identifier": [
          {
            "system": "http://example.org",
            "value": "3bb70705-2aac-4c3f-9925-5cb5adce73be"
          }
        ],
        "specimen": [
          {
            "reference": "urn:uuid:5d7e67f1-4a2e-416a-b590-1108664128f0"
          },
          {
            "reference": "urn:uuid:11213bc4-34e7-4421-a3cd-fc2aa71d9bc1"
          }
        ],
        "status": "active",
        "intent": "order",
        "code": {
          "coding": [
            {
              "code": "108252007",
              "system": "http://snomed.info/sct",
              "display": "Laboratory procedure"
            }
          ]
        },
        "subject": {
          "reference": "urn:uuid:56ec4d5c-14c3-4a51-a04c-5c39dd0c3b88",
          "display": "Elias Höfig"
        },
        "requester": {
          "reference": "urn:uuid:7eb4ec91-2cd6-4b3b-8b4b-de4e8b4f6cc3"
        }
      }
    },
    {
      "fullUrl": "urn:uuid:7eb4ec91-2cd6-4b3b-8b4b-de4e8b4f6cc3",
      "resource": {
        "resourceType": "PractitionerRole",
        "id": "7eb4ec91-2cd6-4b3b-8b4b-de4e8b4f6cc3",
        "meta": {
          "profile": [
            "http://hl7.eu/fhir/base/StructureDefinition/practitionerRole-eu"
          ]
        },
        "text": {
          "status": "generated",
          "div": "<div xmlns=\"http://www.w3.org/1999/xhtml\">Provider Role Id: 7eb4ec91-2cd6-4b3b-8b4b-de4e8b4f6cc3</div>"
        },
        "organization": {
          "reference": "urn:uuid:1d5aa332-e64a-4bbf-aa66-1afdbb9d9882"
        }
      }
    },
    {
      "fullUrl": "urn:uuid:1d5aa332-e64a-4bbf-aa66-1afdbb9d9882",
      "resource": {
        "resourceType": "Organization",
        "id": "1d5aa332-e64a-4bbf-aa66-1afdbb9d9882",
        "meta": {
          "profile": [
            "http://hl7.eu/fhir/base/StructureDefinition/organization-eu"
          ]
        },
        "identifier": [
          {
            "assigner": {
              "display": "HL7 Europe"
            },
            "system": "urn:oid:2.16.840.1.113883.2.51.999",
            "value": "d70ebbd1-73c1-42c2-9f5d-a365620d0ce4"
          }
        ],
        "address": [
          {
            "line": [
              "Birkenallee 34"
            ],
            "city": "Magdeburg",
            "postalCode": "39130",
            "country": "Germany"
          }
        ],
        "text": {
          "status": "generated",
          "div": "<div xmlns=\"http://www.w3.org/1999/xhtml\">Provider Organization: Klinikum Magdeburg</div>"
        },
        "name": "Klinikum Magdeburg"
      }
    },
    {
      "fullUrl": "urn:uuid:5d7e67f1-4a2e-416a-b590-1108664128f0",
      "resource": {
        "resourceType": "Specimen",
        "id": "5d7e67f1-4a2e-416a-b590-1108664128f0",
        "meta": {
          "profile": [
            "http://hl7.eu/fhir/laboratory/StructureDefinition/Specimen-eu-lab"
          ]
        },
        "collection": {
          "collectedDateTime": "2017-11-17"
        },
        "text": {
          "status": "generated",
          "div": "<div xmlns=\"http://www.w3.org/1999/xhtml\"><table class=\"hl7__eu__lab__report\"><tr><th>Specimen</th><th>Collection Date</th></tr><tr><td>Acellular blood (serum or plasma) specimen</td><td><span class=\"nb\">17-Nov-2017</span></td></tr></table></div>"
        },
        "type": {
          "coding": [
            {
              "code": "122592007",
              "system": "http://snomed.info/sct",
              "display": "Acellular blood (serum or plasma) specimen"
            }
          ]
        }
      }
    },
    {
      "fullUrl": "urn:uuid:11213bc4-34e7-4421-a3cd-fc2aa71d9bc1",
      "resource": {
        "resourceType": "Specimen",
        "id": "11213bc4-34e7-4421-a3cd-fc2aa71d9bc1",
        "meta": {
          "profile": [
            "http://hl7.eu/fhir/laboratory/StructureDefinition/Specimen-eu-lab"
          ]
        },
        "collection": {
          "collectedDateTime": "2017-11-17"
        },
        "text": {
          "status": "generated",
          "div": "<div xmlns=\"http://www.w3.org/1999/xhtml\"><table class=\"hl7__eu__lab__report\"><tr><th>Specimen</th><th>Collection Date</th></tr><tr><td>Whole blood specimen (specimen)</td><td><span class=\"nb\">17-Nov-2017</span></td></tr></table></div>"
        },
        "type": {
          "coding": [
            {
              "code": "258580003",
              "system": "http://snomed.info/sct",
              "display": "Whole blood specimen (specimen)"
            }
          ]
        }
      }
    },
    {
      "fullUrl": "urn:uuid:11213bc4-34e7-4421-a3cd-fc2aa71d9bc1",
      "resource": {
        "resourceType": "Specimen",
        "id": "11213bc4-34e7-4421-a3cd-fc2aa71d9bc1",
        "meta": {
          "profile": [
            "http://hl7.eu/fhir/laboratory/StructureDefinition/Specimen-eu-lab"
          ]
        },
        "collection": {
          "collectedDateTime": "2017-11-17"
        },
        "text": {
          "status": "generated",
          "div": "<div xmlns=\"http://www.w3.org/1999/xhtml\"><table class=\"hl7__eu__lab__report\"><tr><th>Specimen</th><th>Collection Date</th></tr><tr><td>Whole blood specimen (specimen)</td><td><span class=\"nb\">17-Nov-2017</span></td></tr></table></div>"
        },
        "type": {
          "coding": [
            {
              "code": "258580003",
              "system": "http://snomed.info/sct",
              "display": "Whole blood specimen (specimen)"
            }
          ]
        }
      }
    },
    {
      "fullUrl": "urn:uuid:3db7ea35-dd77-47bc-a088-e9411b5e8b30",
      "resource": {
        "resourceType": "Observation",
        "id": "3db7ea35-dd77-47bc-a088-e9411b5e8b30",
        "meta": {
          "profile": [
            "http://hl7.eu/fhir/laboratory/StructureDefinition/Observation-resultslab-eu-lab"
          ]
        },
        "performer": [
          {
            "display": "The Central European Lab"
          }
        ],
        "category": [
          {
            "coding": [
              {
                "system": "http://terminology.hl7.org/CodeSystem/observation-category",
                "code": "laboratory"
              }
            ]
          }
        ],
        "code": {
          "coding": [
            {
              "code": "2093-3",
              "system": "http://loinc.org",
              "display": "Cholesterol [Mass/volume] in Serum or Plasma"
            }
          ],
          "text": "Cholesterol [Mass/volume] in Serum or Plasma"
        },
        "valueQuantity": {
          "system": "http://unitsofmeasure.org",
          "value": 199.8,
          "unit": "mg/dL",
          "code": "mg/dL"
        },
        "referenceRange": [
          {
            "low": {
              "value": 125,
              "code": "mg/dL",
              "system": "http://unitsofmeasure.org"
            }
          },
          {
            "high": {
              "value": 200,
              "code": "mg/dL",
              "system": "http://unitsofmeasure.org"
            }
          }
        ],
        "text": {
          "status": "generated",
          "div": "<div xmlns=\"http://www.w3.org/1999/xhtml\"><table class=\"hl7__eu__lab__report\"><tr><th>Test</th><th>17-Nov-2017</th><th>Reference&#xA0;Range</th><th>Unit</th></tr><tr><td>Cholesterol [Mass/volume] in Serum or Plasma</td><td>199.8</td><td>125 - 200</td><td></td><td>mg/dL</td></tr></table></div>"
        },
        "status": "final",
        "subject": {
          "reference": "urn:uuid:56ec4d5c-14c3-4a51-a04c-5c39dd0c3b88",
          "display": "Elias Höfig"
        },
        "effectiveDateTime": "2017-11-17T09:47:46Z",
        "specimen": {
          "reference": "urn:uuid:5d7e67f1-4a2e-416a-b590-1108664128f0"
        }
      }
    },
    {
      "fullUrl": "urn:uuid:e2f52b7b-f471-4423-b434-8886290bbb74",
      "resource": {
        "resourceType": "Observation",
        "id": "e2f52b7b-f471-4423-b434-8886290bbb74",
        "meta": {
          "profile": [
            "http://hl7.eu/fhir/laboratory/StructureDefinition/Observation-resultslab-eu-lab"
          ]
        },
        "performer": [
          {
            "display": "The Central European Lab"
          }
        ],
        "category": [
          {
            "coding": [
              {
                "system": "http://terminology.hl7.org/CodeSystem/observation-category",
                "code": "laboratory"
              }
            ]
          }
        ],
        "code": {
          "coding": [
            {
              "code": "2571-8",
              "system": "http://loinc.org",
              "display": "Triglyceride [Mass/volume] in Serum or Plasma"
            }
          ],
          "text": "Triglyceride [Mass/volume] in Serum or Plasma"
        },
        "valueQuantity": {
          "system": "http://unitsofmeasure.org",
          "value": 122.7,
          "unit": "mg/dL",
          "code": "mg/dL"
        },
        "referenceRange": [
          {
            "low": {
              "value": 0,
              "code": "mg/dL",
              "system": "http://unitsofmeasure.org"
            }
          },
          {
            "high": {
              "value": 150,
              "code": "mg/dL",
              "system": "http://unitsofmeasure.org"
            }
          }
        ],
        "text": {
          "status": "generated",
          "div": "<div xmlns=\"http://www.w3.org/1999/xhtml\"><table class=\"hl7__eu__lab__report\"><tr><th>Test</th><th>17-Nov-2017</th><th>Reference&#xA0;Range</th><th>Unit</th></tr><tr><td>Triglyceride [Mass/volume] in Serum or Plasma</td><td>122.7</td><td>0 - 150</td><td></td><td>mg/dL</td></tr></table></div>"
        },
        "status": "final",
        "subject": {
          "reference": "urn:uuid:56ec4d5c-14c3-4a51-a04c-5c39dd0c3b88",
          "display": "Elias Höfig"
        },
        "effectiveDateTime": "2017-11-17T09:47:46Z",
        "specimen": {
          "reference": "urn:uuid:5d7e67f1-4a2e-416a-b590-1108664128f0"
        }
      }
    },
    {
      "fullUrl": "urn:uuid:05e83fb6-c3ae-4283-8b35-39e4a84164c4",
      "resource": {
        "resourceType": "Observation",
        "id": "05e83fb6-c3ae-4283-8b35-39e4a84164c4",
        "meta": {
          "profile": [
            "http://hl7.eu/fhir/laboratory/StructureDefinition/Observation-resultslab-eu-lab"
          ]
        },
        "performer": [
          {
            "display": "The Central European Lab"
          }
        ],
        "category": [
          {
            "coding": [
              {
                "system": "http://terminology.hl7.org/CodeSystem/observation-category",
                "code": "laboratory"
              }
            ]
          }
        ],
        "code": {
          "coding": [
            {
              "code": "18262-6",
              "system": "http://loinc.org",
              "display": "Cholesterol in LDL [Mass/volume] in Serum or Plasma by Direct assay"
            }
          ],
          "text": "Cholesterol in LDL [Mass/volume] in Serum or Plasma by Direct assay"
        },
        "valueQuantity": {
          "system": "http://unitsofmeasure.org",
          "value": 124.7,
          "unit": "mg/dL",
          "code": "mg/dL"
        },
        "referenceRange": [
          {
            "low": {
              "value": 0,
              "code": "mg/dL",
              "system": "http://unitsofmeasure.org"
            }
          },
          {
            "high": {
              "value": 130,
              "code": "mg/dL",
              "system": "http://unitsofmeasure.org"
            }
          }
        ],
        "text": {
          "status": "generated",
          "div": "<div xmlns=\"http://www.w3.org/1999/xhtml\"><table class=\"hl7__eu__lab__report\"><tr><th>Test</th><th>17-Nov-2017</th><th>Reference&#xA0;Range</th><th>Unit</th></tr><tr><td>Cholesterol in LDL [Mass/volume] in Serum or Plasma by Direct assay</td><td>124.7</td><td>0 - 130</td><td></td><td>mg/dL</td></tr></table></div>"
        },
        "status": "final",
        "subject": {
          "reference": "urn:uuid:56ec4d5c-14c3-4a51-a04c-5c39dd0c3b88",
          "display": "Elias Höfig"
        },
        "effectiveDateTime": "2017-11-17T09:47:46Z",
        "specimen": {
          "reference": "urn:uuid:5d7e67f1-4a2e-416a-b590-1108664128f0"
        }
      }
    },
    {
      "fullUrl": "urn:uuid:ff7366b0-8319-4da0-8cf3-9b9e400f23e0",
      "resource": {
        "resourceType": "Observation",
        "id": "ff7366b0-8319-4da0-8cf3-9b9e400f23e0",
        "meta": {
          "profile": [
            "http://hl7.eu/fhir/laboratory/StructureDefinition/Observation-resultslab-eu-lab"
          ]
        },
        "performer": [
          {
            "display": "The Central European Lab"
          }
        ],
        "category": [
          {
            "coding": [
              {
                "system": "http://terminology.hl7.org/CodeSystem/observation-category",
                "code": "laboratory"
              }
            ]
          }
        ],
        "code": {
          "coding": [
            {
              "code": "2085-9",
              "system": "http://loinc.org",
              "display": "Cholesterol in HDL [Mass/volume] in Serum or Plasma"
            }
          ],
          "text": "Cholesterol in HDL [Mass/volume] in Serum or Plasma"
        },
        "valueQuantity": {
          "system": "http://unitsofmeasure.org",
          "value": 50.6,
          "unit": "mg/dL",
          "code": "mg/dL"
        },
        "referenceRange": [
          {
            "low": {
              "value": 40,
              "code": "mg/dL",
              "system": "http://unitsofmeasure.org"
            }
          },
          {
            "high": {
              "value": 60,
              "code": "mg/dL",
              "system": "http://unitsofmeasure.org"
            }
          }
        ],
        "text": {
          "status": "generated",
          "div": "<div xmlns=\"http://www.w3.org/1999/xhtml\"><table class=\"hl7__eu__lab__report\"><tr><th>Test</th><th>17-Nov-2017</th><th>Reference&#xA0;Range</th><th>Unit</th></tr><tr><td>Cholesterol in HDL [Mass/volume] in Serum or Plasma</td><td>50.6</td><td>40 - 60</td><td></td><td>mg/dL</td></tr></table></div>"
        },
        "status": "final",
        "subject": {
          "reference": "urn:uuid:56ec4d5c-14c3-4a51-a04c-5c39dd0c3b88",
          "display": "Elias Höfig"
        },
        "effectiveDateTime": "2017-11-17T09:47:46Z",
        "specimen": {
          "reference": "urn:uuid:5d7e67f1-4a2e-416a-b590-1108664128f0"
        }
      }
    },
    {
      "fullUrl": "urn:uuid:7f15447e-19c2-498a-b41d-e396f44ce4fe",
      "resource": {
        "resourceType": "Observation",
        "id": "7f15447e-19c2-498a-b41d-e396f44ce4fe",
        "meta": {
          "profile": [
            "http://hl7.eu/fhir/laboratory/StructureDefinition/Observation-resultslab-eu-lab"
          ]
        },
        "performer": [
          {
            "display": "The Central European Lab"
          }
        ],
        "category": [
          {
            "coding": [
              {
                "system": "http://terminology.hl7.org/CodeSystem/observation-category",
                "code": "laboratory"
              }
            ]
          }
        ],
        "code": {
          "coding": [
            {
              "code": "6690-2",
              "system": "http://loinc.org",
              "display": "Leukocytes [#/volume] in Blood by Automated count"
            }
          ],
          "text": "Leukocytes [#/volume] in Blood by Automated count"
        },
        "valueQuantity": {
          "system": "http://unitsofmeasure.org",
          "value": 9.4,
          "unit": "10*3/uL",
          "code": "10*3/uL"
        },
        "referenceRange": [
          {
            "low": {
              "value": 3.5,
              "code": "10*3/uL",
              "system": "http://unitsofmeasure.org"
            }
          },
          {
            "high": {
              "value": 10.5,
              "code": "10*3/uL",
              "system": "http://unitsofmeasure.org"
            }
          }
        ],
        "text": {
          "status": "generated",
          "div": "<div xmlns=\"http://www.w3.org/1999/xhtml\"><table class=\"hl7__eu__lab__report\"><tr><th>Test</th><th>17-Nov-2017</th><th>Reference&#xA0;Range</th><th>Unit</th></tr><tr><td>Leukocytes [#/volume] in Blood by Automated count</td><td>9.4</td><td>3.5 - 10.5</td><td></td><td>10*3/uL</td></tr></table></div>"
        },
        "status": "final",
        "subject": {
          "reference": "urn:uuid:56ec4d5c-14c3-4a51-a04c-5c39dd0c3b88",
          "display": "Elias Höfig"
        },
        "effectiveDateTime": "2017-11-17T09:47:46Z",
        "specimen": {
          "reference": "urn:uuid:11213bc4-34e7-4421-a3cd-fc2aa71d9bc1"
        }
      }
    },
    {
      "fullUrl": "urn:uuid:f32f993e-b9a9-42e8-bcb4-f84c4111647f",
      "resource": {
        "resourceType": "Observation",
        "id": "f32f993e-b9a9-42e8-bcb4-f84c4111647f",
        "meta": {
          "profile": [
            "http://hl7.eu/fhir/laboratory/StructureDefinition/Observation-resultslab-eu-lab"
          ]
        },
        "performer": [
          {
            "display": "The Central European Lab"
          }
        ],
        "category": [
          {
            "coding": [
              {
                "system": "http://terminology.hl7.org/CodeSystem/observation-category",
                "code": "laboratory"
              }
            ]
          }
        ],
        "code": {
          "coding": [
            {
              "code": "789-8",
              "system": "http://loinc.org",
              "display": "Erythrocytes [#/volume] in Blood by Automated count"
            }
          ],
          "text": "Erythrocytes [#/volume] in Blood by Automated count"
        },
        "valueQuantity": {
          "system": "http://unitsofmeasure.org",
          "value": 4.1,
          "unit": "10*6/uL",
          "code": "10*6/uL"
        },
        "referenceRange": [
          {
            "low": {
              "value": 4.5,
              "code": "10*6/uL",
              "system": "http://unitsofmeasure.org"
            }
          },
          {
            "high": {
              "value": 5.7,
              "code": "10*6/uL",
              "system": "http://unitsofmeasure.org"
            }
          }
        ],
        "interpretation": [
          {
            "coding": [
              {
                "code": "L",
                "system": "http://terminology.hl7.org/CodeSystem/v3-ObservationInterpretation",
                "display": "Low"
              }
            ]
          }
        ],
        "text": {
          "status": "generated",
          "div": "<div xmlns=\"http://www.w3.org/1999/xhtml\"><table class=\"hl7__eu__lab__report\"><tr><th>Test</th><th>17-Nov-2017</th><th>Reference&#xA0;Range</th><th>Unit</th></tr><tr><td>Erythrocytes [#/volume] in Blood by Automated count</td><td>4.1</td><td>4.5 - 5.7</td><td>L</td><td>10*6/uL</td></tr></table></div>"
        },
        "status": "final",
        "subject": {
          "reference": "urn:uuid:56ec4d5c-14c3-4a51-a04c-5c39dd0c3b88",
          "display": "Elias Höfig"
        },
        "effectiveDateTime": "2017-11-17T09:47:46Z",
        "specimen": {
          "reference": "urn:uuid:11213bc4-34e7-4421-a3cd-fc2aa71d9bc1"
        }
      }
    },
    {
      "fullUrl": "urn:uuid:a1832e8e-385a-4289-ac43-866c7a7123ec",
      "resource": {
        "resourceType": "Observation",
        "id": "a1832e8e-385a-4289-ac43-866c7a7123ec",
        "meta": {
          "profile": [
            "http://hl7.eu/fhir/laboratory/StructureDefinition/Observation-resultslab-eu-lab"
          ]
        },
        "performer": [
          {
            "display": "The Central European Lab"
          }
        ],
        "category": [
          {
            "coding": [
              {
                "system": "http://terminology.hl7.org/CodeSystem/observation-category",
                "code": "laboratory"
              }
            ]
          }
        ],
        "code": {
          "coding": [
            {
              "code": "718-7",
              "system": "http://loinc.org",
              "display": "Hemoglobin [Mass/volume] in Blood"
            }
          ],
          "text": "Hemoglobin [Mass/volume] in Blood"
        },
        "valueQuantity": {
          "system": "http://unitsofmeasure.org",
          "value": 14.8,
          "unit": "g/dL",
          "code": "g/dL"
        },
        "referenceRange": [
          {
            "low": {
              "value": 14,
              "code": "g/dL",
              "system": "http://unitsofmeasure.org"
            }
          },
          {
            "high": {
              "value": 18,
              "code": "g/dL",
              "system": "http://unitsofmeasure.org"
            }
          }
        ],
        "text": {
          "status": "generated",
          "div": "<div xmlns=\"http://www.w3.org/1999/xhtml\"><table class=\"hl7__eu__lab__report\"><tr><th>Test</th><th>17-Nov-2017</th><th>Reference&#xA0;Range</th><th>Unit</th></tr><tr><td>Hemoglobin [Mass/volume] in Blood</td><td>14.8</td><td>14 - 18</td><td></td><td>g/dL</td></tr></table></div>"
        },
        "status": "final",
        "subject": {
          "reference": "urn:uuid:56ec4d5c-14c3-4a51-a04c-5c39dd0c3b88",
          "display": "Elias Höfig"
        },
        "effectiveDateTime": "2017-11-17T09:47:46Z",
        "specimen": {
          "reference": "urn:uuid:11213bc4-34e7-4421-a3cd-fc2aa71d9bc1"
        }
      }
    },
    {
      "fullUrl": "urn:uuid:e8492f23-69fe-46e5-bd5c-1cab0b47d30c",
      "resource": {
        "resourceType": "Observation",
        "id": "e8492f23-69fe-46e5-bd5c-1cab0b47d30c",
        "meta": {
          "profile": [
            "http://hl7.eu/fhir/laboratory/StructureDefinition/Observation-resultslab-eu-lab"
          ]
        },
        "performer": [
          {
            "display": "The Central European Lab"
          }
        ],
        "category": [
          {
            "coding": [
              {
                "system": "http://terminology.hl7.org/CodeSystem/observation-category",
                "code": "laboratory"
              }
            ]
          }
        ],
        "code": {
          "coding": [
            {
              "code": "4544-3",
              "system": "http://loinc.org",
              "display": "Hematocrit [Volume Fraction] of Blood by Automated count"
            }
          ],
          "text": "Hematocrit [Volume Fraction] of Blood by Automated count"
        },
        "valueQuantity": {
          "system": "http://unitsofmeasure.org",
          "value": 35.3,
          "unit": "%",
          "code": "%"
        },
        "referenceRange": [
          {
            "low": {
              "value": 38,
              "code": "%",
              "system": "http://unitsofmeasure.org"
            }
          },
          {
            "high": {
              "value": 50,
              "code": "%",
              "system": "http://unitsofmeasure.org"
            }
          }
        ],
        "interpretation": [
          {
            "coding": [
              {
                "code": "L",
                "system": "http://terminology.hl7.org/CodeSystem/v3-ObservationInterpretation",
                "display": "Low"
              }
            ]
          }
        ],
        "text": {
          "status": "generated",
          "div": "<div xmlns=\"http://www.w3.org/1999/xhtml\"><table class=\"hl7__eu__lab__report\"><tr><th>Test</th><th>17-Nov-2017</th><th>Reference&#xA0;Range</th><th>Unit</th></tr><tr><td>Hematocrit [Volume Fraction] of Blood by Automated count</td><td>35.3</td><td>38 - 50</td><td>L</td><td>%</td></tr></table></div>"
        },
        "status": "final",
        "subject": {
          "reference": "urn:uuid:56ec4d5c-14c3-4a51-a04c-5c39dd0c3b88",
          "display": "Elias Höfig"
        },
        "effectiveDateTime": "2017-11-17T09:47:46Z",
        "specimen": {
          "reference": "urn:uuid:11213bc4-34e7-4421-a3cd-fc2aa71d9bc1"
        }
      }
    },
    {
      "fullUrl": "urn:uuid:3d119baa-b3ff-4b0b-b0f7-c06a3e479771",
      "resource": {
        "resourceType": "Observation",
        "id": "3d119baa-b3ff-4b0b-b0f7-c06a3e479771",
        "meta": {
          "profile": [
            "http://hl7.eu/fhir/laboratory/StructureDefinition/Observation-resultslab-eu-lab"
          ]
        },
        "performer": [
          {
            "display": "The Central European Lab"
          }
        ],
        "category": [
          {
            "coding": [
              {
                "system": "http://terminology.hl7.org/CodeSystem/observation-category",
                "code": "laboratory"
              }
            ]
          }
        ],
        "code": {
          "coding": [
            {
              "code": "787-2",
              "system": "http://loinc.org",
              "display": "MCV [Entitic volume] by Automated count"
            }
          ],
          "text": "MCV [Entitic volume] by Automated count"
        },
        "valueQuantity": {
          "system": "http://unitsofmeasure.org",
          "value": 85.6,
          "unit": "fL",
          "code": "fL"
        },
        "referenceRange": [
          {
            "low": {
              "value": 82,
              "code": "fL",
              "system": "http://unitsofmeasure.org"
            }
          },
          {
            "high": {
              "value": 98,
              "code": "fL",
              "system": "http://unitsofmeasure.org"
            }
          }
        ],
        "text": {
          "status": "generated",
          "div": "<div xmlns=\"http://www.w3.org/1999/xhtml\"><table class=\"hl7__eu__lab__report\"><tr><th>Test</th><th>17-Nov-2017</th><th>Reference&#xA0;Range</th><th>Unit</th></tr><tr><td>MCV [Entitic volume] by Automated count</td><td>85.6</td><td>82 - 98</td><td></td><td>fL</td></tr></table></div>"
        },
        "status": "final",
        "subject": {
          "reference": "urn:uuid:56ec4d5c-14c3-4a51-a04c-5c39dd0c3b88",
          "display": "Elias Höfig"
        },
        "effectiveDateTime": "2017-11-17T09:47:46Z",
        "specimen": {
          "reference": "urn:uuid:11213bc4-34e7-4421-a3cd-fc2aa71d9bc1"
        }
      }
    },
    {
      "fullUrl": "urn:uuid:625a9049-50c9-4dfb-bff9-effd50a253ac",
      "resource": {
        "resourceType": "Observation",
        "id": "625a9049-50c9-4dfb-bff9-effd50a253ac",
        "meta": {
          "profile": [
            "http://hl7.eu/fhir/laboratory/StructureDefinition/Observation-resultslab-eu-lab"
          ]
        },
        "performer": [
          {
            "display": "The Central European Lab"
          }
        ],
        "category": [
          {
            "coding": [
              {
                "system": "http://terminology.hl7.org/CodeSystem/observation-category",
                "code": "laboratory"
              }
            ]
          }
        ],
        "code": {
          "coding": [
            {
              "code": "785-6",
              "system": "http://loinc.org",
              "display": "MCH [Entitic mass] by Automated count"
            }
          ],
          "text": "MCH [Entitic mass] by Automated count"
        },
        "valueQuantity": {
          "system": "http://unitsofmeasure.org",
          "value": 31.4,
          "unit": "pg",
          "code": "pg"
        },
        "referenceRange": [
          {
            "low": {
              "value": 27,
              "code": "pg",
              "system": "http://unitsofmeasure.org"
            }
          },
          {
            "high": {
              "value": 33,
              "code": "pg",
              "system": "http://unitsofmeasure.org"
            }
          }
        ],
        "text": {
          "status": "generated",
          "div": "<div xmlns=\"http://www.w3.org/1999/xhtml\"><table class=\"hl7__eu__lab__report\"><tr><th>Test</th><th>17-Nov-2017</th><th>Reference&#xA0;Range</th><th>Unit</th></tr><tr><td>MCH [Entitic mass] by Automated count</td><td>31.4</td><td>27 - 33</td><td></td><td>pg</td></tr></table></div>"
        },
        "status": "final",
        "subject": {
          "reference": "urn:uuid:56ec4d5c-14c3-4a51-a04c-5c39dd0c3b88",
          "display": "Elias Höfig"
        },
        "effectiveDateTime": "2017-11-17T09:47:46Z",
        "specimen": {
          "reference": "urn:uuid:11213bc4-34e7-4421-a3cd-fc2aa71d9bc1"
        }
      }
    },
    {
      "fullUrl": "urn:uuid:9aff7163-affa-4d6f-8079-fd0d75a7a18e",
      "resource": {
        "resourceType": "Observation",
        "id": "9aff7163-affa-4d6f-8079-fd0d75a7a18e",
        "meta": {
          "profile": [
            "http://hl7.eu/fhir/laboratory/StructureDefinition/Observation-resultslab-eu-lab"
          ]
        },
        "performer": [
          {
            "display": "The Central European Lab"
          }
        ],
        "category": [
          {
            "coding": [
              {
                "system": "http://terminology.hl7.org/CodeSystem/observation-category",
                "code": "laboratory"
              }
            ]
          }
        ],
        "code": {
          "coding": [
            {
              "code": "786-4",
              "system": "http://loinc.org",
              "display": "MCHC [Mass/volume] by Automated count"
            }
          ],
          "text": "MCHC [Mass/volume] by Automated count"
        },
        "valueQuantity": {
          "system": "http://unitsofmeasure.org",
          "value": 34,
          "unit": "g/dL",
          "code": "g/dL"
        },
        "referenceRange": [
          {
            "low": {
              "value": 31,
              "code": "g/dL",
              "system": "http://unitsofmeasure.org"
            }
          },
          {
            "high": {
              "value": 36,
              "code": "g/dL",
              "system": "http://unitsofmeasure.org"
            }
          }
        ],
        "text": {
          "status": "generated",
          "div": "<div xmlns=\"http://www.w3.org/1999/xhtml\"><table class=\"hl7__eu__lab__report\"><tr><th>Test</th><th>17-Nov-2017</th><th>Reference&#xA0;Range</th><th>Unit</th></tr><tr><td>MCHC [Mass/volume] by Automated count</td><td>34.0</td><td>31 - 36</td><td></td><td>g/dL</td></tr></table></div>"
        },
        "status": "final",
        "subject": {
          "reference": "urn:uuid:56ec4d5c-14c3-4a51-a04c-5c39dd0c3b88",
          "display": "Elias Höfig"
        },
        "effectiveDateTime": "2017-11-17T09:47:46Z",
        "specimen": {
          "reference": "urn:uuid:11213bc4-34e7-4421-a3cd-fc2aa71d9bc1"
        }
      }
    },
    {
      "fullUrl": "urn:uuid:86707cff-0f37-4f2c-9ea1-78c3cf861182",
      "resource": {
        "resourceType": "Observation",
        "id": "86707cff-0f37-4f2c-9ea1-78c3cf861182",
        "meta": {
          "profile": [
            "http://hl7.eu/fhir/laboratory/StructureDefinition/Observation-resultslab-eu-lab"
          ]
        },
        "performer": [
          {
            "display": "The Central European Lab"
          }
        ],
        "category": [
          {
            "coding": [
              {
                "system": "http://terminology.hl7.org/CodeSystem/observation-category",
                "code": "laboratory"
              }
            ]
          }
        ],
        "code": {
          "coding": [
            {
              "code": "21000-5",
              "system": "http://loinc.org",
              "display": "Erythrocyte distribution width [Entitic volume] by Automated count"
            }
          ],
          "text": "Erythrocyte distribution width [Entitic volume] by Automated count"
        },
        "valueQuantity": {
          "system": "http://unitsofmeasure.org",
          "value": 41.2,
          "unit": "fL",
          "code": "fL"
        },
        "referenceRange": [
          {
            "low": {
              "value": 39,
              "code": "fL",
              "system": "http://unitsofmeasure.org"
            }
          },
          {
            "high": {
              "value": 55,
              "code": "fL",
              "system": "http://unitsofmeasure.org"
            }
          }
        ],
        "text": {
          "status": "generated",
          "div": "<div xmlns=\"http://www.w3.org/1999/xhtml\"><table class=\"hl7__eu__lab__report\"><tr><th>Test</th><th>17-Nov-2017</th><th>Reference&#xA0;Range</th><th>Unit</th></tr><tr><td>Erythrocyte distribution width [Entitic volume] by Automated count</td><td>41.2</td><td>39 - 55</td><td></td><td>fL</td></tr></table></div>"
        },
        "status": "final",
        "subject": {
          "reference": "urn:uuid:56ec4d5c-14c3-4a51-a04c-5c39dd0c3b88",
          "display": "Elias Höfig"
        },
        "effectiveDateTime": "2017-11-17T09:47:46Z",
        "specimen": {
          "reference": "urn:uuid:11213bc4-34e7-4421-a3cd-fc2aa71d9bc1"
        }
      }
    },
    {
      "fullUrl": "urn:uuid:c6035552-f9b5-4587-9588-169c03e0966e",
      "resource": {
        "resourceType": "Observation",
        "id": "c6035552-f9b5-4587-9588-169c03e0966e",
        "meta": {
          "profile": [
            "http://hl7.eu/fhir/laboratory/StructureDefinition/Observation-resultslab-eu-lab"
          ]
        },
        "performer": [
          {
            "display": "The Central European Lab"
          }
        ],
        "category": [
          {
            "coding": [
              {
                "system": "http://terminology.hl7.org/CodeSystem/observation-category",
                "code": "laboratory"
              }
            ]
          }
        ],
        "code": {
          "coding": [
            {
              "code": "777-3",
              "system": "http://loinc.org",
              "display": "Platelets [#/volume] in Blood by Automated count"
            }
          ],
          "text": "Platelets [#/volume] in Blood by Automated count"
        },
        "valueQuantity": {
          "system": "http://unitsofmeasure.org",
          "value": 320.5,
          "unit": "10*3/uL",
          "code": "10*3/uL"
        },
        "referenceRange": [
          {
            "low": {
              "value": 150,
              "code": "10*3/uL",
              "system": "http://unitsofmeasure.org"
            }
          },
          {
            "high": {
              "value": 350,
              "code": "10*3/uL",
              "system": "http://unitsofmeasure.org"
            }
          }
        ],
        "text": {
          "status": "generated",
          "div": "<div xmlns=\"http://www.w3.org/1999/xhtml\"><table class=\"hl7__eu__lab__report\"><tr><th>Test</th><th>17-Nov-2017</th><th>Reference&#xA0;Range</th><th>Unit</th></tr><tr><td>Platelets [#/volume] in Blood by Automated count</td><td>320.5</td><td>150 - 350</td><td></td><td>10*3/uL</td></tr></table></div>"
        },
        "status": "final",
        "subject": {
          "reference": "urn:uuid:56ec4d5c-14c3-4a51-a04c-5c39dd0c3b88",
          "display": "Elias Höfig"
        },
        "effectiveDateTime": "2017-11-17T09:47:46Z",
        "specimen": {
          "reference": "urn:uuid:11213bc4-34e7-4421-a3cd-fc2aa71d9bc1"
        }
      }
    },
    {
      "fullUrl": "urn:uuid:2b476cb2-38ca-4f39-922c-e1ccbfb26ae9",
      "resource": {
        "resourceType": "Observation",
        "id": "2b476cb2-38ca-4f39-922c-e1ccbfb26ae9",
        "meta": {
          "profile": [
            "http://hl7.eu/fhir/laboratory/StructureDefinition/Observation-resultslab-eu-lab"
          ]
        },
        "performer": [
          {
            "display": "The Central European Lab"
          }
        ],
        "category": [
          {
            "coding": [
              {
                "system": "http://terminology.hl7.org/CodeSystem/observation-category",
                "code": "laboratory"
              }
            ]
          }
        ],
        "code": {
          "coding": [
            {
              "code": "32207-3",
              "system": "http://loinc.org",
              "display": "Platelet distribution width [Entitic volume] in Blood by Automated count"
            }
          ],
          "text": "Platelet distribution width [Entitic volume] in Blood by Automated count"
        },
        "valueQuantity": {
          "system": "http://unitsofmeasure.org",
          "value": 441.7,
          "unit": "fL",
          "code": "fL"
        },
        "referenceRange": [
          {
            "low": {
              "value": 144,
              "code": "fL",
              "system": "http://unitsofmeasure.org"
            }
          },
          {
            "high": {
              "value": 366,
              "code": "fL",
              "system": "http://unitsofmeasure.org"
            }
          }
        ],
        "interpretation": [
          {
            "coding": [
              {
                "code": "H",
                "system": "http://terminology.hl7.org/CodeSystem/v3-ObservationInterpretation",
                "display": "High"
              }
            ]
          }
        ],
        "text": {
          "status": "generated",
          "div": "<div xmlns=\"http://www.w3.org/1999/xhtml\"><table class=\"hl7__eu__lab__report\"><tr><th>Test</th><th>17-Nov-2017</th><th>Reference&#xA0;Range</th><th>Unit</th></tr><tr><td>Platelet distribution width [Entitic volume] in Blood by Automated count</td><td>441.7</td><td>144 - 366</td><td>H</td><td>fL</td></tr></table></div>"
        },
        "status": "final",
        "subject": {
          "reference": "urn:uuid:56ec4d5c-14c3-4a51-a04c-5c39dd0c3b88",
          "display": "Elias Höfig"
        },
        "effectiveDateTime": "2017-11-17T09:47:46Z",
        "specimen": {
          "reference": "urn:uuid:11213bc4-34e7-4421-a3cd-fc2aa71d9bc1"
        }
      }
    },
    {
      "fullUrl": "urn:uuid:3ce32796-a368-4893-b5ac-23fccff7f1b3",
      "resource": {
        "resourceType": "Observation",
        "id": "3ce32796-a368-4893-b5ac-23fccff7f1b3",
        "meta": {
          "profile": [
            "http://hl7.eu/fhir/laboratory/StructureDefinition/Observation-resultslab-eu-lab"
          ]
        },
        "performer": [
          {
            "display": "The Central European Lab"
          }
        ],
        "category": [
          {
            "coding": [
              {
                "system": "http://terminology.hl7.org/CodeSystem/observation-category",
                "code": "laboratory"
              }
            ]
          }
        ],
        "code": {
          "coding": [
            {
              "code": "32623-1",
              "system": "http://loinc.org",
              "display": "Platelet mean volume [Entitic volume] in Blood by Automated count"
            }
          ],
          "text": "Platelet mean volume [Entitic volume] in Blood by Automated count"
        },
        "valueQuantity": {
          "system": "http://unitsofmeasure.org",
          "value": 11.3,
          "unit": "fL",
          "code": "fL"
        },
        "referenceRange": [
          {
            "low": {
              "value": 9.8,
              "code": "fL",
              "system": "http://unitsofmeasure.org"
            }
          },
          {
            "high": {
              "value": 13.8,
              "code": "fL",
              "system": "http://unitsofmeasure.org"
            }
          }
        ],
        "text": {
          "status": "generated",
          "div": "<div xmlns=\"http://www.w3.org/1999/xhtml\"><table class=\"hl7__eu__lab__report\"><tr><th>Test</th><th>17-Nov-2017</th><th>Reference&#xA0;Range</th><th>Unit</th></tr><tr><td>Platelet mean volume [Entitic volume] in Blood by Automated count</td><td>11.3</td><td>9.8 - 13.8</td><td></td><td>fL</td></tr></table></div>"
        },
        "status": "final",
        "subject": {
          "reference": "urn:uuid:56ec4d5c-14c3-4a51-a04c-5c39dd0c3b88",
          "display": "Elias Höfig"
        },
        "effectiveDateTime": "2017-11-17T09:47:46Z",
        "specimen": {
          "reference": "urn:uuid:11213bc4-34e7-4421-a3cd-fc2aa71d9bc1"
        }
      }
    },
    {
      "fullUrl": "urn:uuid:4b91270a-5388-484f-ad04-965c13f3893d",
      "resource": {
        "resourceType": "Device",
        "id": "4b91270a-5388-484f-ad04-965c13f3893d",
        "deviceName": [
          {
            "name": "SYNDERAI Synthetic Generator",
            "type": "manufacturer-name"
          }
        ],
        "version": [
          {
            "value": "5.0"
          }
        ],
        "text": {
          "status": "generated",
          "div": "<div xmlns=\"http://www.w3.org/1999/xhtml\">SYNDERAI Synthetic Generator v5.0</div>"
        },
        "status": "active\"",
        "distinctIdentifier": "synderai-generator-50",
        "manufacturer": "SYNDERAI Project"
      }
    },
    {
      "fullUrl": "urn:uuid:2b94a37f-c7fb-4978-a415-1d54430a0bfe",
      "resource": {
        "resourceType": "Provenance",
        "id": "2b94a37f-c7fb-4978-a415-1d54430a0bfe",
        "target": [
          {
            "reference": "Patient/56ec4d5c-14c3-4a51-a04c-5c39dd0c3b88"
          },
          {
            "reference": "Bundle/07be547d-7e47-402f-b45e-67a427e31be7"
          },
          {
            "reference": "Composition/3864f8c6-d115-4b7a-97bc-7ebc038a8781"
          },
          {
            "reference": "PractitionerRole/d5e0fe8f-dee5-44b8-b345-57a55e65e8ba"
          },
          {
            "reference": "Practitioner/33038d1d-8118-4d8a-90e8-05cd5f6e5f9d"
          },
          {
            "reference": "PractitionerRole/7eb4ec91-2cd6-4b3b-8b4b-de4e8b4f6cc3"
          },
          {
            "reference": "Organization/1d5aa332-e64a-4bbf-aa66-1afdbb9d9882"
          }
        ],
        "activity": {
          "text": "Synthetic Example Data Generation"
        },
        "policy": [
          "https://synderai.net/synderai-synthetic-data-policy"
        ],
        "agent": [
          {
            "type": {
              "text": "author"
            },
            "who": {
              "reference": "Device/4b91270a-5388-484f-ad04-965c13f3893d"
            }
          }
        ],
        "reason": [
          {
            "text": "Interoperability Testing and Training (non-clinical use)"
          }
        ],
        "text": {
          "status": "generated",
          "div": "<div xmlns=\"http://www.w3.org/1999/xhtml\">Provenance for SYNDERAI Synthetic Example Data Resource</div>"
        },
        "recorded": "2017-11-17T10:47:46Z"
      }
    },
    {
      "fullUrl": "urn:uuid:d5e0fe8f-dee5-44b8-b345-57a55e65e8ba",
      "resource": {
        "resourceType": "PractitionerRole",
        "id": "d5e0fe8f-dee5-44b8-b345-57a55e65e8ba",
        "meta": {
          "profile": [
            "http://hl7.eu/fhir/base/StructureDefinition/practitionerRole-eu"
          ]
        },
        "text": {
          "status": "generated",
          "div": "<div xmlns=\"http://www.w3.org/1999/xhtml\">Laboratory Role Id: d5e0fe8f-dee5-44b8-b345-57a55e65e8ba</div>"
        },
        "practitioner": {
          "reference": "urn:uuid:33038d1d-8118-4d8a-90e8-05cd5f6e5f9d"
        }
      }
    },
    {
      "fullUrl": "urn:uuid:33038d1d-8118-4d8a-90e8-05cd5f6e5f9d",
      "resource": {
        "resourceType": "Practitioner",
        "id": "33038d1d-8118-4d8a-90e8-05cd5f6e5f9d",
        "meta": {
          "profile": [
            "http://hl7.eu/fhir/base/StructureDefinition/practitioner-eu"
          ]
        },
        "identifier": [
          {
            "assigner": {
              "display": "HL7 Europe"
            },
            "system": "urn:oid:2.16.840.1.113883.2.51.999",
            "value": "6b41c2b5-4f19-443b-9957-cbad4a72f08f"
          }
        ],
        "name": [
          {
            "prefix": [
              "dr"
            ],
            "given": [
              "Ex"
            ],
            "family": "Ample"
          }
        ],
        "address": [
          {
            "line": [
              "Laboratoire Central Européenne",
              "Boulevard du Jardin Botanique 32"
            ],
            "postalCode": "1000",
            "city": "Brussels",
            "country": "Belgium"
          }
        ],
        "text": {
          "status": "generated",
          "div": "<div xmlns=\"http://www.w3.org/1999/xhtml\">Laboratory: Laboratoire Central Européenne, 1000 Brussels, Belgium</div>"
        }
      }
    }
  ],
  "type": "document",
  "timestamp": "2017-11-17T10:47:46Z"
}
