{
  "resourceType": "Bundle",
  "id": "e0310808-4bb1-45bd-8021-0123072a17fc",
  "meta": {
    "profile": [
      "http://hl7.eu/fhir/laboratory/StructureDefinition/Bundle-eu-lab"
    ]
  },
  "identifier": {
    "assigner": {
      "display": "HL7 Europe"
    },
    "system": "urn:oid:2.16.840.1.113883.2.51.999",
    "value": "ac3db534-ec58-4f45-8314-e12a199fb75a"
  },
  "entry": [
    {
      "fullUrl": "urn:uuid:806647bc-a8dc-4480-b070-7d5638094536",
      "resource": {
        "resourceType": "Composition",
        "id": "806647bc-a8dc-4480-b070-7d5638094536",
        "meta": {
          "profile": [
            "http://hl7.eu/fhir/laboratory/StructureDefinition/Composition-eu-lab"
          ]
        },
        "identifier": {
          "assigner": {
            "display": "HL7 Europe"
          },
          "system": "urn:oid:2.16.840.1.113883.2.51.999",
          "value": "66627df0-f185-41b4-91e8-7412eb673e52"
        },
        "author": [
          {
            "reference": "urn:uuid:12605989-e6bc-44c5-bb68-6cfb32ecf89b"
          }
        ],
        "category": [
          {
            "coding": [
              {
                "code": "26436-6",
                "system": "http://loinc.org",
                "display": "Laboratory studies (set)"
              }
            ]
          }
        ],
        "type": {
          "coding": [
            {
              "code": "11502-2",
              "system": "http://loinc.org",
              "display": "Laboratory report"
            }
          ],
          "text": "Laboratory Report"
        },
        "section": [
          {
            "code": {
              "coding": [
                {
                  "code": "26436-6",
                  "system": "http://loinc.org",
                  "display": "Laboratory studies (set)"
                }
              ],
              "text": "Laboratory studies"
            },
            "section": [
              {
                "code": {
                  "coding": [
                    {
                      "code": "$18719-5",
                      "system": "http://loinc.org",
                      "display": "Chemistry studies (set)"
                    }
                  ],
                  "text": "Chemistry"
                },
                "entry": [
                  {
                    "reference": "urn:uuid:de06c102-4eb9-423b-80b9-a635a4cddde0"
                  },
                  {
                    "reference": "urn:uuid:847dfe2c-6dca-47e9-90fa-ad50e4d45d44"
                  },
                  {
                    "reference": "urn:uuid:b4ba5ee6-cca8-4a9b-b70d-e31862785d73"
                  },
                  {
                    "reference": "urn:uuid:ba32afc2-3eb5-4946-af16-73aa889c2da5"
                  },
                  {
                    "reference": "urn:uuid:b3d03ac7-3509-4d55-a6d1-d9b542a6b841"
                  },
                  {
                    "reference": "urn:uuid:5100411b-fefd-4dd6-bb24-8d12d23e1e03"
                  },
                  {
                    "reference": "urn:uuid:927cb602-c860-4929-a203-25f5aada1e0f"
                  },
                  {
                    "reference": "urn:uuid:43b7e336-2fc4-424f-b419-4f8c53fc9f68"
                  },
                  {
                    "reference": "urn:uuid:0d974247-2067-48ac-b470-27ad165b6593"
                  },
                  {
                    "reference": "urn:uuid:d0fa424b-d551-40c9-b621-9a89eba314a5"
                  },
                  {
                    "reference": "urn:uuid:489e35e4-fdf8-48eb-b4eb-ccb1c22e782a"
                  },
                  {
                    "reference": "urn:uuid:c248d9f9-d52c-4a2c-b248-7bfeb932ea1d"
                  },
                  {
                    "reference": "urn:uuid:ef8bdf15-5a51-4b69-afc8-2616bcb1156a"
                  },
                  {
                    "reference": "urn:uuid:185779f6-5da7-4c2a-9118-b9506dd70e7b"
                  },
                  {
                    "reference": "urn:uuid:e57e2884-2ddd-4ceb-9645-461f7bb60aac"
                  },
                  {
                    "reference": "urn:uuid:cbc4ba4e-fabd-480d-98ba-39bd2b3aa03c"
                  },
                  {
                    "reference": "urn:uuid:dcf0dfed-1f16-43ef-9737-f4115fdef13b"
                  },
                  {
                    "reference": "urn:uuid:f5dcb0b5-3abe-4085-a180-c0b81e3f7f07"
                  }
                ],
                "text": {
                  "status": "generated",
                  "div": "<div xmlns=\"http://www.w3.org/1999/xhtml\"><h3>Chemistry</h3><table class=\"hl7__eu__lab__report\"><thead><tr><th>Test</th><th>19-APR-2024</th><th>Reference&#xA0;Range</th><th>Unit</th></tr></thead><tbody><tr><td>Glucose [Mass/volume] in Serum or Plasma</td><td>91.5</td><td>70 - 140</td><td>mg/dL</td></tr><tr><td>Urea nitrogen [Mass/volume] in Serum or Plasma</td><td>18.5</td><td>7 - 20</td><td>mg/dL</td></tr><tr><td>Creatinine [Mass/volume] in Serum or Plasma</td><td><strong>2.1 H</strong></td><td>0.9 - 1.3</td><td>mg/dL</td></tr><tr><td>Calcium [Mass/volume] in Serum or Plasma</td><td>9.7</td><td>8.5 - 10.5</td><td>mg/dL</td></tr><tr><td>Sodium [Moles/volume] in Serum or Plasma</td><td>142.1</td><td>135 - 145</td><td>mmol/L</td></tr><tr><td>Potassium [Moles/volume] in Serum or Plasma</td><td>5.0</td><td>3.5 - 5.3</td><td>mmol/L</td></tr><tr><td>Chloride [Moles/volume] in Serum or Plasma</td><td>105.3</td><td>98 - 107</td><td>mmol/L</td></tr><tr><td>Carbon dioxide, total [Moles/volume] in Serum or Plasma</td><td><strong>21.4 L</strong></td><td>22 - 33</td><td>mmol/L</td></tr><tr><td>Ketones [Presence] in Urine by Test strip</td><td>Urine ketone test = ++</td><td></td><td></td></tr><tr><td>Hemoglobin A1c/Hemoglobin.total in Blood</td><td><strong>3.0 L</strong></td><td>4.3 - 6</td><td>%</td></tr><tr><td>Glucose [Mass/volume] in Blood</td><td>91.5</td><td>70 - 140</td><td>mg/dL</td></tr><tr><td>Urea nitrogen [Mass/volume] in Blood</td><td>18.5</td><td>7 - 20</td><td>mg/dL</td></tr><tr><td>Creatinine [Mass/volume] in Blood</td><td><strong>2.7 H</strong></td><td>0.9 - 1.3</td><td>mg/dL</td></tr><tr><td>Calcium [Mass/volume] in Blood</td><td>9.7</td><td>8.5 - 10.5</td><td>mg/dL</td></tr><tr><td>Sodium [Moles/volume] in Blood</td><td>142.1</td><td>135 - 145</td><td>mmol/L</td></tr><tr><td>Potassium [Moles/volume] in Blood</td><td>5.0</td><td>3.5 - 5.1</td><td>mmol/L</td></tr><tr><td>Chloride [Moles/volume] in Blood</td><td>105.3</td><td>98 - 108</td><td>mmol/L</td></tr><tr><td>Carbon dioxide, total [Moles/volume] in Blood</td><td><strong>21.4 L</strong></td><td>22 - 29</td><td>mmol/L</td></tr></tbody></table></div>"
                },
                "title": "Chemistry"
              },
              {
                "code": {
                  "coding": [
                    {
                      "code": "$18729-4",
                      "system": "http://loinc.org",
                      "display": "Urinalysis studies (set)"
                    }
                  ],
                  "text": "Urinalysis"
                },
                "entry": [
                  {
                    "reference": "urn:uuid:4dfbd050-5571-489d-a115-49ca3566826c"
                  },
                  {
                    "reference": "urn:uuid:35c16f93-c865-494a-b576-c36c1667fd3f"
                  },
                  {
                    "reference": "urn:uuid:e61ab222-2803-4ac4-8890-025c7e1e1c13"
                  },
                  {
                    "reference": "urn:uuid:c73e6ac4-5411-4aff-b6d8-7c7ce2bcc0f6"
                  },
                  {
                    "reference": "urn:uuid:3392f368-dbe0-4b18-920d-78e4c3cc19d1"
                  },
                  {
                    "reference": "urn:uuid:7cad0c65-bb57-4350-9909-d464dd7a98ff"
                  },
                  {
                    "reference": "urn:uuid:9fff6de8-ae69-41f1-abe3-31daa34b3b76"
                  },
                  {
                    "reference": "urn:uuid:b551c63c-995c-4c70-b40c-f1ed5a134a55"
                  },
                  {
                    "reference": "urn:uuid:1498b673-59eb-4d0b-8bd1-d403b2ee66e2"
                  },
                  {
                    "reference": "urn:uuid:7e93cd35-97d5-4764-ac30-4f66fa0b400e"
                  },
                  {
                    "reference": "urn:uuid:b06dc50a-dfa7-40c9-a3c7-867d06af7167"
                  },
                  {
                    "reference": "urn:uuid:dc88b13f-db26-4cc5-a60e-1c6f595f7f90"
                  }
                ],
                "text": {
                  "status": "generated",
                  "div": "<div xmlns=\"http://www.w3.org/1999/xhtml\"><h3>Urinalysis</h3><table class=\"hl7__eu__lab__report\"><thead><tr><th>Test</th><th>19-APR-2024</th><th>Reference&#xA0;Range</th><th>Unit</th></tr></thead><tbody><tr><td>Glucose [Mass/volume] in Urine by Test strip</td><td>0.8</td><td>0 - 0.8</td><td>mg/dL</td></tr><tr><td>Glucose [Presence] in Urine by Test strip</td><td>++</td><td></td><td></td></tr><tr><td>Bilirubin.total [Mass/volume] in Urine by Test strip</td><td>1.5</td><td>0 - 1.9</td><td>mg/dL</td></tr><tr><td>Bilirubin.total [Presence] in Urine by Test strip</td><td>Finding of bilirubin in urine</td><td></td><td></td></tr><tr><td>Ketones [Mass/volume] in Urine by Test strip</td><td><strong>15.4 H</strong></td><td>0 - 3</td><td>mg/dL</td></tr><tr><td>Specific gravity of Urine by Test strip</td><td><strong>1.0 L</strong></td><td>1.01 - 1.03</td><td>{nominal}</td></tr><tr><td>pH of Urine by Test strip</td><td>5.4</td><td>4.5 - 7.5</td><td>pH</td></tr><tr><td>Protein [Mass/volume] in Urine by Test strip</td><td><strong>368.0 H</strong></td><td>0 - 149</td><td>mg/dL</td></tr><tr><td>Protein [Presence] in Urine by Test strip</td><td>Urine protein test = ++</td><td></td><td></td></tr><tr><td>Nitrite [Presence] in Urine by Test strip</td><td>Urine nitrite negative</td><td></td><td></td></tr><tr><td>Hemoglobin [Presence] in Urine by Test strip</td><td>Urine blood test = negative</td><td></td><td></td></tr><tr><td>Leukocyte esterase [Presence] in Urine by Test strip</td><td>Urine leukocyte test negative</td><td></td><td></td></tr></tbody></table></div>"
                },
                "title": "Urinalysis"
              },
              {
                "code": {
                  "coding": [
                    {
                      "code": "$LP7846-1",
                      "system": "http://loinc.org",
                      "display": "Specimen information"
                    }
                  ],
                  "text": "Specimen information"
                },
                "entry": [
                  {
                    "reference": "urn:uuid:ef329148-2dff-4e7e-a940-84ead453d66b"
                  },
                  {
                    "reference": "urn:uuid:bf516336-16bd-4c5a-b087-86b16cf3b215"
                  },
                  {
                    "reference": "urn:uuid:30a9b2a1-76e7-4978-adf5-3bdaeb65a947"
                  },
                  {
                    "reference": "urn:uuid:d51f9dc1-e7bb-4e4a-9bdc-268bfe922f81"
                  }
                ],
                "text": {
                  "status": "generated",
                  "div": "<div xmlns=\"http://www.w3.org/1999/xhtml\"><h3>Specimen information</h3><table class=\"hl7__eu__lab__report\"><thead><tr><th>Test</th><th>19-APR-2024</th><th>Specimen</th><th></th></tr></thead><tbody><tr><td>Appearance of Urine</td><td>Cloudy urine</td><td>Urine</td><td></td></tr><tr><td>Odor of Urine</td><td>Urine smell ammoniacal</td><td>Urine</td><td></td></tr><tr><td>Clarity of Urine</td><td>Translucent</td><td>Urine</td><td></td></tr><tr><td>Color of Urine</td><td>Brown color</td><td>Urine</td><td></td></tr></tbody></table></div>"
                },
                "title": "Specimen information"
              }
            ],
            "title": "Laboratory Report"
          },
          {
            "text": {
              "status": "generated",
              "div": "<div xmlns=\"http://www.w3.org/1999/xhtml\"><h3>Annotation</h3><table class=\"hl7__eu__lab__report\"><tr><th>Conclusion and Recommendations based on this report and previous findings known to us</th></tr><tr><td>The patient shows elevated creatinine, low total CO₂, and significant proteinuria, suggesting impaired renal function with possible metabolic acidosis. Urine findings (cloudy, brown, low specific gravity, ketonuria, proteinuria, glucosuria) indicate possible renal tubular dysfunction or acute kidney injury. Low HbA1c with normal glucose may reflect recent changes or anemia. Recommend urgent clinical correlation and nephrology evaluation.</td></tr></table></div>"
            },
            "code": {
              "coding": [
                {
                  "system": "http://loinc.org",
                  "code": "48767-8",
                  "display": "Annotation comment"
                }
              ]
            },
            "title": "Annotation comment"
          }
        ],
        "status": "final",
        "subject": {
          "reference": "urn:uuid:7d89cc77-385d-487d-b6e6-d73121754b39",
          "display": "Victor Lagarde"
        },
        "date": "2024-04-19T06:48:18Z",
        "title": "Laboratory Report",
        "confidentiality": "N"
      }
    },
    {
      "fullUrl": "urn:uuid:1335b6a8-a27a-4c21-bb88-17955ee06f8c",
      "resource": {
        "resourceType": "DiagnosticReport",
        "id": "1335b6a8-a27a-4c21-bb88-17955ee06f8c",
        "meta": {
          "profile": [
            "http://hl7.eu/fhir/laboratory/StructureDefinition/DiagnosticReport-eu-lab"
          ]
        },
        "identifier": [
          {
            "assigner": {
              "display": "HL7 Europe"
            },
            "system": "urn:oid:2.16.840.1.113883.2.51.999",
            "value": "241482c7-e4c7-447a-a21c-d4fabe31206d"
          }
        ],
        "extension": [
          {
            "url": "http://hl7.org/fhir/5.0/StructureDefinition/extension-DiagnosticReport.composition",
            "valueReference": {
              "reference": "urn:uuid:66627df0-f185-41b4-91e8-7412eb673e52"
            }
          }
        ],
        "category": [
          {
            "coding": [
              {
                "code": "26436-6",
                "system": "http://loinc.org",
                "display": "Laboratory studies (set)"
              }
            ]
          }
        ],
        "specimen": [
          {
            "reference": "urn:uuid:37cf780b-e6d8-4ad8-a4f4-1a0503dd0873"
          },
          {
            "reference": "urn:uuid:7944737e-11cd-40be-998c-8933d282ced1"
          },
          {
            "reference": "urn:uuid:9a2943d4-2a3f-4d37-9db0-fc1741f5c234"
          }
        ],
        "result": [
          {
            "reference": "urn:uuid:de06c102-4eb9-423b-80b9-a635a4cddde0"
          },
          {
            "reference": "urn:uuid:847dfe2c-6dca-47e9-90fa-ad50e4d45d44"
          },
          {
            "reference": "urn:uuid:b4ba5ee6-cca8-4a9b-b70d-e31862785d73"
          },
          {
            "reference": "urn:uuid:ba32afc2-3eb5-4946-af16-73aa889c2da5"
          },
          {
            "reference": "urn:uuid:b3d03ac7-3509-4d55-a6d1-d9b542a6b841"
          },
          {
            "reference": "urn:uuid:5100411b-fefd-4dd6-bb24-8d12d23e1e03"
          },
          {
            "reference": "urn:uuid:927cb602-c860-4929-a203-25f5aada1e0f"
          },
          {
            "reference": "urn:uuid:43b7e336-2fc4-424f-b419-4f8c53fc9f68"
          },
          {
            "reference": "urn:uuid:ef329148-2dff-4e7e-a940-84ead453d66b"
          },
          {
            "reference": "urn:uuid:bf516336-16bd-4c5a-b087-86b16cf3b215"
          },
          {
            "reference": "urn:uuid:30a9b2a1-76e7-4978-adf5-3bdaeb65a947"
          },
          {
            "reference": "urn:uuid:d51f9dc1-e7bb-4e4a-9bdc-268bfe922f81"
          },
          {
            "reference": "urn:uuid:4dfbd050-5571-489d-a115-49ca3566826c"
          },
          {
            "reference": "urn:uuid:35c16f93-c865-494a-b576-c36c1667fd3f"
          },
          {
            "reference": "urn:uuid:e61ab222-2803-4ac4-8890-025c7e1e1c13"
          },
          {
            "reference": "urn:uuid:c73e6ac4-5411-4aff-b6d8-7c7ce2bcc0f6"
          },
          {
            "reference": "urn:uuid:3392f368-dbe0-4b18-920d-78e4c3cc19d1"
          },
          {
            "reference": "urn:uuid:0d974247-2067-48ac-b470-27ad165b6593"
          },
          {
            "reference": "urn:uuid:7cad0c65-bb57-4350-9909-d464dd7a98ff"
          },
          {
            "reference": "urn:uuid:9fff6de8-ae69-41f1-abe3-31daa34b3b76"
          },
          {
            "reference": "urn:uuid:b551c63c-995c-4c70-b40c-f1ed5a134a55"
          },
          {
            "reference": "urn:uuid:1498b673-59eb-4d0b-8bd1-d403b2ee66e2"
          },
          {
            "reference": "urn:uuid:7e93cd35-97d5-4764-ac30-4f66fa0b400e"
          },
          {
            "reference": "urn:uuid:b06dc50a-dfa7-40c9-a3c7-867d06af7167"
          },
          {
            "reference": "urn:uuid:dc88b13f-db26-4cc5-a60e-1c6f595f7f90"
          },
          {
            "reference": "urn:uuid:d0fa424b-d551-40c9-b621-9a89eba314a5"
          },
          {
            "reference": "urn:uuid:489e35e4-fdf8-48eb-b4eb-ccb1c22e782a"
          },
          {
            "reference": "urn:uuid:c248d9f9-d52c-4a2c-b248-7bfeb932ea1d"
          },
          {
            "reference": "urn:uuid:ef8bdf15-5a51-4b69-afc8-2616bcb1156a"
          },
          {
            "reference": "urn:uuid:185779f6-5da7-4c2a-9118-b9506dd70e7b"
          },
          {
            "reference": "urn:uuid:e57e2884-2ddd-4ceb-9645-461f7bb60aac"
          },
          {
            "reference": "urn:uuid:cbc4ba4e-fabd-480d-98ba-39bd2b3aa03c"
          },
          {
            "reference": "urn:uuid:dcf0dfed-1f16-43ef-9737-f4115fdef13b"
          },
          {
            "reference": "urn:uuid:f5dcb0b5-3abe-4085-a180-c0b81e3f7f07"
          }
        ],
        "status": "registered",
        "code": {
          "coding": [
            {
              "code": "11502-2",
              "system": "http://loinc.org",
              "display": "Laboratory report"
            }
          ]
        },
        "subject": {
          "reference": "urn:uuid:7d89cc77-385d-487d-b6e6-d73121754b39",
          "display": "Victor Lagarde"
        }
      }
    },
    {
      "fullUrl": "urn:uuid:7d89cc77-385d-487d-b6e6-d73121754b39",
      "resource": {
        "resourceType": "Patient",
        "id": "7d89cc77-385d-487d-b6e6-d73121754b39",
        "meta": {
          "security": [
            {
              "system": "http://terminology.hl7.org/CodeSystem/v3-ActReason",
              "code": "HTEST"
            },
            {
              "system": "http://terminology.hl7.org/CodeSystem/v3-ActReason",
              "code": "TRAIN"
            }
          ],
          "tag": [
            {
              "system": "https://synderai.net/fhir/CodeSystem/tags",
              "code": "synthetic",
              "display": "SYNDERAI Synthetic data"
            }
          ],
          "profile": [
            "http://hl7.eu/fhir/base/StructureDefinition/patient-eu-core"
          ]
        },
        "identifier": [
          {
            "type": {
              "coding": [
                {
                  "code": "PT",
                  "system": "http://terminology.hl7.org/CodeSystem/v2-0203"
                }
              ]
            },
            "system": "http://ec.europa.eu/identifier/eci",
            "value": "9925-001801-9"
          },
          {
            "type": {
              "coding": [
                {
                  "code": "MR",
                  "system": "http://terminology.hl7.org/CodeSystem/v2-0203"
                }
              ]
            },
            "system": "http://local.setting.eu/identifier",
            "value": "22c2dfd0-ac57-8833-2532-848f180896a4"
          }
        ],
        "name": [
          {
            "family": "Lagarde"
          },
          {
            "given": [
              "Victor"
            ]
          },
          {
            "text": "Victor Lagarde"
          }
        ],
        "address": [
          {
            "line": [
              "avenue Robert"
            ],
            "use": "home",
            "type": "physical",
            "postalCode": "80300",
            "city": "Albert",
            "country": "France"
          }
        ],
        "telecom": [
          {
            "system": "phone",
            "value": "0177941801"
          }
        ],
        "extension": [
          {
            "url": "http://hl7.org/fhir/StructureDefinition/patient-nationality",
            "valueCodeableConcept": {
              "coding": [
                {
                  "code": "FR",
                  "system": "http://hl7.org/fhir/ValueSet/country"
                }
              ]
            }
          }
        ],
        "text": {
          "status": "generated",
          "div": "<div xmlns=\"http://www.w3.org/1999/xhtml\"><table class=\"hl7__ips\"><tr><td>Victor Lagarde</td><td>male</td><td>31-Aug-1939</td></tr></table></div>"
        },
        "gender": "male",
        "birthDate": "1939-08-31"
      }
    },
    {
      "fullUrl": "urn:uuid:63df3d50-23f5-43b9-a495-406fdd126861",
      "resource": {
        "resourceType": "ServiceRequest",
        "id": "63df3d50-23f5-43b9-a495-406fdd126861",
        "meta": {
          "profile": [
            "http://hl7.eu/fhir/laboratory/StructureDefinition/ServiceRequest-eu-lab"
          ]
        },
        "identifier": [
          {
            "system": "http://example.org",
            "value": "4895d172-5ada-4600-8b85-05284ad20880"
          }
        ],
        "specimen": [
          {
            "reference": "urn:uuid:37cf780b-e6d8-4ad8-a4f4-1a0503dd0873"
          },
          {
            "reference": "urn:uuid:7944737e-11cd-40be-998c-8933d282ced1"
          },
          {
            "reference": "urn:uuid:9a2943d4-2a3f-4d37-9db0-fc1741f5c234"
          }
        ],
        "reasonCode": [
          {
            "coding": [
              {
                "code": "433144002",
                "system": "http://snomed.info/sct",
                "display": "Chronic kidney disease stage 3"
              }
            ]
          },
          {
            "coding": [
              {
                "code": "157141000119108",
                "system": "http://snomed.info/sct",
                "display": "Proteinuria due to type 2 diabetes mellitus"
              }
            ]
          },
          {
            "coding": [
              {
                "code": "431856006",
                "system": "http://snomed.info/sct",
                "display": "Chronic kidney disease stage 2"
              }
            ]
          },
          {
            "coding": [
              {
                "code": "90781000119102",
                "system": "http://snomed.info/sct",
                "display": "Microalbuminuria due to type 2 diabetes mellitus"
              }
            ]
          },
          {
            "coding": [
              {
                "code": "127013003",
                "system": "http://snomed.info/sct",
                "display": "Disorder of kidney due to diabetes mellitus"
              }
            ]
          },
          {
            "coding": [
              {
                "code": "431855005",
                "system": "http://snomed.info/sct",
                "display": "Chronic kidney disease stage 1"
              }
            ]
          },
          {
            "coding": [
              {
                "code": "55822004",
                "system": "http://snomed.info/sct",
                "display": "Hyperlipidemia"
              }
            ]
          },
          {
            "coding": [
              {
                "code": "59621000",
                "system": "http://snomed.info/sct",
                "display": "Essential hypertension"
              }
            ]
          },
          {
            "coding": [
              {
                "code": "237602007",
                "system": "http://snomed.info/sct",
                "display": "Metabolic syndrome X"
              }
            ]
          },
          {
            "coding": [
              {
                "code": "414545008",
                "system": "http://snomed.info/sct",
                "display": "Ischemic heart disease"
              }
            ]
          },
          {
            "coding": [
              {
                "code": "40055000",
                "system": "http://snomed.info/sct",
                "display": "Chronic sinusitis"
              }
            ]
          },
          {
            "coding": [
              {
                "code": "15777000",
                "system": "http://snomed.info/sct",
                "display": "Prediabetes"
              }
            ]
          },
          {
            "coding": [
              {
                "code": "271737000",
                "system": "http://snomed.info/sct",
                "display": "Anemia"
              }
            ]
          }
        ],
        "status": "active",
        "intent": "order",
        "code": {
          "coding": [
            {
              "code": "108252007",
              "system": "http://snomed.info/sct",
              "display": "Laboratory procedure"
            }
          ]
        },
        "subject": {
          "reference": "urn:uuid:7d89cc77-385d-487d-b6e6-d73121754b39",
          "display": "Victor Lagarde"
        },
        "requester": {
          "reference": "urn:uuid:59e0ab49-1087-44df-986e-8d587ce31154"
        }
      }
    },
    {
      "fullUrl": "urn:uuid:59e0ab49-1087-44df-986e-8d587ce31154",
      "resource": {
        "resourceType": "PractitionerRole",
        "id": "59e0ab49-1087-44df-986e-8d587ce31154",
        "meta": {
          "profile": [
            "http://hl7.eu/fhir/base/StructureDefinition/practitionerRole-eu"
          ]
        },
        "text": {
          "status": "generated",
          "div": "<div xmlns=\"http://www.w3.org/1999/xhtml\">Provider Role Id: 59e0ab49-1087-44df-986e-8d587ce31154</div>"
        },
        "organization": {
          "reference": "urn:uuid:670ced54-7fba-42a2-8fe5-ea678b91fce2"
        }
      }
    },
    {
      "fullUrl": "urn:uuid:670ced54-7fba-42a2-8fe5-ea678b91fce2",
      "resource": {
        "resourceType": "Organization",
        "id": "670ced54-7fba-42a2-8fe5-ea678b91fce2",
        "meta": {
          "profile": [
            "http://hl7.eu/fhir/base/StructureDefinition/organization-eu"
          ]
        },
        "identifier": [
          {
            "assigner": {
              "display": "HL7 Europe"
            },
            "system": "urn:oid:2.16.840.1.113883.2.51.999",
            "value": "10170707-4867-4987-8d16-3e36ed4ef7ea"
          }
        ],
        "address": [
          {
            "city": "Auxerre",
            "postalCode": "89000",
            "country": "France"
          }
        ],
        "text": {
          "status": "generated",
          "div": "<div xmlns=\"http://www.w3.org/1999/xhtml\">Provider Organization: Thiriot Didier (Cardiologie)</div>"
        },
        "name": "Thiriot Didier (Cardiologie)"
      }
    },
    {
      "fullUrl": "urn:uuid:37cf780b-e6d8-4ad8-a4f4-1a0503dd0873",
      "resource": {
        "resourceType": "Specimen",
        "id": "37cf780b-e6d8-4ad8-a4f4-1a0503dd0873",
        "meta": {
          "profile": [
            "http://hl7.eu/fhir/laboratory/StructureDefinition/Specimen-eu-lab"
          ]
        },
        "collection": {
          "collectedDateTime": "2024-04-19"
        },
        "text": {
          "status": "generated",
          "div": "<div xmlns=\"http://www.w3.org/1999/xhtml\"><table class=\"hl7__eu__lab__report\"><tr><th>Specimen</th><th>Collection Date</th></tr><tr><td>Acellular blood (serum or plasma) specimen</td><td><span class=\"nb\">19-Apr-2024</span></td></tr></table></div>"
        },
        "type": {
          "coding": [
            {
              "code": "122592007",
              "system": "http://snomed.info/sct",
              "display": "Acellular blood (serum or plasma) specimen"
            }
          ]
        }
      }
    },
    {
      "fullUrl": "urn:uuid:7944737e-11cd-40be-998c-8933d282ced1",
      "resource": {
        "resourceType": "Specimen",
        "id": "7944737e-11cd-40be-998c-8933d282ced1",
        "meta": {
          "profile": [
            "http://hl7.eu/fhir/laboratory/StructureDefinition/Specimen-eu-lab"
          ]
        },
        "collection": {
          "collectedDateTime": "2024-04-19"
        },
        "text": {
          "status": "generated",
          "div": "<div xmlns=\"http://www.w3.org/1999/xhtml\"><table class=\"hl7__eu__lab__report\"><tr><th>Specimen</th><th>Collection Date</th></tr><tr><td>Urine specimen</td><td><span class=\"nb\">19-Apr-2024</span></td></tr></table></div>"
        },
        "type": {
          "coding": [
            {
              "code": "122575003",
              "system": "http://snomed.info/sct",
              "display": "Urine specimen"
            }
          ]
        }
      }
    },
    {
      "fullUrl": "urn:uuid:9a2943d4-2a3f-4d37-9db0-fc1741f5c234",
      "resource": {
        "resourceType": "Specimen",
        "id": "9a2943d4-2a3f-4d37-9db0-fc1741f5c234",
        "meta": {
          "profile": [
            "http://hl7.eu/fhir/laboratory/StructureDefinition/Specimen-eu-lab"
          ]
        },
        "collection": {
          "collectedDateTime": "2024-04-19"
        },
        "text": {
          "status": "generated",
          "div": "<div xmlns=\"http://www.w3.org/1999/xhtml\"><table class=\"hl7__eu__lab__report\"><tr><th>Specimen</th><th>Collection Date</th></tr><tr><td>Whole blood specimen (specimen)</td><td><span class=\"nb\">19-Apr-2024</span></td></tr></table></div>"
        },
        "type": {
          "coding": [
            {
              "code": "258580003",
              "system": "http://snomed.info/sct",
              "display": "Whole blood specimen (specimen)"
            }
          ]
        }
      }
    },
    {
      "fullUrl": "urn:uuid:de06c102-4eb9-423b-80b9-a635a4cddde0",
      "resource": {
        "resourceType": "Observation",
        "id": "de06c102-4eb9-423b-80b9-a635a4cddde0",
        "meta": {
          "profile": [
            "http://hl7.eu/fhir/laboratory/StructureDefinition/Observation-resultslab-eu-lab"
          ]
        },
        "performer": [
          {
            "display": "The Central European Lab"
          }
        ],
        "category": [
          {
            "coding": [
              {
                "system": "http://terminology.hl7.org/CodeSystem/observation-category",
                "code": "laboratory"
              }
            ]
          }
        ],
        "code": {
          "coding": [
            {
              "code": "2345-7",
              "system": "http://loinc.org",
              "display": "Glucose [Mass/volume] in Serum or Plasma"
            }
          ],
          "text": "Glucose [Mass/volume] in Serum or Plasma"
        },
        "valueQuantity": {
          "system": "http://unitsofmeasure.org",
          "value": 91.5,
          "unit": "mg/dL",
          "code": "mg/dL"
        },
        "referenceRange": [
          {
            "low": {
              "value": 70,
              "code": "mg/dL",
              "system": "http://unitsofmeasure.org"
            }
          },
          {
            "high": {
              "value": 140,
              "code": "mg/dL",
              "system": "http://unitsofmeasure.org"
            }
          }
        ],
        "text": {
          "status": "generated",
          "div": "<div xmlns=\"http://www.w3.org/1999/xhtml\"><table class=\"hl7__eu__lab__report\"><tr><th>Test</th><th>19-Apr-2024</th><th>Reference&#xA0;Range</th><th>Unit</th></tr><tr><td>Glucose [Mass/volume] in Serum or Plasma</td><td>91.5</td><td>70 - 140</td><td></td><td>mg/dL</td></tr></table></div>"
        },
        "status": "final",
        "subject": {
          "reference": "urn:uuid:7d89cc77-385d-487d-b6e6-d73121754b39",
          "display": "Victor Lagarde"
        },
        "effectiveDateTime": "2024-04-19T04:48:18Z",
        "specimen": {
          "reference": "urn:uuid:37cf780b-e6d8-4ad8-a4f4-1a0503dd0873"
        }
      }
    },
    {
      "fullUrl": "urn:uuid:847dfe2c-6dca-47e9-90fa-ad50e4d45d44",
      "resource": {
        "resourceType": "Observation",
        "id": "847dfe2c-6dca-47e9-90fa-ad50e4d45d44",
        "meta": {
          "profile": [
            "http://hl7.eu/fhir/laboratory/StructureDefinition/Observation-resultslab-eu-lab"
          ]
        },
        "performer": [
          {
            "display": "The Central European Lab"
          }
        ],
        "category": [
          {
            "coding": [
              {
                "system": "http://terminology.hl7.org/CodeSystem/observation-category",
                "code": "laboratory"
              }
            ]
          }
        ],
        "code": {
          "coding": [
            {
              "code": "3094-0",
              "system": "http://loinc.org",
              "display": "Urea nitrogen [Mass/volume] in Serum or Plasma"
            }
          ],
          "text": "Urea nitrogen [Mass/volume] in Serum or Plasma"
        },
        "valueQuantity": {
          "system": "http://unitsofmeasure.org",
          "value": 18.5,
          "unit": "mg/dL",
          "code": "mg/dL"
        },
        "referenceRange": [
          {
            "low": {
              "value": 7,
              "code": "mg/dL",
              "system": "http://unitsofmeasure.org"
            }
          },
          {
            "high": {
              "value": 20,
              "code": "mg/dL",
              "system": "http://unitsofmeasure.org"
            }
          }
        ],
        "text": {
          "status": "generated",
          "div": "<div xmlns=\"http://www.w3.org/1999/xhtml\"><table class=\"hl7__eu__lab__report\"><tr><th>Test</th><th>19-Apr-2024</th><th>Reference&#xA0;Range</th><th>Unit</th></tr><tr><td>Urea nitrogen [Mass/volume] in Serum or Plasma</td><td>18.5</td><td>7 - 20</td><td></td><td>mg/dL</td></tr></table></div>"
        },
        "status": "final",
        "subject": {
          "reference": "urn:uuid:7d89cc77-385d-487d-b6e6-d73121754b39",
          "display": "Victor Lagarde"
        },
        "effectiveDateTime": "2024-04-19T04:48:18Z",
        "specimen": {
          "reference": "urn:uuid:37cf780b-e6d8-4ad8-a4f4-1a0503dd0873"
        }
      }
    },
    {
      "fullUrl": "urn:uuid:b4ba5ee6-cca8-4a9b-b70d-e31862785d73",
      "resource": {
        "resourceType": "Observation",
        "id": "b4ba5ee6-cca8-4a9b-b70d-e31862785d73",
        "meta": {
          "profile": [
            "http://hl7.eu/fhir/laboratory/StructureDefinition/Observation-resultslab-eu-lab"
          ]
        },
        "performer": [
          {
            "display": "The Central European Lab"
          }
        ],
        "category": [
          {
            "coding": [
              {
                "system": "http://terminology.hl7.org/CodeSystem/observation-category",
                "code": "laboratory"
              }
            ]
          }
        ],
        "code": {
          "coding": [
            {
              "code": "2160-0",
              "system": "http://loinc.org",
              "display": "Creatinine [Mass/volume] in Serum or Plasma"
            }
          ],
          "text": "Creatinine [Mass/volume] in Serum or Plasma"
        },
        "valueQuantity": {
          "system": "http://unitsofmeasure.org",
          "value": 2.1,
          "unit": "mg/dL",
          "code": "mg/dL"
        },
        "referenceRange": [
          {
            "low": {
              "value": 0.9,
              "code": "mg/dL",
              "system": "http://unitsofmeasure.org"
            }
          },
          {
            "high": {
              "value": 1.3,
              "code": "mg/dL",
              "system": "http://unitsofmeasure.org"
            }
          }
        ],
        "interpretation": [
          {
            "coding": [
              {
                "code": "H",
                "system": "http://terminology.hl7.org/CodeSystem/v3-ObservationInterpretation",
                "display": "High"
              }
            ]
          }
        ],
        "text": {
          "status": "generated",
          "div": "<div xmlns=\"http://www.w3.org/1999/xhtml\"><table class=\"hl7__eu__lab__report\"><tr><th>Test</th><th>19-Apr-2024</th><th>Reference&#xA0;Range</th><th>Unit</th></tr><tr><td>Creatinine [Mass/volume] in Serum or Plasma</td><td>2.1</td><td>0.9 - 1.3</td><td>H</td><td>mg/dL</td></tr></table></div>"
        },
        "status": "final",
        "subject": {
          "reference": "urn:uuid:7d89cc77-385d-487d-b6e6-d73121754b39",
          "display": "Victor Lagarde"
        },
        "effectiveDateTime": "2024-04-19T04:48:18Z",
        "specimen": {
          "reference": "urn:uuid:37cf780b-e6d8-4ad8-a4f4-1a0503dd0873"
        }
      }
    },
    {
      "fullUrl": "urn:uuid:ba32afc2-3eb5-4946-af16-73aa889c2da5",
      "resource": {
        "resourceType": "Observation",
        "id": "ba32afc2-3eb5-4946-af16-73aa889c2da5",
        "meta": {
          "profile": [
            "http://hl7.eu/fhir/laboratory/StructureDefinition/Observation-resultslab-eu-lab"
          ]
        },
        "performer": [
          {
            "display": "The Central European Lab"
          }
        ],
        "category": [
          {
            "coding": [
              {
                "system": "http://terminology.hl7.org/CodeSystem/observation-category",
                "code": "laboratory"
              }
            ]
          }
        ],
        "code": {
          "coding": [
            {
              "code": "17861-6",
              "system": "http://loinc.org",
              "display": "Calcium [Mass/volume] in Serum or Plasma"
            }
          ],
          "text": "Calcium [Mass/volume] in Serum or Plasma"
        },
        "valueQuantity": {
          "system": "http://unitsofmeasure.org",
          "value": 9.7,
          "unit": "mg/dL",
          "code": "mg/dL"
        },
        "referenceRange": [
          {
            "low": {
              "value": 8.5,
              "code": "mg/dL",
              "system": "http://unitsofmeasure.org"
            }
          },
          {
            "high": {
              "value": 10.5,
              "code": "mg/dL",
              "system": "http://unitsofmeasure.org"
            }
          }
        ],
        "text": {
          "status": "generated",
          "div": "<div xmlns=\"http://www.w3.org/1999/xhtml\"><table class=\"hl7__eu__lab__report\"><tr><th>Test</th><th>19-Apr-2024</th><th>Reference&#xA0;Range</th><th>Unit</th></tr><tr><td>Calcium [Mass/volume] in Serum or Plasma</td><td>9.7</td><td>8.5 - 10.5</td><td></td><td>mg/dL</td></tr></table></div>"
        },
        "status": "final",
        "subject": {
          "reference": "urn:uuid:7d89cc77-385d-487d-b6e6-d73121754b39",
          "display": "Victor Lagarde"
        },
        "effectiveDateTime": "2024-04-19T04:48:18Z",
        "specimen": {
          "reference": "urn:uuid:37cf780b-e6d8-4ad8-a4f4-1a0503dd0873"
        }
      }
    },
    {
      "fullUrl": "urn:uuid:b3d03ac7-3509-4d55-a6d1-d9b542a6b841",
      "resource": {
        "resourceType": "Observation",
        "id": "b3d03ac7-3509-4d55-a6d1-d9b542a6b841",
        "meta": {
          "profile": [
            "http://hl7.eu/fhir/laboratory/StructureDefinition/Observation-resultslab-eu-lab"
          ]
        },
        "performer": [
          {
            "display": "The Central European Lab"
          }
        ],
        "category": [
          {
            "coding": [
              {
                "system": "http://terminology.hl7.org/CodeSystem/observation-category",
                "code": "laboratory"
              }
            ]
          }
        ],
        "code": {
          "coding": [
            {
              "code": "2951-2",
              "system": "http://loinc.org",
              "display": "Sodium [Moles/volume] in Serum or Plasma"
            }
          ],
          "text": "Sodium [Moles/volume] in Serum or Plasma"
        },
        "valueQuantity": {
          "system": "http://unitsofmeasure.org",
          "value": 142.1,
          "unit": "mmol/L",
          "code": "mmol/L"
        },
        "referenceRange": [
          {
            "low": {
              "value": 135,
              "code": "mmol/L",
              "system": "http://unitsofmeasure.org"
            }
          },
          {
            "high": {
              "value": 145,
              "code": "mmol/L",
              "system": "http://unitsofmeasure.org"
            }
          }
        ],
        "text": {
          "status": "generated",
          "div": "<div xmlns=\"http://www.w3.org/1999/xhtml\"><table class=\"hl7__eu__lab__report\"><tr><th>Test</th><th>19-Apr-2024</th><th>Reference&#xA0;Range</th><th>Unit</th></tr><tr><td>Sodium [Moles/volume] in Serum or Plasma</td><td>142.1</td><td>135 - 145</td><td></td><td>mmol/L</td></tr></table></div>"
        },
        "status": "final",
        "subject": {
          "reference": "urn:uuid:7d89cc77-385d-487d-b6e6-d73121754b39",
          "display": "Victor Lagarde"
        },
        "effectiveDateTime": "2024-04-19T04:48:18Z",
        "specimen": {
          "reference": "urn:uuid:37cf780b-e6d8-4ad8-a4f4-1a0503dd0873"
        }
      }
    },
    {
      "fullUrl": "urn:uuid:5100411b-fefd-4dd6-bb24-8d12d23e1e03",
      "resource": {
        "resourceType": "Observation",
        "id": "5100411b-fefd-4dd6-bb24-8d12d23e1e03",
        "meta": {
          "profile": [
            "http://hl7.eu/fhir/laboratory/StructureDefinition/Observation-resultslab-eu-lab"
          ]
        },
        "performer": [
          {
            "display": "The Central European Lab"
          }
        ],
        "category": [
          {
            "coding": [
              {
                "system": "http://terminology.hl7.org/CodeSystem/observation-category",
                "code": "laboratory"
              }
            ]
          }
        ],
        "code": {
          "coding": [
            {
              "code": "2823-3",
              "system": "http://loinc.org",
              "display": "Potassium [Moles/volume] in Serum or Plasma"
            }
          ],
          "text": "Potassium [Moles/volume] in Serum or Plasma"
        },
        "valueQuantity": {
          "system": "http://unitsofmeasure.org",
          "value": 5,
          "unit": "mmol/L",
          "code": "mmol/L"
        },
        "referenceRange": [
          {
            "low": {
              "value": 3.5,
              "code": "mmol/L",
              "system": "http://unitsofmeasure.org"
            }
          },
          {
            "high": {
              "value": 5.3,
              "code": "mmol/L",
              "system": "http://unitsofmeasure.org"
            }
          }
        ],
        "text": {
          "status": "generated",
          "div": "<div xmlns=\"http://www.w3.org/1999/xhtml\"><table class=\"hl7__eu__lab__report\"><tr><th>Test</th><th>19-Apr-2024</th><th>Reference&#xA0;Range</th><th>Unit</th></tr><tr><td>Potassium [Moles/volume] in Serum or Plasma</td><td>5.0</td><td>3.5 - 5.3</td><td></td><td>mmol/L</td></tr></table></div>"
        },
        "status": "final",
        "subject": {
          "reference": "urn:uuid:7d89cc77-385d-487d-b6e6-d73121754b39",
          "display": "Victor Lagarde"
        },
        "effectiveDateTime": "2024-04-19T04:48:18Z",
        "specimen": {
          "reference": "urn:uuid:37cf780b-e6d8-4ad8-a4f4-1a0503dd0873"
        }
      }
    },
    {
      "fullUrl": "urn:uuid:927cb602-c860-4929-a203-25f5aada1e0f",
      "resource": {
        "resourceType": "Observation",
        "id": "927cb602-c860-4929-a203-25f5aada1e0f",
        "meta": {
          "profile": [
            "http://hl7.eu/fhir/laboratory/StructureDefinition/Observation-resultslab-eu-lab"
          ]
        },
        "performer": [
          {
            "display": "The Central European Lab"
          }
        ],
        "category": [
          {
            "coding": [
              {
                "system": "http://terminology.hl7.org/CodeSystem/observation-category",
                "code": "laboratory"
              }
            ]
          }
        ],
        "code": {
          "coding": [
            {
              "code": "2075-0",
              "system": "http://loinc.org",
              "display": "Chloride [Moles/volume] in Serum or Plasma"
            }
          ],
          "text": "Chloride [Moles/volume] in Serum or Plasma"
        },
        "valueQuantity": {
          "system": "http://unitsofmeasure.org",
          "value": 105.3,
          "unit": "mmol/L",
          "code": "mmol/L"
        },
        "referenceRange": [
          {
            "low": {
              "value": 98,
              "code": "mmol/L",
              "system": "http://unitsofmeasure.org"
            }
          },
          {
            "high": {
              "value": 107,
              "code": "mmol/L",
              "system": "http://unitsofmeasure.org"
            }
          }
        ],
        "text": {
          "status": "generated",
          "div": "<div xmlns=\"http://www.w3.org/1999/xhtml\"><table class=\"hl7__eu__lab__report\"><tr><th>Test</th><th>19-Apr-2024</th><th>Reference&#xA0;Range</th><th>Unit</th></tr><tr><td>Chloride [Moles/volume] in Serum or Plasma</td><td>105.3</td><td>98 - 107</td><td></td><td>mmol/L</td></tr></table></div>"
        },
        "status": "final",
        "subject": {
          "reference": "urn:uuid:7d89cc77-385d-487d-b6e6-d73121754b39",
          "display": "Victor Lagarde"
        },
        "effectiveDateTime": "2024-04-19T04:48:18Z",
        "specimen": {
          "reference": "urn:uuid:37cf780b-e6d8-4ad8-a4f4-1a0503dd0873"
        }
      }
    },
    {
      "fullUrl": "urn:uuid:43b7e336-2fc4-424f-b419-4f8c53fc9f68",
      "resource": {
        "resourceType": "Observation",
        "id": "43b7e336-2fc4-424f-b419-4f8c53fc9f68",
        "meta": {
          "profile": [
            "http://hl7.eu/fhir/laboratory/StructureDefinition/Observation-resultslab-eu-lab"
          ]
        },
        "performer": [
          {
            "display": "The Central European Lab"
          }
        ],
        "category": [
          {
            "coding": [
              {
                "system": "http://terminology.hl7.org/CodeSystem/observation-category",
                "code": "laboratory"
              }
            ]
          }
        ],
        "code": {
          "coding": [
            {
              "code": "2028-9",
              "system": "http://loinc.org",
              "display": "Carbon dioxide, total [Moles/volume] in Serum or Plasma"
            }
          ],
          "text": "Carbon dioxide, total [Moles/volume] in Serum or Plasma"
        },
        "valueQuantity": {
          "system": "http://unitsofmeasure.org",
          "value": 21.4,
          "unit": "mmol/L",
          "code": "mmol/L"
        },
        "referenceRange": [
          {
            "low": {
              "value": 22,
              "code": "mmol/L",
              "system": "http://unitsofmeasure.org"
            }
          },
          {
            "high": {
              "value": 33,
              "code": "mmol/L",
              "system": "http://unitsofmeasure.org"
            }
          }
        ],
        "interpretation": [
          {
            "coding": [
              {
                "code": "L",
                "system": "http://terminology.hl7.org/CodeSystem/v3-ObservationInterpretation",
                "display": "Low"
              }
            ]
          }
        ],
        "text": {
          "status": "generated",
          "div": "<div xmlns=\"http://www.w3.org/1999/xhtml\"><table class=\"hl7__eu__lab__report\"><tr><th>Test</th><th>19-Apr-2024</th><th>Reference&#xA0;Range</th><th>Unit</th></tr><tr><td>Carbon dioxide, total [Moles/volume] in Serum or Plasma</td><td>21.4</td><td>22 - 33</td><td>L</td><td>mmol/L</td></tr></table></div>"
        },
        "status": "final",
        "subject": {
          "reference": "urn:uuid:7d89cc77-385d-487d-b6e6-d73121754b39",
          "display": "Victor Lagarde"
        },
        "effectiveDateTime": "2024-04-19T04:48:18Z",
        "specimen": {
          "reference": "urn:uuid:37cf780b-e6d8-4ad8-a4f4-1a0503dd0873"
        }
      }
    },
    {
      "fullUrl": "urn:uuid:ef329148-2dff-4e7e-a940-84ead453d66b",
      "resource": {
        "resourceType": "Observation",
        "id": "ef329148-2dff-4e7e-a940-84ead453d66b",
        "meta": {
          "profile": [
            "http://hl7.eu/fhir/laboratory/StructureDefinition/Observation-resultslab-eu-lab"
          ]
        },
        "performer": [
          {
            "display": "The Central European Lab"
          }
        ],
        "category": [
          {
            "coding": [
              {
                "system": "http://terminology.hl7.org/CodeSystem/observation-category",
                "code": "laboratory"
              }
            ]
          }
        ],
        "code": {
          "coding": [
            {
              "code": "5767-9",
              "system": "http://loinc.org",
              "display": "Appearance of Urine"
            }
          ],
          "text": "Appearance of Urine"
        },
        "text": {
          "status": "generated",
          "div": "<div xmlns=\"http://www.w3.org/1999/xhtml\"><table class=\"hl7__eu__lab__report\"><tr><th>Test</th><th>19-Apr-2024</th><th>Reference&#xA0;Range</th><th>Unit</th></tr><tr><td>Appearance of Urine</td></tr></table></div>"
        },
        "status": "final",
        "subject": {
          "reference": "urn:uuid:7d89cc77-385d-487d-b6e6-d73121754b39",
          "display": "Victor Lagarde"
        },
        "effectiveDateTime": "2024-04-19T04:48:18Z",
        "specimen": {
          "reference": "urn:uuid:7944737e-11cd-40be-998c-8933d282ced1"
        }
      }
    },
    {
      "fullUrl": "urn:uuid:bf516336-16bd-4c5a-b087-86b16cf3b215",
      "resource": {
        "resourceType": "Observation",
        "id": "bf516336-16bd-4c5a-b087-86b16cf3b215",
        "meta": {
          "profile": [
            "http://hl7.eu/fhir/laboratory/StructureDefinition/Observation-resultslab-eu-lab"
          ]
        },
        "performer": [
          {
            "display": "The Central European Lab"
          }
        ],
        "category": [
          {
            "coding": [
              {
                "system": "http://terminology.hl7.org/CodeSystem/observation-category",
                "code": "laboratory"
              }
            ]
          }
        ],
        "code": {
          "coding": [
            {
              "code": "34533-0",
              "system": "http://loinc.org",
              "display": "Odor of Urine"
            }
          ],
          "text": "Odor of Urine"
        },
        "text": {
          "status": "generated",
          "div": "<div xmlns=\"http://www.w3.org/1999/xhtml\"><table class=\"hl7__eu__lab__report\"><tr><th>Test</th><th>19-Apr-2024</th><th>Reference&#xA0;Range</th><th>Unit</th></tr><tr><td>Odor of Urine</td></tr></table></div>"
        },
        "status": "final",
        "subject": {
          "reference": "urn:uuid:7d89cc77-385d-487d-b6e6-d73121754b39",
          "display": "Victor Lagarde"
        },
        "effectiveDateTime": "2024-04-19T04:48:18Z",
        "specimen": {
          "reference": "urn:uuid:7944737e-11cd-40be-998c-8933d282ced1"
        }
      }
    },
    {
      "fullUrl": "urn:uuid:30a9b2a1-76e7-4978-adf5-3bdaeb65a947",
      "resource": {
        "resourceType": "Observation",
        "id": "30a9b2a1-76e7-4978-adf5-3bdaeb65a947",
        "meta": {
          "profile": [
            "http://hl7.eu/fhir/laboratory/StructureDefinition/Observation-resultslab-eu-lab"
          ]
        },
        "performer": [
          {
            "display": "The Central European Lab"
          }
        ],
        "category": [
          {
            "coding": [
              {
                "system": "http://terminology.hl7.org/CodeSystem/observation-category",
                "code": "laboratory"
              }
            ]
          }
        ],
        "code": {
          "coding": [
            {
              "code": "32167-9",
              "system": "http://loinc.org",
              "display": "Clarity of Urine"
            }
          ],
          "text": "Clarity of Urine"
        },
        "text": {
          "status": "generated",
          "div": "<div xmlns=\"http://www.w3.org/1999/xhtml\"><table class=\"hl7__eu__lab__report\"><tr><th>Test</th><th>19-Apr-2024</th><th>Reference&#xA0;Range</th><th>Unit</th></tr><tr><td>Clarity of Urine</td></tr></table></div>"
        },
        "status": "final",
        "subject": {
          "reference": "urn:uuid:7d89cc77-385d-487d-b6e6-d73121754b39",
          "display": "Victor Lagarde"
        },
        "effectiveDateTime": "2024-04-19T04:48:18Z",
        "specimen": {
          "reference": "urn:uuid:7944737e-11cd-40be-998c-8933d282ced1"
        }
      }
    },
    {
      "fullUrl": "urn:uuid:d51f9dc1-e7bb-4e4a-9bdc-268bfe922f81",
      "resource": {
        "resourceType": "Observation",
        "id": "d51f9dc1-e7bb-4e4a-9bdc-268bfe922f81",
        "meta": {
          "profile": [
            "http://hl7.eu/fhir/laboratory/StructureDefinition/Observation-resultslab-eu-lab"
          ]
        },
        "performer": [
          {
            "display": "The Central European Lab"
          }
        ],
        "category": [
          {
            "coding": [
              {
                "system": "http://terminology.hl7.org/CodeSystem/observation-category",
                "code": "laboratory"
              }
            ]
          }
        ],
        "code": {
          "coding": [
            {
              "code": "5778-6",
              "system": "http://loinc.org",
              "display": "Color of Urine"
            }
          ],
          "text": "Color of Urine"
        },
        "text": {
          "status": "generated",
          "div": "<div xmlns=\"http://www.w3.org/1999/xhtml\"><table class=\"hl7__eu__lab__report\"><tr><th>Test</th><th>19-Apr-2024</th><th>Reference&#xA0;Range</th><th>Unit</th></tr><tr><td>Color of Urine</td></tr></table></div>"
        },
        "status": "final",
        "subject": {
          "reference": "urn:uuid:7d89cc77-385d-487d-b6e6-d73121754b39",
          "display": "Victor Lagarde"
        },
        "effectiveDateTime": "2024-04-19T04:48:18Z",
        "specimen": {
          "reference": "urn:uuid:7944737e-11cd-40be-998c-8933d282ced1"
        }
      }
    },
    {
      "fullUrl": "urn:uuid:4dfbd050-5571-489d-a115-49ca3566826c",
      "resource": {
        "resourceType": "Observation",
        "id": "4dfbd050-5571-489d-a115-49ca3566826c",
        "meta": {
          "profile": [
            "http://hl7.eu/fhir/laboratory/StructureDefinition/Observation-resultslab-eu-lab"
          ]
        },
        "performer": [
          {
            "display": "The Central European Lab"
          }
        ],
        "category": [
          {
            "coding": [
              {
                "system": "http://terminology.hl7.org/CodeSystem/observation-category",
                "code": "laboratory"
              }
            ]
          }
        ],
        "code": {
          "coding": [
            {
              "code": "5792-7",
              "system": "http://loinc.org",
              "display": "Glucose [Mass/volume] in Urine by Test strip"
            }
          ],
          "text": "Glucose [Mass/volume] in Urine by Test strip"
        },
        "valueQuantity": {
          "system": "http://unitsofmeasure.org",
          "value": 0.8,
          "unit": "mg/dL",
          "code": "mg/dL"
        },
        "referenceRange": [
          {
            "low": {
              "value": 0,
              "code": "mg/dL",
              "system": "http://unitsofmeasure.org"
            }
          },
          {
            "high": {
              "value": 0.8,
              "code": "mg/dL",
              "system": "http://unitsofmeasure.org"
            }
          }
        ],
        "text": {
          "status": "generated",
          "div": "<div xmlns=\"http://www.w3.org/1999/xhtml\"><table class=\"hl7__eu__lab__report\"><tr><th>Test</th><th>19-Apr-2024</th><th>Reference&#xA0;Range</th><th>Unit</th></tr><tr><td>Glucose [Mass/volume] in Urine by Test strip</td><td>0.8</td><td>0 - 0.8</td><td></td><td>mg/dL</td></tr></table></div>"
        },
        "status": "final",
        "subject": {
          "reference": "urn:uuid:7d89cc77-385d-487d-b6e6-d73121754b39",
          "display": "Victor Lagarde"
        },
        "effectiveDateTime": "2024-04-19T04:48:18Z",
        "specimen": {
          "reference": "urn:uuid:7944737e-11cd-40be-998c-8933d282ced1"
        }
      }
    },
    {
      "fullUrl": "urn:uuid:35c16f93-c865-494a-b576-c36c1667fd3f",
      "resource": {
        "resourceType": "Observation",
        "id": "35c16f93-c865-494a-b576-c36c1667fd3f",
        "meta": {
          "profile": [
            "http://hl7.eu/fhir/laboratory/StructureDefinition/Observation-resultslab-eu-lab"
          ]
        },
        "performer": [
          {
            "display": "The Central European Lab"
          }
        ],
        "category": [
          {
            "coding": [
              {
                "system": "http://terminology.hl7.org/CodeSystem/observation-category",
                "code": "laboratory"
              }
            ]
          }
        ],
        "code": {
          "coding": [
            {
              "code": "25428-4",
              "system": "http://loinc.org",
              "display": "Glucose [Presence] in Urine by Test strip"
            }
          ],
          "text": "Glucose [Presence] in Urine by Test strip"
        },
        "text": {
          "status": "generated",
          "div": "<div xmlns=\"http://www.w3.org/1999/xhtml\"><table class=\"hl7__eu__lab__report\"><tr><th>Test</th><th>19-Apr-2024</th><th>Reference&#xA0;Range</th><th>Unit</th></tr><tr><td>Glucose [Presence] in Urine by Test strip</td></tr></table></div>"
        },
        "status": "final",
        "subject": {
          "reference": "urn:uuid:7d89cc77-385d-487d-b6e6-d73121754b39",
          "display": "Victor Lagarde"
        },
        "effectiveDateTime": "2024-04-19T04:48:18Z",
        "specimen": {
          "reference": "urn:uuid:7944737e-11cd-40be-998c-8933d282ced1"
        }
      }
    },
    {
      "fullUrl": "urn:uuid:e61ab222-2803-4ac4-8890-025c7e1e1c13",
      "resource": {
        "resourceType": "Observation",
        "id": "e61ab222-2803-4ac4-8890-025c7e1e1c13",
        "meta": {
          "profile": [
            "http://hl7.eu/fhir/laboratory/StructureDefinition/Observation-resultslab-eu-lab"
          ]
        },
        "performer": [
          {
            "display": "The Central European Lab"
          }
        ],
        "category": [
          {
            "coding": [
              {
                "system": "http://terminology.hl7.org/CodeSystem/observation-category",
                "code": "laboratory"
              }
            ]
          }
        ],
        "code": {
          "coding": [
            {
              "code": "20505-4",
              "system": "http://loinc.org",
              "display": "Bilirubin.total [Mass/volume] in Urine by Test strip"
            }
          ],
          "text": "Bilirubin.total [Mass/volume] in Urine by Test strip"
        },
        "valueQuantity": {
          "system": "http://unitsofmeasure.org",
          "value": 1.5,
          "unit": "mg/dL",
          "code": "mg/dL"
        },
        "referenceRange": [
          {
            "low": {
              "value": 0,
              "code": "mg/dL",
              "system": "http://unitsofmeasure.org"
            }
          },
          {
            "high": {
              "value": 1.9,
              "code": "mg/dL",
              "system": "http://unitsofmeasure.org"
            }
          }
        ],
        "text": {
          "status": "generated",
          "div": "<div xmlns=\"http://www.w3.org/1999/xhtml\"><table class=\"hl7__eu__lab__report\"><tr><th>Test</th><th>19-Apr-2024</th><th>Reference&#xA0;Range</th><th>Unit</th></tr><tr><td>Bilirubin.total [Mass/volume] in Urine by Test strip</td><td>1.5</td><td>0 - 1.9</td><td></td><td>mg/dL</td></tr></table></div>"
        },
        "status": "final",
        "subject": {
          "reference": "urn:uuid:7d89cc77-385d-487d-b6e6-d73121754b39",
          "display": "Victor Lagarde"
        },
        "effectiveDateTime": "2024-04-19T04:48:18Z",
        "specimen": {
          "reference": "urn:uuid:7944737e-11cd-40be-998c-8933d282ced1"
        }
      }
    },
    {
      "fullUrl": "urn:uuid:c73e6ac4-5411-4aff-b6d8-7c7ce2bcc0f6",
      "resource": {
        "resourceType": "Observation",
        "id": "c73e6ac4-5411-4aff-b6d8-7c7ce2bcc0f6",
        "meta": {
          "profile": [
            "http://hl7.eu/fhir/laboratory/StructureDefinition/Observation-resultslab-eu-lab"
          ]
        },
        "performer": [
          {
            "display": "The Central European Lab"
          }
        ],
        "category": [
          {
            "coding": [
              {
                "system": "http://terminology.hl7.org/CodeSystem/observation-category",
                "code": "laboratory"
              }
            ]
          }
        ],
        "code": {
          "coding": [
            {
              "code": "5770-3",
              "system": "http://loinc.org",
              "display": "Bilirubin.total [Presence] in Urine by Test strip"
            }
          ],
          "text": "Bilirubin.total [Presence] in Urine by Test strip"
        },
        "text": {
          "status": "generated",
          "div": "<div xmlns=\"http://www.w3.org/1999/xhtml\"><table class=\"hl7__eu__lab__report\"><tr><th>Test</th><th>19-Apr-2024</th><th>Reference&#xA0;Range</th><th>Unit</th></tr><tr><td>Bilirubin.total [Presence] in Urine by Test strip</td></tr></table></div>"
        },
        "status": "final",
        "subject": {
          "reference": "urn:uuid:7d89cc77-385d-487d-b6e6-d73121754b39",
          "display": "Victor Lagarde"
        },
        "effectiveDateTime": "2024-04-19T04:48:18Z",
        "specimen": {
          "reference": "urn:uuid:7944737e-11cd-40be-998c-8933d282ced1"
        }
      }
    },
    {
      "fullUrl": "urn:uuid:3392f368-dbe0-4b18-920d-78e4c3cc19d1",
      "resource": {
        "resourceType": "Observation",
        "id": "3392f368-dbe0-4b18-920d-78e4c3cc19d1",
        "meta": {
          "profile": [
            "http://hl7.eu/fhir/laboratory/StructureDefinition/Observation-resultslab-eu-lab"
          ]
        },
        "performer": [
          {
            "display": "The Central European Lab"
          }
        ],
        "category": [
          {
            "coding": [
              {
                "system": "http://terminology.hl7.org/CodeSystem/observation-category",
                "code": "laboratory"
              }
            ]
          }
        ],
        "code": {
          "coding": [
            {
              "code": "5797-6",
              "system": "http://loinc.org",
              "display": "Ketones [Mass/volume] in Urine by Test strip"
            }
          ],
          "text": "Ketones [Mass/volume] in Urine by Test strip"
        },
        "valueQuantity": {
          "system": "http://unitsofmeasure.org",
          "value": 15.4,
          "unit": "mg/dL",
          "code": "mg/dL"
        },
        "referenceRange": [
          {
            "low": {
              "value": 0,
              "code": "mg/dL",
              "system": "http://unitsofmeasure.org"
            }
          },
          {
            "high": {
              "value": 3,
              "code": "mg/dL",
              "system": "http://unitsofmeasure.org"
            }
          }
        ],
        "interpretation": [
          {
            "coding": [
              {
                "code": "H",
                "system": "http://terminology.hl7.org/CodeSystem/v3-ObservationInterpretation",
                "display": "High"
              }
            ]
          }
        ],
        "text": {
          "status": "generated",
          "div": "<div xmlns=\"http://www.w3.org/1999/xhtml\"><table class=\"hl7__eu__lab__report\"><tr><th>Test</th><th>19-Apr-2024</th><th>Reference&#xA0;Range</th><th>Unit</th></tr><tr><td>Ketones [Mass/volume] in Urine by Test strip</td><td>15.4</td><td>0 - 3</td><td>H</td><td>mg/dL</td></tr></table></div>"
        },
        "status": "final",
        "subject": {
          "reference": "urn:uuid:7d89cc77-385d-487d-b6e6-d73121754b39",
          "display": "Victor Lagarde"
        },
        "effectiveDateTime": "2024-04-19T04:48:18Z",
        "specimen": {
          "reference": "urn:uuid:7944737e-11cd-40be-998c-8933d282ced1"
        }
      }
    },
    {
      "fullUrl": "urn:uuid:0d974247-2067-48ac-b470-27ad165b6593",
      "resource": {
        "resourceType": "Observation",
        "id": "0d974247-2067-48ac-b470-27ad165b6593",
        "meta": {
          "profile": [
            "http://hl7.eu/fhir/laboratory/StructureDefinition/Observation-resultslab-eu-lab"
          ]
        },
        "performer": [
          {
            "display": "The Central European Lab"
          }
        ],
        "category": [
          {
            "coding": [
              {
                "system": "http://terminology.hl7.org/CodeSystem/observation-category",
                "code": "laboratory"
              }
            ]
          }
        ],
        "code": {
          "coding": [
            {
              "code": "2514-8",
              "system": "http://loinc.org",
              "display": "Ketones [Presence] in Urine by Test strip"
            }
          ],
          "text": "Ketones [Presence] in Urine by Test strip"
        },
        "text": {
          "status": "generated",
          "div": "<div xmlns=\"http://www.w3.org/1999/xhtml\"><table class=\"hl7__eu__lab__report\"><tr><th>Test</th><th>19-Apr-2024</th><th>Reference&#xA0;Range</th><th>Unit</th></tr><tr><td>Ketones [Presence] in Urine by Test strip</td></tr></table></div>"
        },
        "status": "final",
        "subject": {
          "reference": "urn:uuid:7d89cc77-385d-487d-b6e6-d73121754b39",
          "display": "Victor Lagarde"
        },
        "effectiveDateTime": "2024-04-19T04:48:18Z",
        "specimen": {
          "reference": "urn:uuid:7944737e-11cd-40be-998c-8933d282ced1"
        }
      }
    },
    {
      "fullUrl": "urn:uuid:7cad0c65-bb57-4350-9909-d464dd7a98ff",
      "resource": {
        "resourceType": "Observation",
        "id": "7cad0c65-bb57-4350-9909-d464dd7a98ff",
        "meta": {
          "profile": [
            "http://hl7.eu/fhir/laboratory/StructureDefinition/Observation-resultslab-eu-lab"
          ]
        },
        "performer": [
          {
            "display": "The Central European Lab"
          }
        ],
        "category": [
          {
            "coding": [
              {
                "system": "http://terminology.hl7.org/CodeSystem/observation-category",
                "code": "laboratory"
              }
            ]
          }
        ],
        "code": {
          "coding": [
            {
              "code": "5811-5",
              "system": "http://loinc.org",
              "display": "Specific gravity of Urine by Test strip"
            }
          ],
          "text": "Specific gravity of Urine by Test strip"
        },
        "valueQuantity": {
          "system": "http://unitsofmeasure.org",
          "value": 1,
          "unit": "{nominal}",
          "code": "{nominal}"
        },
        "referenceRange": [
          {
            "low": {
              "value": 1.01,
              "code": "g/mL",
              "system": "http://unitsofmeasure.org"
            }
          },
          {
            "high": {
              "value": 1.03,
              "code": "g/mL",
              "system": "http://unitsofmeasure.org"
            }
          }
        ],
        "interpretation": [
          {
            "coding": [
              {
                "code": "L",
                "system": "http://terminology.hl7.org/CodeSystem/v3-ObservationInterpretation",
                "display": "Low"
              }
            ]
          }
        ],
        "text": {
          "status": "generated",
          "div": "<div xmlns=\"http://www.w3.org/1999/xhtml\"><table class=\"hl7__eu__lab__report\"><tr><th>Test</th><th>19-Apr-2024</th><th>Reference&#xA0;Range</th><th>Unit</th></tr><tr><td>Specific gravity of Urine by Test strip</td><td>1.0</td><td>1.01 - 1.03</td><td>L</td><td>{nominal}</td></tr></table></div>"
        },
        "status": "final",
        "subject": {
          "reference": "urn:uuid:7d89cc77-385d-487d-b6e6-d73121754b39",
          "display": "Victor Lagarde"
        },
        "effectiveDateTime": "2024-04-19T04:48:18Z",
        "specimen": {
          "reference": "urn:uuid:7944737e-11cd-40be-998c-8933d282ced1"
        }
      }
    },
    {
      "fullUrl": "urn:uuid:9fff6de8-ae69-41f1-abe3-31daa34b3b76",
      "resource": {
        "resourceType": "Observation",
        "id": "9fff6de8-ae69-41f1-abe3-31daa34b3b76",
        "meta": {
          "profile": [
            "http://hl7.eu/fhir/laboratory/StructureDefinition/Observation-resultslab-eu-lab"
          ]
        },
        "performer": [
          {
            "display": "The Central European Lab"
          }
        ],
        "category": [
          {
            "coding": [
              {
                "system": "http://terminology.hl7.org/CodeSystem/observation-category",
                "code": "laboratory"
              }
            ]
          }
        ],
        "code": {
          "coding": [
            {
              "code": "5803-2",
              "system": "http://loinc.org",
              "display": "pH of Urine by Test strip"
            }
          ],
          "text": "pH of Urine by Test strip"
        },
        "valueQuantity": {
          "system": "http://unitsofmeasure.org",
          "value": 5.4,
          "unit": "pH",
          "code": "pH"
        },
        "referenceRange": [
          {
            "low": {
              "value": 4.5,
              "code": "pH",
              "system": "http://unitsofmeasure.org"
            }
          },
          {
            "high": {
              "value": 7.5,
              "code": "pH",
              "system": "http://unitsofmeasure.org"
            }
          }
        ],
        "text": {
          "status": "generated",
          "div": "<div xmlns=\"http://www.w3.org/1999/xhtml\"><table class=\"hl7__eu__lab__report\"><tr><th>Test</th><th>19-Apr-2024</th><th>Reference&#xA0;Range</th><th>Unit</th></tr><tr><td>pH of Urine by Test strip</td><td>5.4</td><td>4.5 - 7.5</td><td></td><td>pH</td></tr></table></div>"
        },
        "status": "final",
        "subject": {
          "reference": "urn:uuid:7d89cc77-385d-487d-b6e6-d73121754b39",
          "display": "Victor Lagarde"
        },
        "effectiveDateTime": "2024-04-19T04:48:18Z",
        "specimen": {
          "reference": "urn:uuid:7944737e-11cd-40be-998c-8933d282ced1"
        }
      }
    },
    {
      "fullUrl": "urn:uuid:b551c63c-995c-4c70-b40c-f1ed5a134a55",
      "resource": {
        "resourceType": "Observation",
        "id": "b551c63c-995c-4c70-b40c-f1ed5a134a55",
        "meta": {
          "profile": [
            "http://hl7.eu/fhir/laboratory/StructureDefinition/Observation-resultslab-eu-lab"
          ]
        },
        "performer": [
          {
            "display": "The Central European Lab"
          }
        ],
        "category": [
          {
            "coding": [
              {
                "system": "http://terminology.hl7.org/CodeSystem/observation-category",
                "code": "laboratory"
              }
            ]
          }
        ],
        "code": {
          "coding": [
            {
              "code": "5804-0",
              "system": "http://loinc.org",
              "display": "Protein [Mass/volume] in Urine by Test strip"
            }
          ],
          "text": "Protein [Mass/volume] in Urine by Test strip"
        },
        "valueQuantity": {
          "system": "http://unitsofmeasure.org",
          "value": 368,
          "unit": "mg/dL",
          "code": "mg/dL"
        },
        "referenceRange": [
          {
            "low": {
              "value": 0,
              "code": "mg/dL",
              "system": "http://unitsofmeasure.org"
            }
          },
          {
            "high": {
              "value": 149,
              "code": "mg/dL",
              "system": "http://unitsofmeasure.org"
            }
          }
        ],
        "interpretation": [
          {
            "coding": [
              {
                "code": "H",
                "system": "http://terminology.hl7.org/CodeSystem/v3-ObservationInterpretation",
                "display": "High"
              }
            ]
          }
        ],
        "text": {
          "status": "generated",
          "div": "<div xmlns=\"http://www.w3.org/1999/xhtml\"><table class=\"hl7__eu__lab__report\"><tr><th>Test</th><th>19-Apr-2024</th><th>Reference&#xA0;Range</th><th>Unit</th></tr><tr><td>Protein [Mass/volume] in Urine by Test strip</td><td>368.0</td><td>0 - 149</td><td>H</td><td>mg/dL</td></tr></table></div>"
        },
        "status": "final",
        "subject": {
          "reference": "urn:uuid:7d89cc77-385d-487d-b6e6-d73121754b39",
          "display": "Victor Lagarde"
        },
        "effectiveDateTime": "2024-04-19T04:48:18Z",
        "specimen": {
          "reference": "urn:uuid:7944737e-11cd-40be-998c-8933d282ced1"
        }
      }
    },
    {
      "fullUrl": "urn:uuid:1498b673-59eb-4d0b-8bd1-d403b2ee66e2",
      "resource": {
        "resourceType": "Observation",
        "id": "1498b673-59eb-4d0b-8bd1-d403b2ee66e2",
        "meta": {
          "profile": [
            "http://hl7.eu/fhir/laboratory/StructureDefinition/Observation-resultslab-eu-lab"
          ]
        },
        "performer": [
          {
            "display": "The Central European Lab"
          }
        ],
        "category": [
          {
            "coding": [
              {
                "system": "http://terminology.hl7.org/CodeSystem/observation-category",
                "code": "laboratory"
              }
            ]
          }
        ],
        "code": {
          "coding": [
            {
              "code": "20454-5",
              "system": "http://loinc.org",
              "display": "Protein [Presence] in Urine by Test strip"
            }
          ],
          "text": "Protein [Presence] in Urine by Test strip"
        },
        "text": {
          "status": "generated",
          "div": "<div xmlns=\"http://www.w3.org/1999/xhtml\"><table class=\"hl7__eu__lab__report\"><tr><th>Test</th><th>19-Apr-2024</th><th>Reference&#xA0;Range</th><th>Unit</th></tr><tr><td>Protein [Presence] in Urine by Test strip</td></tr></table></div>"
        },
        "status": "final",
        "subject": {
          "reference": "urn:uuid:7d89cc77-385d-487d-b6e6-d73121754b39",
          "display": "Victor Lagarde"
        },
        "effectiveDateTime": "2024-04-19T04:48:18Z",
        "specimen": {
          "reference": "urn:uuid:7944737e-11cd-40be-998c-8933d282ced1"
        }
      }
    },
    {
      "fullUrl": "urn:uuid:7e93cd35-97d5-4764-ac30-4f66fa0b400e",
      "resource": {
        "resourceType": "Observation",
        "id": "7e93cd35-97d5-4764-ac30-4f66fa0b400e",
        "meta": {
          "profile": [
            "http://hl7.eu/fhir/laboratory/StructureDefinition/Observation-resultslab-eu-lab"
          ]
        },
        "performer": [
          {
            "display": "The Central European Lab"
          }
        ],
        "category": [
          {
            "coding": [
              {
                "system": "http://terminology.hl7.org/CodeSystem/observation-category",
                "code": "laboratory"
              }
            ]
          }
        ],
        "code": {
          "coding": [
            {
              "code": "5802-4",
              "system": "http://loinc.org",
              "display": "Nitrite [Presence] in Urine by Test strip"
            }
          ],
          "text": "Nitrite [Presence] in Urine by Test strip"
        },
        "text": {
          "status": "generated",
          "div": "<div xmlns=\"http://www.w3.org/1999/xhtml\"><table class=\"hl7__eu__lab__report\"><tr><th>Test</th><th>19-Apr-2024</th><th>Reference&#xA0;Range</th><th>Unit</th></tr><tr><td>Nitrite [Presence] in Urine by Test strip</td></tr></table></div>"
        },
        "status": "final",
        "subject": {
          "reference": "urn:uuid:7d89cc77-385d-487d-b6e6-d73121754b39",
          "display": "Victor Lagarde"
        },
        "effectiveDateTime": "2024-04-19T04:48:18Z",
        "specimen": {
          "reference": "urn:uuid:7944737e-11cd-40be-998c-8933d282ced1"
        }
      }
    },
    {
      "fullUrl": "urn:uuid:b06dc50a-dfa7-40c9-a3c7-867d06af7167",
      "resource": {
        "resourceType": "Observation",
        "id": "b06dc50a-dfa7-40c9-a3c7-867d06af7167",
        "meta": {
          "profile": [
            "http://hl7.eu/fhir/laboratory/StructureDefinition/Observation-resultslab-eu-lab"
          ]
        },
        "performer": [
          {
            "display": "The Central European Lab"
          }
        ],
        "category": [
          {
            "coding": [
              {
                "system": "http://terminology.hl7.org/CodeSystem/observation-category",
                "code": "laboratory"
              }
            ]
          }
        ],
        "code": {
          "coding": [
            {
              "code": "5794-3",
              "system": "http://loinc.org",
              "display": "Hemoglobin [Presence] in Urine by Test strip"
            }
          ],
          "text": "Hemoglobin [Presence] in Urine by Test strip"
        },
        "text": {
          "status": "generated",
          "div": "<div xmlns=\"http://www.w3.org/1999/xhtml\"><table class=\"hl7__eu__lab__report\"><tr><th>Test</th><th>19-Apr-2024</th><th>Reference&#xA0;Range</th><th>Unit</th></tr><tr><td>Hemoglobin [Presence] in Urine by Test strip</td></tr></table></div>"
        },
        "status": "final",
        "subject": {
          "reference": "urn:uuid:7d89cc77-385d-487d-b6e6-d73121754b39",
          "display": "Victor Lagarde"
        },
        "effectiveDateTime": "2024-04-19T04:48:18Z",
        "specimen": {
          "reference": "urn:uuid:7944737e-11cd-40be-998c-8933d282ced1"
        }
      }
    },
    {
      "fullUrl": "urn:uuid:dc88b13f-db26-4cc5-a60e-1c6f595f7f90",
      "resource": {
        "resourceType": "Observation",
        "id": "dc88b13f-db26-4cc5-a60e-1c6f595f7f90",
        "meta": {
          "profile": [
            "http://hl7.eu/fhir/laboratory/StructureDefinition/Observation-resultslab-eu-lab"
          ]
        },
        "performer": [
          {
            "display": "The Central European Lab"
          }
        ],
        "category": [
          {
            "coding": [
              {
                "system": "http://terminology.hl7.org/CodeSystem/observation-category",
                "code": "laboratory"
              }
            ]
          }
        ],
        "code": {
          "coding": [
            {
              "code": "5799-2",
              "system": "http://loinc.org",
              "display": "Leukocyte esterase [Presence] in Urine by Test strip"
            }
          ],
          "text": "Leukocyte esterase [Presence] in Urine by Test strip"
        },
        "text": {
          "status": "generated",
          "div": "<div xmlns=\"http://www.w3.org/1999/xhtml\"><table class=\"hl7__eu__lab__report\"><tr><th>Test</th><th>19-Apr-2024</th><th>Reference&#xA0;Range</th><th>Unit</th></tr><tr><td>Leukocyte esterase [Presence] in Urine by Test strip</td></tr></table></div>"
        },
        "status": "final",
        "subject": {
          "reference": "urn:uuid:7d89cc77-385d-487d-b6e6-d73121754b39",
          "display": "Victor Lagarde"
        },
        "effectiveDateTime": "2024-04-19T04:48:18Z",
        "specimen": {
          "reference": "urn:uuid:7944737e-11cd-40be-998c-8933d282ced1"
        }
      }
    },
    {
      "fullUrl": "urn:uuid:d0fa424b-d551-40c9-b621-9a89eba314a5",
      "resource": {
        "resourceType": "Observation",
        "id": "d0fa424b-d551-40c9-b621-9a89eba314a5",
        "meta": {
          "profile": [
            "http://hl7.eu/fhir/laboratory/StructureDefinition/Observation-resultslab-eu-lab"
          ]
        },
        "performer": [
          {
            "display": "The Central European Lab"
          }
        ],
        "category": [
          {
            "coding": [
              {
                "system": "http://terminology.hl7.org/CodeSystem/observation-category",
                "code": "laboratory"
              }
            ]
          }
        ],
        "code": {
          "coding": [
            {
              "code": "4548-4",
              "system": "http://loinc.org",
              "display": "Hemoglobin A1c/Hemoglobin.total in Blood"
            }
          ],
          "text": "Hemoglobin A1c/Hemoglobin.total in Blood"
        },
        "valueQuantity": {
          "system": "http://unitsofmeasure.org",
          "value": 3,
          "unit": "%",
          "code": "%"
        },
        "referenceRange": [
          {
            "low": {
              "value": 4.3,
              "code": "%",
              "system": "http://unitsofmeasure.org"
            }
          },
          {
            "high": {
              "value": 6,
              "code": "%",
              "system": "http://unitsofmeasure.org"
            }
          }
        ],
        "interpretation": [
          {
            "coding": [
              {
                "code": "L",
                "system": "http://terminology.hl7.org/CodeSystem/v3-ObservationInterpretation",
                "display": "Low"
              }
            ]
          }
        ],
        "text": {
          "status": "generated",
          "div": "<div xmlns=\"http://www.w3.org/1999/xhtml\"><table class=\"hl7__eu__lab__report\"><tr><th>Test</th><th>19-Apr-2024</th><th>Reference&#xA0;Range</th><th>Unit</th></tr><tr><td>Hemoglobin A1c/Hemoglobin.total in Blood</td><td>3.0</td><td>4.3 - 6</td><td>L</td><td>%</td></tr></table></div>"
        },
        "status": "final",
        "subject": {
          "reference": "urn:uuid:7d89cc77-385d-487d-b6e6-d73121754b39",
          "display": "Victor Lagarde"
        },
        "effectiveDateTime": "2024-04-19T04:48:18Z",
        "specimen": {
          "reference": "urn:uuid:9a2943d4-2a3f-4d37-9db0-fc1741f5c234"
        }
      }
    },
    {
      "fullUrl": "urn:uuid:489e35e4-fdf8-48eb-b4eb-ccb1c22e782a",
      "resource": {
        "resourceType": "Observation",
        "id": "489e35e4-fdf8-48eb-b4eb-ccb1c22e782a",
        "meta": {
          "profile": [
            "http://hl7.eu/fhir/laboratory/StructureDefinition/Observation-resultslab-eu-lab"
          ]
        },
        "performer": [
          {
            "display": "The Central European Lab"
          }
        ],
        "category": [
          {
            "coding": [
              {
                "system": "http://terminology.hl7.org/CodeSystem/observation-category",
                "code": "laboratory"
              }
            ]
          }
        ],
        "code": {
          "coding": [
            {
              "code": "2339-0",
              "system": "http://loinc.org",
              "display": "Glucose [Mass/volume] in Blood"
            }
          ],
          "text": "Glucose [Mass/volume] in Blood"
        },
        "valueQuantity": {
          "system": "http://unitsofmeasure.org",
          "value": 91.5,
          "unit": "mg/dL",
          "code": "mg/dL"
        },
        "referenceRange": [
          {
            "low": {
              "value": 70,
              "code": "mg/dL",
              "system": "http://unitsofmeasure.org"
            }
          },
          {
            "high": {
              "value": 140,
              "code": "mg/dL",
              "system": "http://unitsofmeasure.org"
            }
          }
        ],
        "text": {
          "status": "generated",
          "div": "<div xmlns=\"http://www.w3.org/1999/xhtml\"><table class=\"hl7__eu__lab__report\"><tr><th>Test</th><th>19-Apr-2024</th><th>Reference&#xA0;Range</th><th>Unit</th></tr><tr><td>Glucose [Mass/volume] in Blood</td><td>91.5</td><td>70 - 140</td><td></td><td>mg/dL</td></tr></table></div>"
        },
        "status": "final",
        "subject": {
          "reference": "urn:uuid:7d89cc77-385d-487d-b6e6-d73121754b39",
          "display": "Victor Lagarde"
        },
        "effectiveDateTime": "2024-04-19T04:48:18Z",
        "specimen": {
          "reference": "urn:uuid:9a2943d4-2a3f-4d37-9db0-fc1741f5c234"
        }
      }
    },
    {
      "fullUrl": "urn:uuid:c248d9f9-d52c-4a2c-b248-7bfeb932ea1d",
      "resource": {
        "resourceType": "Observation",
        "id": "c248d9f9-d52c-4a2c-b248-7bfeb932ea1d",
        "meta": {
          "profile": [
            "http://hl7.eu/fhir/laboratory/StructureDefinition/Observation-resultslab-eu-lab"
          ]
        },
        "performer": [
          {
            "display": "The Central European Lab"
          }
        ],
        "category": [
          {
            "coding": [
              {
                "system": "http://terminology.hl7.org/CodeSystem/observation-category",
                "code": "laboratory"
              }
            ]
          }
        ],
        "code": {
          "coding": [
            {
              "code": "6299-2",
              "system": "http://loinc.org",
              "display": "Urea nitrogen [Mass/volume] in Blood"
            }
          ],
          "text": "Urea nitrogen [Mass/volume] in Blood"
        },
        "valueQuantity": {
          "system": "http://unitsofmeasure.org",
          "value": 18.5,
          "unit": "mg/dL",
          "code": "mg/dL"
        },
        "referenceRange": [
          {
            "low": {
              "value": 7,
              "code": "mg/dL",
              "system": "http://unitsofmeasure.org"
            }
          },
          {
            "high": {
              "value": 20,
              "code": "mg/dL",
              "system": "http://unitsofmeasure.org"
            }
          }
        ],
        "text": {
          "status": "generated",
          "div": "<div xmlns=\"http://www.w3.org/1999/xhtml\"><table class=\"hl7__eu__lab__report\"><tr><th>Test</th><th>19-Apr-2024</th><th>Reference&#xA0;Range</th><th>Unit</th></tr><tr><td>Urea nitrogen [Mass/volume] in Blood</td><td>18.5</td><td>7 - 20</td><td></td><td>mg/dL</td></tr></table></div>"
        },
        "status": "final",
        "subject": {
          "reference": "urn:uuid:7d89cc77-385d-487d-b6e6-d73121754b39",
          "display": "Victor Lagarde"
        },
        "effectiveDateTime": "2024-04-19T04:48:18Z",
        "specimen": {
          "reference": "urn:uuid:9a2943d4-2a3f-4d37-9db0-fc1741f5c234"
        }
      }
    },
    {
      "fullUrl": "urn:uuid:ef8bdf15-5a51-4b69-afc8-2616bcb1156a",
      "resource": {
        "resourceType": "Observation",
        "id": "ef8bdf15-5a51-4b69-afc8-2616bcb1156a",
        "meta": {
          "profile": [
            "http://hl7.eu/fhir/laboratory/StructureDefinition/Observation-resultslab-eu-lab"
          ]
        },
        "performer": [
          {
            "display": "The Central European Lab"
          }
        ],
        "category": [
          {
            "coding": [
              {
                "system": "http://terminology.hl7.org/CodeSystem/observation-category",
                "code": "laboratory"
              }
            ]
          }
        ],
        "code": {
          "coding": [
            {
              "code": "38483-4",
              "system": "http://loinc.org",
              "display": "Creatinine [Mass/volume] in Blood"
            }
          ],
          "text": "Creatinine [Mass/volume] in Blood"
        },
        "valueQuantity": {
          "system": "http://unitsofmeasure.org",
          "value": 2.7,
          "unit": "mg/dL",
          "code": "mg/dL"
        },
        "referenceRange": [
          {
            "low": {
              "value": 0.9,
              "code": "mg/dL",
              "system": "http://unitsofmeasure.org"
            }
          },
          {
            "high": {
              "value": 1.3,
              "code": "mg/dL",
              "system": "http://unitsofmeasure.org"
            }
          }
        ],
        "interpretation": [
          {
            "coding": [
              {
                "code": "H",
                "system": "http://terminology.hl7.org/CodeSystem/v3-ObservationInterpretation",
                "display": "High"
              }
            ]
          }
        ],
        "text": {
          "status": "generated",
          "div": "<div xmlns=\"http://www.w3.org/1999/xhtml\"><table class=\"hl7__eu__lab__report\"><tr><th>Test</th><th>19-Apr-2024</th><th>Reference&#xA0;Range</th><th>Unit</th></tr><tr><td>Creatinine [Mass/volume] in Blood</td><td>2.7</td><td>0.9 - 1.3</td><td>H</td><td>mg/dL</td></tr></table></div>"
        },
        "status": "final",
        "subject": {
          "reference": "urn:uuid:7d89cc77-385d-487d-b6e6-d73121754b39",
          "display": "Victor Lagarde"
        },
        "effectiveDateTime": "2024-04-19T04:48:18Z",
        "specimen": {
          "reference": "urn:uuid:9a2943d4-2a3f-4d37-9db0-fc1741f5c234"
        }
      }
    },
    {
      "fullUrl": "urn:uuid:185779f6-5da7-4c2a-9118-b9506dd70e7b",
      "resource": {
        "resourceType": "Observation",
        "id": "185779f6-5da7-4c2a-9118-b9506dd70e7b",
        "meta": {
          "profile": [
            "http://hl7.eu/fhir/laboratory/StructureDefinition/Observation-resultslab-eu-lab"
          ]
        },
        "performer": [
          {
            "display": "The Central European Lab"
          }
        ],
        "category": [
          {
            "coding": [
              {
                "system": "http://terminology.hl7.org/CodeSystem/observation-category",
                "code": "laboratory"
              }
            ]
          }
        ],
        "code": {
          "coding": [
            {
              "code": "49765-1",
              "system": "http://loinc.org",
              "display": "Calcium [Mass/volume] in Blood"
            }
          ],
          "text": "Calcium [Mass/volume] in Blood"
        },
        "valueQuantity": {
          "system": "http://unitsofmeasure.org",
          "value": 9.7,
          "unit": "mg/dL",
          "code": "mg/dL"
        },
        "referenceRange": [
          {
            "low": {
              "value": 8.5,
              "code": "mg/dL",
              "system": "http://unitsofmeasure.org"
            }
          },
          {
            "high": {
              "value": 10.5,
              "code": "mg/dL",
              "system": "http://unitsofmeasure.org"
            }
          }
        ],
        "text": {
          "status": "generated",
          "div": "<div xmlns=\"http://www.w3.org/1999/xhtml\"><table class=\"hl7__eu__lab__report\"><tr><th>Test</th><th>19-Apr-2024</th><th>Reference&#xA0;Range</th><th>Unit</th></tr><tr><td>Calcium [Mass/volume] in Blood</td><td>9.7</td><td>8.5 - 10.5</td><td></td><td>mg/dL</td></tr></table></div>"
        },
        "status": "final",
        "subject": {
          "reference": "urn:uuid:7d89cc77-385d-487d-b6e6-d73121754b39",
          "display": "Victor Lagarde"
        },
        "effectiveDateTime": "2024-04-19T04:48:18Z",
        "specimen": {
          "reference": "urn:uuid:9a2943d4-2a3f-4d37-9db0-fc1741f5c234"
        }
      }
    },
    {
      "fullUrl": "urn:uuid:e57e2884-2ddd-4ceb-9645-461f7bb60aac",
      "resource": {
        "resourceType": "Observation",
        "id": "e57e2884-2ddd-4ceb-9645-461f7bb60aac",
        "meta": {
          "profile": [
            "http://hl7.eu/fhir/laboratory/StructureDefinition/Observation-resultslab-eu-lab"
          ]
        },
        "performer": [
          {
            "display": "The Central European Lab"
          }
        ],
        "category": [
          {
            "coding": [
              {
                "system": "http://terminology.hl7.org/CodeSystem/observation-category",
                "code": "laboratory"
              }
            ]
          }
        ],
        "code": {
          "coding": [
            {
              "code": "2947-0",
              "system": "http://loinc.org",
              "display": "Sodium [Moles/volume] in Blood"
            }
          ],
          "text": "Sodium [Moles/volume] in Blood"
        },
        "valueQuantity": {
          "system": "http://unitsofmeasure.org",
          "value": 142.1,
          "unit": "mmol/L",
          "code": "mmol/L"
        },
        "referenceRange": [
          {
            "low": {
              "value": 135,
              "code": "mmol/L",
              "system": "http://unitsofmeasure.org"
            }
          },
          {
            "high": {
              "value": 145,
              "code": "mmol/L",
              "system": "http://unitsofmeasure.org"
            }
          }
        ],
        "text": {
          "status": "generated",
          "div": "<div xmlns=\"http://www.w3.org/1999/xhtml\"><table class=\"hl7__eu__lab__report\"><tr><th>Test</th><th>19-Apr-2024</th><th>Reference&#xA0;Range</th><th>Unit</th></tr><tr><td>Sodium [Moles/volume] in Blood</td><td>142.1</td><td>135 - 145</td><td></td><td>mmol/L</td></tr></table></div>"
        },
        "status": "final",
        "subject": {
          "reference": "urn:uuid:7d89cc77-385d-487d-b6e6-d73121754b39",
          "display": "Victor Lagarde"
        },
        "effectiveDateTime": "2024-04-19T04:48:18Z",
        "specimen": {
          "reference": "urn:uuid:9a2943d4-2a3f-4d37-9db0-fc1741f5c234"
        }
      }
    },
    {
      "fullUrl": "urn:uuid:cbc4ba4e-fabd-480d-98ba-39bd2b3aa03c",
      "resource": {
        "resourceType": "Observation",
        "id": "cbc4ba4e-fabd-480d-98ba-39bd2b3aa03c",
        "meta": {
          "profile": [
            "http://hl7.eu/fhir/laboratory/StructureDefinition/Observation-resultslab-eu-lab"
          ]
        },
        "performer": [
          {
            "display": "The Central European Lab"
          }
        ],
        "category": [
          {
            "coding": [
              {
                "system": "http://terminology.hl7.org/CodeSystem/observation-category",
                "code": "laboratory"
              }
            ]
          }
        ],
        "code": {
          "coding": [
            {
              "code": "6298-4",
              "system": "http://loinc.org",
              "display": "Potassium [Moles/volume] in Blood"
            }
          ],
          "text": "Potassium [Moles/volume] in Blood"
        },
        "valueQuantity": {
          "system": "http://unitsofmeasure.org",
          "value": 5,
          "unit": "mmol/L",
          "code": "mmol/L"
        },
        "referenceRange": [
          {
            "low": {
              "value": 3.5,
              "code": "mmol/L",
              "system": "http://unitsofmeasure.org"
            }
          },
          {
            "high": {
              "value": 5.1,
              "code": "mmol/L",
              "system": "http://unitsofmeasure.org"
            }
          }
        ],
        "text": {
          "status": "generated",
          "div": "<div xmlns=\"http://www.w3.org/1999/xhtml\"><table class=\"hl7__eu__lab__report\"><tr><th>Test</th><th>19-Apr-2024</th><th>Reference&#xA0;Range</th><th>Unit</th></tr><tr><td>Potassium [Moles/volume] in Blood</td><td>5.0</td><td>3.5 - 5.1</td><td></td><td>mmol/L</td></tr></table></div>"
        },
        "status": "final",
        "subject": {
          "reference": "urn:uuid:7d89cc77-385d-487d-b6e6-d73121754b39",
          "display": "Victor Lagarde"
        },
        "effectiveDateTime": "2024-04-19T04:48:18Z",
        "specimen": {
          "reference": "urn:uuid:9a2943d4-2a3f-4d37-9db0-fc1741f5c234"
        }
      }
    },
    {
      "fullUrl": "urn:uuid:dcf0dfed-1f16-43ef-9737-f4115fdef13b",
      "resource": {
        "resourceType": "Observation",
        "id": "dcf0dfed-1f16-43ef-9737-f4115fdef13b",
        "meta": {
          "profile": [
            "http://hl7.eu/fhir/laboratory/StructureDefinition/Observation-resultslab-eu-lab"
          ]
        },
        "performer": [
          {
            "display": "The Central European Lab"
          }
        ],
        "category": [
          {
            "coding": [
              {
                "system": "http://terminology.hl7.org/CodeSystem/observation-category",
                "code": "laboratory"
              }
            ]
          }
        ],
        "code": {
          "coding": [
            {
              "code": "2069-3",
              "system": "http://loinc.org",
              "display": "Chloride [Moles/volume] in Blood"
            }
          ],
          "text": "Chloride [Moles/volume] in Blood"
        },
        "valueQuantity": {
          "system": "http://unitsofmeasure.org",
          "value": 105.3,
          "unit": "mmol/L",
          "code": "mmol/L"
        },
        "referenceRange": [
          {
            "low": {
              "value": 98,
              "code": "mmol/L",
              "system": "http://unitsofmeasure.org"
            }
          },
          {
            "high": {
              "value": 108,
              "code": "mmol/L",
              "system": "http://unitsofmeasure.org"
            }
          }
        ],
        "text": {
          "status": "generated",
          "div": "<div xmlns=\"http://www.w3.org/1999/xhtml\"><table class=\"hl7__eu__lab__report\"><tr><th>Test</th><th>19-Apr-2024</th><th>Reference&#xA0;Range</th><th>Unit</th></tr><tr><td>Chloride [Moles/volume] in Blood</td><td>105.3</td><td>98 - 108</td><td></td><td>mmol/L</td></tr></table></div>"
        },
        "status": "final",
        "subject": {
          "reference": "urn:uuid:7d89cc77-385d-487d-b6e6-d73121754b39",
          "display": "Victor Lagarde"
        },
        "effectiveDateTime": "2024-04-19T04:48:18Z",
        "specimen": {
          "reference": "urn:uuid:9a2943d4-2a3f-4d37-9db0-fc1741f5c234"
        }
      }
    },
    {
      "fullUrl": "urn:uuid:f5dcb0b5-3abe-4085-a180-c0b81e3f7f07",
      "resource": {
        "resourceType": "Observation",
        "id": "f5dcb0b5-3abe-4085-a180-c0b81e3f7f07",
        "meta": {
          "profile": [
            "http://hl7.eu/fhir/laboratory/StructureDefinition/Observation-resultslab-eu-lab"
          ]
        },
        "performer": [
          {
            "display": "The Central European Lab"
          }
        ],
        "category": [
          {
            "coding": [
              {
                "system": "http://terminology.hl7.org/CodeSystem/observation-category",
                "code": "laboratory"
              }
            ]
          }
        ],
        "code": {
          "coding": [
            {
              "code": "20565-8",
              "system": "http://loinc.org",
              "display": "Carbon dioxide, total [Moles/volume] in Blood"
            }
          ],
          "text": "Carbon dioxide, total [Moles/volume] in Blood"
        },
        "valueQuantity": {
          "system": "http://unitsofmeasure.org",
          "value": 21.4,
          "unit": "mmol/L",
          "code": "mmol/L"
        },
        "referenceRange": [
          {
            "low": {
              "value": 22,
              "code": "mmol/L",
              "system": "http://unitsofmeasure.org"
            }
          },
          {
            "high": {
              "value": 29,
              "code": "mmol/L",
              "system": "http://unitsofmeasure.org"
            }
          }
        ],
        "interpretation": [
          {
            "coding": [
              {
                "code": "L",
                "system": "http://terminology.hl7.org/CodeSystem/v3-ObservationInterpretation",
                "display": "Low"
              }
            ]
          }
        ],
        "text": {
          "status": "generated",
          "div": "<div xmlns=\"http://www.w3.org/1999/xhtml\"><table class=\"hl7__eu__lab__report\"><tr><th>Test</th><th>19-Apr-2024</th><th>Reference&#xA0;Range</th><th>Unit</th></tr><tr><td>Carbon dioxide, total [Moles/volume] in Blood</td><td>21.4</td><td>22 - 29</td><td>L</td><td>mmol/L</td></tr></table></div>"
        },
        "status": "final",
        "subject": {
          "reference": "urn:uuid:7d89cc77-385d-487d-b6e6-d73121754b39",
          "display": "Victor Lagarde"
        },
        "effectiveDateTime": "2024-04-19T04:48:18Z",
        "specimen": {
          "reference": "urn:uuid:9a2943d4-2a3f-4d37-9db0-fc1741f5c234"
        }
      }
    },
    {
      "fullUrl": "urn:uuid:3326410c-fb8b-4d31-8ec5-e206ed373ad1",
      "resource": {
        "resourceType": "Device",
        "id": "3326410c-fb8b-4d31-8ec5-e206ed373ad1",
        "deviceName": [
          {
            "name": "SYNDERAI Synthetic Generator",
            "type": "manufacturer-name"
          }
        ],
        "version": [
          {
            "value": "5.0"
          }
        ],
        "text": {
          "status": "generated",
          "div": "<div xmlns=\"http://www.w3.org/1999/xhtml\">SYNDERAI Synthetic Generator v5.0</div>"
        },
        "status": "active\"",
        "distinctIdentifier": "synderai-generator-50",
        "manufacturer": "SYNDERAI Project"
      }
    },
    {
      "fullUrl": "urn:uuid:45373062-5c60-4a52-bb5c-a8e0c653769a",
      "resource": {
        "resourceType": "Provenance",
        "id": "45373062-5c60-4a52-bb5c-a8e0c653769a",
        "target": [
          {
            "reference": "Patient/7d89cc77-385d-487d-b6e6-d73121754b39"
          },
          {
            "reference": "Bundle/e0310808-4bb1-45bd-8021-0123072a17fc"
          },
          {
            "reference": "Composition/806647bc-a8dc-4480-b070-7d5638094536"
          },
          {
            "reference": "PractitionerRole/12605989-e6bc-44c5-bb68-6cfb32ecf89b"
          },
          {
            "reference": "Practitioner/0bf90470-5151-4beb-af68-c5fa9de47054"
          },
          {
            "reference": "PractitionerRole/59e0ab49-1087-44df-986e-8d587ce31154"
          },
          {
            "reference": "Organization/670ced54-7fba-42a2-8fe5-ea678b91fce2"
          }
        ],
        "activity": {
          "text": "Synthetic Example Data Generation"
        },
        "policy": [
          "https://synderai.net/synderai-synthetic-data-policy"
        ],
        "agent": [
          {
            "type": {
              "text": "author"
            },
            "who": {
              "reference": "Device/3326410c-fb8b-4d31-8ec5-e206ed373ad1"
            }
          }
        ],
        "reason": [
          {
            "text": "Interoperability Testing and Training (non-clinical use)"
          }
        ],
        "text": {
          "status": "generated",
          "div": "<div xmlns=\"http://www.w3.org/1999/xhtml\">Provenance for SYNDERAI Synthetic Example Data Resource</div>"
        },
        "recorded": "2024-04-19T06:48:18Z"
      }
    },
    {
      "fullUrl": "urn:uuid:12605989-e6bc-44c5-bb68-6cfb32ecf89b",
      "resource": {
        "resourceType": "PractitionerRole",
        "id": "12605989-e6bc-44c5-bb68-6cfb32ecf89b",
        "meta": {
          "profile": [
            "http://hl7.eu/fhir/base/StructureDefinition/practitionerRole-eu"
          ]
        },
        "text": {
          "status": "generated",
          "div": "<div xmlns=\"http://www.w3.org/1999/xhtml\">Laboratory Role Id: 12605989-e6bc-44c5-bb68-6cfb32ecf89b</div>"
        },
        "practitioner": {
          "reference": "urn:uuid:0bf90470-5151-4beb-af68-c5fa9de47054"
        }
      }
    },
    {
      "fullUrl": "urn:uuid:0bf90470-5151-4beb-af68-c5fa9de47054",
      "resource": {
        "resourceType": "Practitioner",
        "id": "0bf90470-5151-4beb-af68-c5fa9de47054",
        "meta": {
          "profile": [
            "http://hl7.eu/fhir/base/StructureDefinition/practitioner-eu"
          ]
        },
        "identifier": [
          {
            "assigner": {
              "display": "HL7 Europe"
            },
            "system": "urn:oid:2.16.840.1.113883.2.51.999",
            "value": "22bf0938-dec3-4a5a-83fa-e85a6417b035"
          }
        ],
        "name": [
          {
            "prefix": [
              "dr"
            ],
            "given": [
              "Ex"
            ],
            "family": "Ample"
          }
        ],
        "address": [
          {
            "line": [
              "Laboratoire Central Européenne",
              "Boulevard du Jardin Botanique 32"
            ],
            "postalCode": "1000",
            "city": "Brussels",
            "country": "Belgium"
          }
        ],
        "text": {
          "status": "generated",
          "div": "<div xmlns=\"http://www.w3.org/1999/xhtml\">Laboratory: Laboratoire Central Européenne, 1000 Brussels, Belgium</div>"
        }
      }
    }
  ],
  "type": "document",
  "timestamp": "2024-04-19T06:48:18Z"
}
