<Bundle xmlns="http://hl7.org/fhir">
   <id value="c3e3ef99-37cd-4ffd-ae32-d21736dcf852"/>
   <meta>
      <profile value="http://hl7.eu/fhir/laboratory/StructureDefinition/Bundle-eu-lab"/>
   </meta>
   <identifier>
      <system value="urn:oid:2.16.840.1.113883.2.51.999"/>
      <value value="add99f94-09f9-48f3-9e4c-92a578091467"/>
      <assigner>
         <display value="HL7 Europe"/>
      </assigner>
   </identifier>
   <type value="document"/>
   <timestamp value="2021-11-02T07:32:15Z"/>
   <entry>
      <fullUrl value="urn:uuid:68de35d1-1355-467b-935f-6fbe2d7d54c3"/>
      <resource>
         <Composition>
            <id value="68de35d1-1355-467b-935f-6fbe2d7d54c3"/>
            <meta>
               <profile value="http://hl7.eu/fhir/laboratory/StructureDefinition/Composition-eu-lab"/>
            </meta>
            <identifier>
               <system value="urn:oid:2.16.840.1.113883.2.51.999"/>
               <value value="85fc5775-408e-44d3-a2bd-16987f698410"/>
               <assigner>
                  <display value="HL7 Europe"/>
               </assigner>
            </identifier>
            <status value="final"/>
            <type>
               <coding>
                  <system value="http://loinc.org"/>
                  <code value="11502-2"/>
                  <display value="Laboratory report"/>
               </coding>
               <text value="Laboratory Report"/>
            </type>
            <category>
               <coding>
                  <system value="http://loinc.org"/>
                  <code value="26436-6"/>
                  <display value="Laboratory studies (set)"/>
               </coding>
            </category>
            <subject>
               <reference value="urn:uuid:402d9f84-3ff2-4697-aa3d-6eca086a65ab"/>
               <display value="Russell Khan"/>
            </subject>
            <date value="2021-11-02T07:32:15Z"/>
            <author>
               <reference value="urn:uuid:d4b996de-ebdc-44cf-95b8-826848c5c033"/>
            </author>
            <title value="Laboratory Report"/>
            <confidentiality value="N"/>
            <section>
               <title value="Laboratory Report"/>
               <code>
                  <coding>
                     <system value="http://loinc.org"/>
                     <code value="26436-6"/>
                     <display value="Laboratory studies (set)"/>
                  </coding>
                  <text value="Laboratory studies"/>
               </code>
               <section>
                  <title value="Chemistry"/>
                  <code>
                     <coding>
                        <system value="http://loinc.org"/>
                        <code value="$18719-5"/>
                        <display value="Chemistry studies (set)"/>
                     </coding>
                     <text value="Chemistry"/>
                  </code>
                  <text>
                     <status value="generated"/>
                     <div xmlns="http://www.w3.org/1999/xhtml">
                        <h3>Chemistry</h3>
                        <table class="hl7__eu__lab__report">
                           <thead>
                              <tr>
                                 <th>Test</th>
                                 <th>02-NOV-2021</th>
                                 <th>Reference Range</th>
                                 <th>Unit</th>
                              </tr>
                           </thead>
                           <tbody>
                              <tr>
                                 <td>Ketones [Presence] in Urine by Test strip</td>
                                 <td>Urine ketone test negative</td>
                                 <td/>
                                 <td/>
                              </tr>
                           </tbody>
                        </table>
                     </div>
                  </text>
                  <entry>
                     <reference value="urn:uuid:ca0f4344-9406-4feb-a2bb-67d565f9089e"/>
                  </entry>
               </section>
               <section>
                  <title value="Urinalysis"/>
                  <code>
                     <coding>
                        <system value="http://loinc.org"/>
                        <code value="$18729-4"/>
                        <display value="Urinalysis studies (set)"/>
                     </coding>
                     <text value="Urinalysis"/>
                  </code>
                  <text>
                     <status value="generated"/>
                     <div xmlns="http://www.w3.org/1999/xhtml">
                        <h3>Urinalysis</h3>
                        <table class="hl7__eu__lab__report">
                           <thead>
                              <tr>
                                 <th>Test</th>
                                 <th>02-NOV-2021</th>
                                 <th>Reference Range</th>
                                 <th>Unit</th>
                              </tr>
                           </thead>
                           <tbody>
                              <tr>
                                 <td>Glucose [Mass/volume] in Urine by Test strip</td>
                                 <td>11.0</td>
                                 <td>0 - 15</td>
                                 <td>mg/dL</td>
                              </tr>
                              <tr>
                                 <td>Specific gravity of Urine by Test strip</td>
                                 <td>
                                    <strong>1.0 L</strong>
                                 </td>
                                 <td>1.005 - 1.03</td>
                                 <td>{nominal}</td>
                              </tr>
                              <tr>
                                 <td>pH of Urine by Test strip</td>
                                 <td>6.4</td>
                                 <td>4.6 - 7</td>
                                 <td>pH</td>
                              </tr>
                              <tr>
                                 <td>Protein [Mass/volume] in Urine by Test strip</td>
                                 <td>8.7</td>
                                 <td>0 - 15</td>
                                 <td>mg/dL</td>
                              </tr>
                              <tr>
                                 <td>Nitrite [Presence] in Urine by Test strip</td>
                                 <td>Urine nitrite positive</td>
                                 <td/>
                                 <td/>
                              </tr>
                              <tr>
                                 <td>Hemoglobin [Presence] in Urine by Test strip</td>
                                 <td>Urine blood test = +</td>
                                 <td/>
                                 <td/>
                              </tr>
                              <tr>
                                 <td>Leukocyte esterase [Presence] in Urine by Test strip</td>
                                 <td>Urine leukocyte test</td>
                                 <td/>
                                 <td/>
                              </tr>
                              <tr>
                                 <td>Leukocytes [#/area] in Urine sediment by Microscopy high power field</td>
                                 <td>26.7</td>
                                 <td>0 - 30</td>
                                 <td>/[HPF]</td>
                              </tr>
                              <tr>
                                 <td>Erythrocytes [#/area] in Urine sediment by Microscopy high power field</td>
                                 <td>2.6</td>
                                 <td>0 - 5</td>
                                 <td>/[HPF]</td>
                              </tr>
                              <tr>
                                 <td>Epithelial cells [#/area] in Urine sediment by Microscopy high power field</td>
                                 <td>1.3</td>
                                 <td>0 - 5</td>
                                 <td>/[HPF]</td>
                              </tr>
                              <tr>
                                 <td>Casts [Presence] in Urine sediment by Light microscopy</td>
                                 <td>Urine microscopy: no casts</td>
                                 <td/>
                                 <td/>
                              </tr>
                              <tr>
                                 <td>Mucus [Presence] in Urine sediment by Light microscopy</td>
                                 <td>Mucus in urine</td>
                                 <td/>
                                 <td/>
                              </tr>
                              <tr>
                                 <td>Bacteria [#/area] in Urine sediment by Microscopy high power field</td>
                                 <td>Finding of presence of bacteria</td>
                                 <td/>
                                 <td/>
                              </tr>
                           </tbody>
                        </table>
                     </div>
                  </text>
                  <entry>
                     <reference value="urn:uuid:d588269d-2b98-4bad-8888-c036b16fcee2"/>
                  </entry>
                  <entry>
                     <reference value="urn:uuid:4c1c1fe5-1016-4e2e-b15a-6478029d3201"/>
                  </entry>
                  <entry>
                     <reference value="urn:uuid:1c11ce44-7566-481c-b87a-a317bcf526a5"/>
                  </entry>
                  <entry>
                     <reference value="urn:uuid:5ed9949b-0825-4fd4-9cee-9c9449f53f6b"/>
                  </entry>
                  <entry>
                     <reference value="urn:uuid:e3877373-5110-479b-9392-c106a4918be7"/>
                  </entry>
                  <entry>
                     <reference value="urn:uuid:291562cd-1f1c-4751-a03b-2e9278cc0f3f"/>
                  </entry>
                  <entry>
                     <reference value="urn:uuid:368fbed1-01f5-4e1c-adbb-a855d83b66d6"/>
                  </entry>
                  <entry>
                     <reference value="urn:uuid:c7e6d3d6-c85f-4ae8-8ddb-884c1bda649e"/>
                  </entry>
                  <entry>
                     <reference value="urn:uuid:0e0404fb-46e6-41fd-b225-4500d8c6aac4"/>
                  </entry>
                  <entry>
                     <reference value="urn:uuid:e5d2c782-3af6-4924-9f92-e365e273bfb9"/>
                  </entry>
                  <entry>
                     <reference value="urn:uuid:2f2eeb63-b065-4ad1-89ab-0088fc7fec2e"/>
                  </entry>
                  <entry>
                     <reference value="urn:uuid:5c18724f-9258-4a15-947b-531010fcffcd"/>
                  </entry>
                  <entry>
                     <reference value="urn:uuid:f24a3638-d887-4835-8245-43992f3151c2"/>
                  </entry>
               </section>
               <section>
                  <title value="Microbiology"/>
                  <code>
                     <coding>
                        <system value="http://loinc.org"/>
                        <code value="$18725-2"/>
                        <display value="Microbiology studies"/>
                     </coding>
                     <text value="Microbiology"/>
                  </code>
                  <text>
                     <status value="generated"/>
                     <div xmlns="http://www.w3.org/1999/xhtml">
                        <h3>Microbiology</h3>
                        <table class="hl7__eu__lab__report">
                           <thead>
                              <tr>
                                 <th>Test</th>
                                 <th>02-NOV-2021</th>
                                 <th>Reference Range</th>
                                 <th>Unit</th>
                              </tr>
                           </thead>
                           <tbody>
                              <tr>
                                 <td>Bacteria identified in Urine by Culture</td>
                                 <td/>
                                 <td/>
                                 <td/>
                              </tr>
                           </tbody>
                        </table>
                     </div>
                  </text>
                  <entry>
                     <reference value="urn:uuid:4fb9403f-ab1a-4459-a81c-e1a81a3a2f7f"/>
                  </entry>
               </section>
            </section>
            <section>
               <title value="Annotation comment"/>
               <code>
                  <coding>
                     <system value="http://loinc.org"/>
                     <code value="48767-8"/>
                     <display value="Annotation comment"/>
                  </coding>
               </code>
               <text>
                  <status value="generated"/>
                  <div xmlns="http://www.w3.org/1999/xhtml">
                     <h3>Annotation</h3>
                     <table class="hl7__eu__lab__report">
                        <tr>
                           <th>Conclusion and Recommendations based on this report and previous findings known to us</th>
                        </tr>
                        <tr>
                           <td>The urine findings indicate a urinary tract infection (UTI) with significant bacteriuria (&gt;100,000 CFU/mL E. coli), positive nitrites, leukocyte esterase, and presence of leukocytes, erythrocytes, and bacteria. Low specific gravity may suggest dilute urine. No casts were seen. Recommend clinical correlation and appropriate antibiotic therapy based on sensitivity testing.</td>
                        </tr>
                     </table>
                  </div>
               </text>
            </section>
         </Composition>
      </resource>
   </entry>
   <entry>
      <fullUrl value="urn:uuid:b874d4b0-96dc-44d6-95da-8d7764566030"/>
      <resource>
         <DiagnosticReport>
            <id value="b874d4b0-96dc-44d6-95da-8d7764566030"/>
            <meta>
               <profile value="http://hl7.eu/fhir/laboratory/StructureDefinition/DiagnosticReport-eu-lab"/>
            </meta>
            <extension url="http://hl7.org/fhir/5.0/StructureDefinition/extension-DiagnosticReport.composition">
               <valueReference>
                  <reference value="urn:uuid:85fc5775-408e-44d3-a2bd-16987f698410"/>
               </valueReference>
            </extension>
            <identifier>
               <system value="urn:oid:2.16.840.1.113883.2.51.999"/>
               <value value="247cec0f-6ef2-4998-adb2-93d6d34b893a"/>
               <assigner>
                  <display value="HL7 Europe"/>
               </assigner>
            </identifier>
            <status value="registered"/>
            <category>
               <coding>
                  <system value="http://loinc.org"/>
                  <code value="26436-6"/>
                  <display value="Laboratory studies (set)"/>
               </coding>
            </category>
            <code>
               <coding>
                  <system value="http://loinc.org"/>
                  <code value="11502-2"/>
                  <display value="Laboratory report"/>
               </coding>
            </code>
            <subject>
               <reference value="urn:uuid:402d9f84-3ff2-4697-aa3d-6eca086a65ab"/>
               <display value="Russell Khan"/>
            </subject>
            <specimen>
               <reference value="urn:uuid:684eada9-dce1-44da-b85e-e5e7d4cbdbcd"/>
            </specimen>
            <specimen>
               <reference value="urn:uuid:d2b34bcd-f1e5-4acd-a5da-2952f6d8ee22"/>
            </specimen>
            <result>
               <reference value="urn:uuid:d588269d-2b98-4bad-8888-c036b16fcee2"/>
            </result>
            <result>
               <reference value="urn:uuid:ca0f4344-9406-4feb-a2bb-67d565f9089e"/>
            </result>
            <result>
               <reference value="urn:uuid:4c1c1fe5-1016-4e2e-b15a-6478029d3201"/>
            </result>
            <result>
               <reference value="urn:uuid:1c11ce44-7566-481c-b87a-a317bcf526a5"/>
            </result>
            <result>
               <reference value="urn:uuid:5ed9949b-0825-4fd4-9cee-9c9449f53f6b"/>
            </result>
            <result>
               <reference value="urn:uuid:e3877373-5110-479b-9392-c106a4918be7"/>
            </result>
            <result>
               <reference value="urn:uuid:291562cd-1f1c-4751-a03b-2e9278cc0f3f"/>
            </result>
            <result>
               <reference value="urn:uuid:368fbed1-01f5-4e1c-adbb-a855d83b66d6"/>
            </result>
            <result>
               <reference value="urn:uuid:c7e6d3d6-c85f-4ae8-8ddb-884c1bda649e"/>
            </result>
            <result>
               <reference value="urn:uuid:0e0404fb-46e6-41fd-b225-4500d8c6aac4"/>
            </result>
            <result>
               <reference value="urn:uuid:e5d2c782-3af6-4924-9f92-e365e273bfb9"/>
            </result>
            <result>
               <reference value="urn:uuid:2f2eeb63-b065-4ad1-89ab-0088fc7fec2e"/>
            </result>
            <result>
               <reference value="urn:uuid:5c18724f-9258-4a15-947b-531010fcffcd"/>
            </result>
            <result>
               <reference value="urn:uuid:f24a3638-d887-4835-8245-43992f3151c2"/>
            </result>
            <result>
               <reference value="urn:uuid:4fb9403f-ab1a-4459-a81c-e1a81a3a2f7f"/>
            </result>
         </DiagnosticReport>
      </resource>
   </entry>
   <entry>
      <fullUrl value="urn:uuid:402d9f84-3ff2-4697-aa3d-6eca086a65ab"/>
      <resource>
         <Patient>
            <id value="402d9f84-3ff2-4697-aa3d-6eca086a65ab"/>
            <meta>
               <profile value="http://hl7.eu/fhir/base/StructureDefinition/patient-eu-core"/>
               <security>
                  <system value="http://terminology.hl7.org/CodeSystem/v3-ActReason"/>
                  <code value="HTEST"/>
               </security>
               <security>
                  <system value="http://terminology.hl7.org/CodeSystem/v3-ActReason"/>
                  <code value="TRAIN"/>
               </security>
               <tag>
                  <system value="https://synderai.net/fhir/CodeSystem/tags"/>
                  <code value="synthetic"/>
                  <display value="SYNDERAI Synthetic data"/>
               </tag>
            </meta>
            <text>
               <status value="generated"/>
               <div xmlns="http://www.w3.org/1999/xhtml">
                  <table class="hl7__ips">
                     <tr>
                        <td>Russell Khan</td>
                        <td>male</td>
                        <td>29-Aug-1980</td>
                     </tr>
                  </table>
               </div>
            </text>
            <extension url="http://hl7.org/fhir/StructureDefinition/patient-nationality">
               <valueCodeableConcept>
                  <coding>
                     <system value="http://hl7.org/fhir/ValueSet/country"/>
                     <code value="GB"/>
                  </coding>
               </valueCodeableConcept>
            </extension>
            <identifier>
               <type>
                  <coding>
                     <system value="http://terminology.hl7.org/CodeSystem/v2-0203"/>
                     <code value="PT"/>
                  </coding>
               </type>
               <system value="http://ec.europa.eu/identifier/eci"/>
               <value value="7982-255119-2"/>
            </identifier>
            <identifier>
               <type>
                  <coding>
                     <system value="http://terminology.hl7.org/CodeSystem/v2-0203"/>
                     <code value="MR"/>
                  </coding>
               </type>
               <system value="http://local.setting.eu/identifier"/>
               <value value="7070b0e2-4aa2-c981-d552-92289a13285c"/>
            </identifier>
            <name>
               <family value="Khan"/>
            </name>
            <name>
               <given value="Russell"/>
            </name>
            <name>
               <text value="Russell Khan"/>
            </name>
            <telecom>
               <system value="phone"/>
               <value value="0115 4960345"/>
            </telecom>
            <gender value="male"/>
            <birthDate value="1980-08-29"/>
            <address>
               <use value="home"/>
               <type value="physical"/>
               <line value="1 Holly well"/>
               <city value="Allantown"/>
               <postalCode value="B9"/>
               <country value="United Kingdom"/>
            </address>
         </Patient>
      </resource>
   </entry>
   <entry>
      <fullUrl value="urn:uuid:cd4c6d14-4315-4be6-8329-434d4632ce94"/>
      <resource>
         <ServiceRequest>
            <id value="cd4c6d14-4315-4be6-8329-434d4632ce94"/>
            <meta>
               <profile value="http://hl7.eu/fhir/laboratory/StructureDefinition/ServiceRequest-eu-lab"/>
            </meta>
            <identifier>
               <system value="http://example.org"/>
               <value value="82156bee-b2a4-482c-a5cd-885b2da30232"/>
            </identifier>
            <status value="active"/>
            <intent value="order"/>
            <code>
               <coding>
                  <system value="http://snomed.info/sct"/>
                  <code value="108252007"/>
                  <display value="Laboratory procedure"/>
               </coding>
            </code>
            <subject>
               <reference value="urn:uuid:402d9f84-3ff2-4697-aa3d-6eca086a65ab"/>
               <display value="Russell Khan"/>
            </subject>
            <requester>
               <reference value="urn:uuid:16ab6c3f-c122-4fd9-b456-15fec437aaab"/>
            </requester>
            <reasonCode>
               <coding>
                  <system value="http://snomed.info/sct"/>
                  <code value="59621000"/>
                  <display value="Essential hypertension"/>
               </coding>
            </reasonCode>
            <specimen>
               <reference value="urn:uuid:684eada9-dce1-44da-b85e-e5e7d4cbdbcd"/>
            </specimen>
            <specimen>
               <reference value="urn:uuid:d2b34bcd-f1e5-4acd-a5da-2952f6d8ee22"/>
            </specimen>
         </ServiceRequest>
      </resource>
   </entry>
   <entry>
      <fullUrl value="urn:uuid:16ab6c3f-c122-4fd9-b456-15fec437aaab"/>
      <resource>
         <PractitionerRole>
            <id value="16ab6c3f-c122-4fd9-b456-15fec437aaab"/>
            <meta>
               <profile value="http://hl7.eu/fhir/base/StructureDefinition/practitionerRole-eu"/>
            </meta>
            <text>
               <status value="generated"/>
               <div xmlns="http://www.w3.org/1999/xhtml">Provider Role Id: 16ab6c3f-c122-4fd9-b456-15fec437aaab</div>
            </text>
            <organization>
               <reference value="urn:uuid:eaeb0e78-1a1f-4900-89e8-10ac9f409deb"/>
            </organization>
         </PractitionerRole>
      </resource>
   </entry>
   <entry>
      <fullUrl value="urn:uuid:eaeb0e78-1a1f-4900-89e8-10ac9f409deb"/>
      <resource>
         <Organization>
            <id value="eaeb0e78-1a1f-4900-89e8-10ac9f409deb"/>
            <meta>
               <profile value="http://hl7.eu/fhir/base/StructureDefinition/organization-eu"/>
            </meta>
            <text>
               <status value="generated"/>
               <div xmlns="http://www.w3.org/1999/xhtml">Provider Organization: Birmingham Children's Hospital</div>
            </text>
            <identifier>
               <system value="urn:oid:2.16.840.1.113883.2.51.999"/>
               <value value="6c258070-a603-4f6e-9e02-cef240163e34"/>
               <assigner>
                  <display value="HL7 Europe"/>
               </assigner>
            </identifier>
            <name value="Birmingham Children&amp;#039;s Hospital"/>
            <address>
               <city value="Birmingham"/>
               <postalCode value="B4 6"/>
               <country value="United Kingdom"/>
            </address>
         </Organization>
      </resource>
   </entry>
   <entry>
      <fullUrl value="urn:uuid:684eada9-dce1-44da-b85e-e5e7d4cbdbcd"/>
      <resource>
         <Specimen>
            <id value="684eada9-dce1-44da-b85e-e5e7d4cbdbcd"/>
            <meta>
               <profile value="http://hl7.eu/fhir/laboratory/StructureDefinition/Specimen-eu-lab"/>
            </meta>
            <text>
               <status value="generated"/>
               <div xmlns="http://www.w3.org/1999/xhtml">
                  <table class="hl7__eu__lab__report">
                     <tr>
                        <th>Specimen</th>
                        <th>Collection Date</th>
                     </tr>
                     <tr>
                        <td>Urine specimen</td>
                        <td>
                           <span class="nb">02-Nov-2021</span>
                        </td>
                     </tr>
                  </table>
               </div>
            </text>
            <type>
               <coding>
                  <system value="http://snomed.info/sct"/>
                  <code value="122575003"/>
                  <display value="Urine specimen"/>
               </coding>
            </type>
            <collection>
               <collectedDateTime value="2021-11-02"/>
            </collection>
         </Specimen>
      </resource>
   </entry>
   <entry>
      <fullUrl value="urn:uuid:d2b34bcd-f1e5-4acd-a5da-2952f6d8ee22"/>
      <resource>
         <Specimen>
            <id value="d2b34bcd-f1e5-4acd-a5da-2952f6d8ee22"/>
            <meta>
               <profile value="http://hl7.eu/fhir/laboratory/StructureDefinition/Specimen-eu-lab"/>
            </meta>
            <text>
               <status value="generated"/>
               <div xmlns="http://www.w3.org/1999/xhtml">
                  <table class="hl7__eu__lab__report">
                     <tr>
                        <th>Specimen</th>
                        <th>Collection Date</th>
                     </tr>
                     <tr>
                        <td>Urine sediment specimen (specimen)</td>
                        <td>
                           <span class="nb">02-Nov-2021</span>
                        </td>
                     </tr>
                  </table>
               </div>
            </text>
            <type>
               <coding>
                  <system value="http://snomed.info/sct"/>
                  <code value="122567009"/>
                  <display value="Urine sediment specimen (specimen)"/>
               </coding>
            </type>
            <collection>
               <collectedDateTime value="2021-11-02"/>
            </collection>
         </Specimen>
      </resource>
   </entry>
   <entry>
      <fullUrl value="urn:uuid:d588269d-2b98-4bad-8888-c036b16fcee2"/>
      <resource>
         <Observation>
            <id value="d588269d-2b98-4bad-8888-c036b16fcee2"/>
            <meta>
               <profile value="http://hl7.eu/fhir/laboratory/StructureDefinition/Observation-resultslab-eu-lab"/>
            </meta>
            <text>
               <status value="generated"/>
               <div xmlns="http://www.w3.org/1999/xhtml">
                  <table class="hl7__eu__lab__report">
                     <tr>
                        <th>Test</th>
                        <th>02-Nov-2021</th>
                        <th>Reference Range</th>
                        <th>Unit</th>
                     </tr>
                     <tr>
                        <td>Glucose [Mass/volume] in Urine by Test strip</td>
                        <td>11.0</td>
                        <td>0 - 15</td>
                        <td/>
                        <td>mg/dL</td>
                     </tr>
                  </table>
               </div>
            </text>
            <status value="final"/>
            <category>
               <coding>
                  <system value="http://terminology.hl7.org/CodeSystem/observation-category"/>
                  <code value="laboratory"/>
               </coding>
            </category>
            <code>
               <coding>
                  <system value="http://loinc.org"/>
                  <code value="5792-7"/>
                  <display value="Glucose [Mass/volume] in Urine by Test strip"/>
               </coding>
               <text value="Glucose [Mass/volume] in Urine by Test strip"/>
            </code>
            <subject>
               <reference value="urn:uuid:402d9f84-3ff2-4697-aa3d-6eca086a65ab"/>
               <display value="Russell Khan"/>
            </subject>
            <effectiveDateTime value="2021-11-02T06:32:15Z"/>
            <performer>
               <display value="The Central European Lab"/>
            </performer>
            <valueQuantity>
               <value value="11"/>
               <unit value="mg/dL"/>
               <system value="http://unitsofmeasure.org"/>
               <code value="mg/dL"/>
            </valueQuantity>
            <specimen>
               <reference value="urn:uuid:684eada9-dce1-44da-b85e-e5e7d4cbdbcd"/>
            </specimen>
            <referenceRange>
               <low>
                  <value value="0"/>
                  <system value="http://unitsofmeasure.org"/>
                  <code value="mg/dL"/>
               </low>
            </referenceRange>
            <referenceRange>
               <high>
                  <value value="15"/>
                  <system value="http://unitsofmeasure.org"/>
                  <code value="mg/dL"/>
               </high>
            </referenceRange>
         </Observation>
      </resource>
   </entry>
   <entry>
      <fullUrl value="urn:uuid:ca0f4344-9406-4feb-a2bb-67d565f9089e"/>
      <resource>
         <Observation>
            <id value="ca0f4344-9406-4feb-a2bb-67d565f9089e"/>
            <meta>
               <profile value="http://hl7.eu/fhir/laboratory/StructureDefinition/Observation-resultslab-eu-lab"/>
            </meta>
            <text>
               <status value="generated"/>
               <div xmlns="http://www.w3.org/1999/xhtml">
                  <table class="hl7__eu__lab__report">
                     <tr>
                        <th>Test</th>
                        <th>02-Nov-2021</th>
                        <th>Reference Range</th>
                        <th>Unit</th>
                     </tr>
                     <tr>
                        <td>Ketones [Presence] in Urine by Test strip</td>
                     </tr>
                  </table>
               </div>
            </text>
            <status value="final"/>
            <category>
               <coding>
                  <system value="http://terminology.hl7.org/CodeSystem/observation-category"/>
                  <code value="laboratory"/>
               </coding>
            </category>
            <code>
               <coding>
                  <system value="http://loinc.org"/>
                  <code value="2514-8"/>
                  <display value="Ketones [Presence] in Urine by Test strip"/>
               </coding>
               <text value="Ketones [Presence] in Urine by Test strip"/>
            </code>
            <subject>
               <reference value="urn:uuid:402d9f84-3ff2-4697-aa3d-6eca086a65ab"/>
               <display value="Russell Khan"/>
            </subject>
            <effectiveDateTime value="2021-11-02T06:32:15Z"/>
            <performer>
               <display value="The Central European Lab"/>
            </performer>
            <specimen>
               <reference value="urn:uuid:684eada9-dce1-44da-b85e-e5e7d4cbdbcd"/>
            </specimen>
         </Observation>
      </resource>
   </entry>
   <entry>
      <fullUrl value="urn:uuid:4c1c1fe5-1016-4e2e-b15a-6478029d3201"/>
      <resource>
         <Observation>
            <id value="4c1c1fe5-1016-4e2e-b15a-6478029d3201"/>
            <meta>
               <profile value="http://hl7.eu/fhir/laboratory/StructureDefinition/Observation-resultslab-eu-lab"/>
            </meta>
            <text>
               <status value="generated"/>
               <div xmlns="http://www.w3.org/1999/xhtml">
                  <table class="hl7__eu__lab__report">
                     <tr>
                        <th>Test</th>
                        <th>02-Nov-2021</th>
                        <th>Reference Range</th>
                        <th>Unit</th>
                     </tr>
                     <tr>
                        <td>Specific gravity of Urine by Test strip</td>
                        <td>1.0</td>
                        <td>1.005 - 1.03</td>
                        <td>L</td>
                        <td>{nominal}</td>
                     </tr>
                  </table>
               </div>
            </text>
            <status value="final"/>
            <category>
               <coding>
                  <system value="http://terminology.hl7.org/CodeSystem/observation-category"/>
                  <code value="laboratory"/>
               </coding>
            </category>
            <code>
               <coding>
                  <system value="http://loinc.org"/>
                  <code value="5811-5"/>
                  <display value="Specific gravity of Urine by Test strip"/>
               </coding>
               <text value="Specific gravity of Urine by Test strip"/>
            </code>
            <subject>
               <reference value="urn:uuid:402d9f84-3ff2-4697-aa3d-6eca086a65ab"/>
               <display value="Russell Khan"/>
            </subject>
            <effectiveDateTime value="2021-11-02T06:32:15Z"/>
            <performer>
               <display value="The Central European Lab"/>
            </performer>
            <valueQuantity>
               <value value="1"/>
               <unit value="{nominal}"/>
               <system value="http://unitsofmeasure.org"/>
               <code value="{nominal}"/>
            </valueQuantity>
            <interpretation>
               <coding>
                  <system value="http://terminology.hl7.org/CodeSystem/v3-ObservationInterpretation"/>
                  <code value="L"/>
                  <display value="Low"/>
               </coding>
            </interpretation>
            <specimen>
               <reference value="urn:uuid:684eada9-dce1-44da-b85e-e5e7d4cbdbcd"/>
            </specimen>
            <referenceRange>
               <low>
                  <value value="1.005"/>
                  <system value="http://unitsofmeasure.org"/>
                  <code value="g/mL"/>
               </low>
            </referenceRange>
            <referenceRange>
               <high>
                  <value value="1.03"/>
                  <system value="http://unitsofmeasure.org"/>
                  <code value="g/mL"/>
               </high>
            </referenceRange>
         </Observation>
      </resource>
   </entry>
   <entry>
      <fullUrl value="urn:uuid:1c11ce44-7566-481c-b87a-a317bcf526a5"/>
      <resource>
         <Observation>
            <id value="1c11ce44-7566-481c-b87a-a317bcf526a5"/>
            <meta>
               <profile value="http://hl7.eu/fhir/laboratory/StructureDefinition/Observation-resultslab-eu-lab"/>
            </meta>
            <text>
               <status value="generated"/>
               <div xmlns="http://www.w3.org/1999/xhtml">
                  <table class="hl7__eu__lab__report">
                     <tr>
                        <th>Test</th>
                        <th>02-Nov-2021</th>
                        <th>Reference Range</th>
                        <th>Unit</th>
                     </tr>
                     <tr>
                        <td>pH of Urine by Test strip</td>
                        <td>6.4</td>
                        <td>4.6 - 7</td>
                        <td/>
                        <td>pH</td>
                     </tr>
                  </table>
               </div>
            </text>
            <status value="final"/>
            <category>
               <coding>
                  <system value="http://terminology.hl7.org/CodeSystem/observation-category"/>
                  <code value="laboratory"/>
               </coding>
            </category>
            <code>
               <coding>
                  <system value="http://loinc.org"/>
                  <code value="5803-2"/>
                  <display value="pH of Urine by Test strip"/>
               </coding>
               <text value="pH of Urine by Test strip"/>
            </code>
            <subject>
               <reference value="urn:uuid:402d9f84-3ff2-4697-aa3d-6eca086a65ab"/>
               <display value="Russell Khan"/>
            </subject>
            <effectiveDateTime value="2021-11-02T06:32:15Z"/>
            <performer>
               <display value="The Central European Lab"/>
            </performer>
            <valueQuantity>
               <value value="6.4"/>
               <unit value="pH"/>
               <system value="http://unitsofmeasure.org"/>
               <code value="pH"/>
            </valueQuantity>
            <specimen>
               <reference value="urn:uuid:684eada9-dce1-44da-b85e-e5e7d4cbdbcd"/>
            </specimen>
            <referenceRange>
               <low>
                  <value value="4.6"/>
                  <system value="http://unitsofmeasure.org"/>
                  <code value="pH"/>
               </low>
            </referenceRange>
            <referenceRange>
               <high>
                  <value value="7"/>
                  <system value="http://unitsofmeasure.org"/>
                  <code value="pH"/>
               </high>
            </referenceRange>
         </Observation>
      </resource>
   </entry>
   <entry>
      <fullUrl value="urn:uuid:5ed9949b-0825-4fd4-9cee-9c9449f53f6b"/>
      <resource>
         <Observation>
            <id value="5ed9949b-0825-4fd4-9cee-9c9449f53f6b"/>
            <meta>
               <profile value="http://hl7.eu/fhir/laboratory/StructureDefinition/Observation-resultslab-eu-lab"/>
            </meta>
            <text>
               <status value="generated"/>
               <div xmlns="http://www.w3.org/1999/xhtml">
                  <table class="hl7__eu__lab__report">
                     <tr>
                        <th>Test</th>
                        <th>02-Nov-2021</th>
                        <th>Reference Range</th>
                        <th>Unit</th>
                     </tr>
                     <tr>
                        <td>Protein [Mass/volume] in Urine by Test strip</td>
                        <td>8.7</td>
                        <td>0 - 15</td>
                        <td/>
                        <td>mg/dL</td>
                     </tr>
                  </table>
               </div>
            </text>
            <status value="final"/>
            <category>
               <coding>
                  <system value="http://terminology.hl7.org/CodeSystem/observation-category"/>
                  <code value="laboratory"/>
               </coding>
            </category>
            <code>
               <coding>
                  <system value="http://loinc.org"/>
                  <code value="5804-0"/>
                  <display value="Protein [Mass/volume] in Urine by Test strip"/>
               </coding>
               <text value="Protein [Mass/volume] in Urine by Test strip"/>
            </code>
            <subject>
               <reference value="urn:uuid:402d9f84-3ff2-4697-aa3d-6eca086a65ab"/>
               <display value="Russell Khan"/>
            </subject>
            <effectiveDateTime value="2021-11-02T06:32:15Z"/>
            <performer>
               <display value="The Central European Lab"/>
            </performer>
            <valueQuantity>
               <value value="8.7"/>
               <unit value="mg/dL"/>
               <system value="http://unitsofmeasure.org"/>
               <code value="mg/dL"/>
            </valueQuantity>
            <specimen>
               <reference value="urn:uuid:684eada9-dce1-44da-b85e-e5e7d4cbdbcd"/>
            </specimen>
            <referenceRange>
               <low>
                  <value value="0"/>
                  <system value="http://unitsofmeasure.org"/>
                  <code value="mg/dL"/>
               </low>
            </referenceRange>
            <referenceRange>
               <high>
                  <value value="15"/>
                  <system value="http://unitsofmeasure.org"/>
                  <code value="mg/dL"/>
               </high>
            </referenceRange>
         </Observation>
      </resource>
   </entry>
   <entry>
      <fullUrl value="urn:uuid:e3877373-5110-479b-9392-c106a4918be7"/>
      <resource>
         <Observation>
            <id value="e3877373-5110-479b-9392-c106a4918be7"/>
            <meta>
               <profile value="http://hl7.eu/fhir/laboratory/StructureDefinition/Observation-resultslab-eu-lab"/>
            </meta>
            <text>
               <status value="generated"/>
               <div xmlns="http://www.w3.org/1999/xhtml">
                  <table class="hl7__eu__lab__report">
                     <tr>
                        <th>Test</th>
                        <th>02-Nov-2021</th>
                        <th>Reference Range</th>
                        <th>Unit</th>
                     </tr>
                     <tr>
                        <td>Nitrite [Presence] in Urine by Test strip</td>
                     </tr>
                  </table>
               </div>
            </text>
            <status value="final"/>
            <category>
               <coding>
                  <system value="http://terminology.hl7.org/CodeSystem/observation-category"/>
                  <code value="laboratory"/>
               </coding>
            </category>
            <code>
               <coding>
                  <system value="http://loinc.org"/>
                  <code value="5802-4"/>
                  <display value="Nitrite [Presence] in Urine by Test strip"/>
               </coding>
               <text value="Nitrite [Presence] in Urine by Test strip"/>
            </code>
            <subject>
               <reference value="urn:uuid:402d9f84-3ff2-4697-aa3d-6eca086a65ab"/>
               <display value="Russell Khan"/>
            </subject>
            <effectiveDateTime value="2021-11-02T06:32:15Z"/>
            <performer>
               <display value="The Central European Lab"/>
            </performer>
            <specimen>
               <reference value="urn:uuid:684eada9-dce1-44da-b85e-e5e7d4cbdbcd"/>
            </specimen>
         </Observation>
      </resource>
   </entry>
   <entry>
      <fullUrl value="urn:uuid:291562cd-1f1c-4751-a03b-2e9278cc0f3f"/>
      <resource>
         <Observation>
            <id value="291562cd-1f1c-4751-a03b-2e9278cc0f3f"/>
            <meta>
               <profile value="http://hl7.eu/fhir/laboratory/StructureDefinition/Observation-resultslab-eu-lab"/>
            </meta>
            <text>
               <status value="generated"/>
               <div xmlns="http://www.w3.org/1999/xhtml">
                  <table class="hl7__eu__lab__report">
                     <tr>
                        <th>Test</th>
                        <th>02-Nov-2021</th>
                        <th>Reference Range</th>
                        <th>Unit</th>
                     </tr>
                     <tr>
                        <td>Hemoglobin [Presence] in Urine by Test strip</td>
                     </tr>
                  </table>
               </div>
            </text>
            <status value="final"/>
            <category>
               <coding>
                  <system value="http://terminology.hl7.org/CodeSystem/observation-category"/>
                  <code value="laboratory"/>
               </coding>
            </category>
            <code>
               <coding>
                  <system value="http://loinc.org"/>
                  <code value="5794-3"/>
                  <display value="Hemoglobin [Presence] in Urine by Test strip"/>
               </coding>
               <text value="Hemoglobin [Presence] in Urine by Test strip"/>
            </code>
            <subject>
               <reference value="urn:uuid:402d9f84-3ff2-4697-aa3d-6eca086a65ab"/>
               <display value="Russell Khan"/>
            </subject>
            <effectiveDateTime value="2021-11-02T06:32:15Z"/>
            <performer>
               <display value="The Central European Lab"/>
            </performer>
            <specimen>
               <reference value="urn:uuid:684eada9-dce1-44da-b85e-e5e7d4cbdbcd"/>
            </specimen>
         </Observation>
      </resource>
   </entry>
   <entry>
      <fullUrl value="urn:uuid:368fbed1-01f5-4e1c-adbb-a855d83b66d6"/>
      <resource>
         <Observation>
            <id value="368fbed1-01f5-4e1c-adbb-a855d83b66d6"/>
            <meta>
               <profile value="http://hl7.eu/fhir/laboratory/StructureDefinition/Observation-resultslab-eu-lab"/>
            </meta>
            <text>
               <status value="generated"/>
               <div xmlns="http://www.w3.org/1999/xhtml">
                  <table class="hl7__eu__lab__report">
                     <tr>
                        <th>Test</th>
                        <th>02-Nov-2021</th>
                        <th>Reference Range</th>
                        <th>Unit</th>
                     </tr>
                     <tr>
                        <td>Leukocyte esterase [Presence] in Urine by Test strip</td>
                     </tr>
                  </table>
               </div>
            </text>
            <status value="final"/>
            <category>
               <coding>
                  <system value="http://terminology.hl7.org/CodeSystem/observation-category"/>
                  <code value="laboratory"/>
               </coding>
            </category>
            <code>
               <coding>
                  <system value="http://loinc.org"/>
                  <code value="5799-2"/>
                  <display value="Leukocyte esterase [Presence] in Urine by Test strip"/>
               </coding>
               <text value="Leukocyte esterase [Presence] in Urine by Test strip"/>
            </code>
            <subject>
               <reference value="urn:uuid:402d9f84-3ff2-4697-aa3d-6eca086a65ab"/>
               <display value="Russell Khan"/>
            </subject>
            <effectiveDateTime value="2021-11-02T06:32:15Z"/>
            <performer>
               <display value="The Central European Lab"/>
            </performer>
            <specimen>
               <reference value="urn:uuid:684eada9-dce1-44da-b85e-e5e7d4cbdbcd"/>
            </specimen>
         </Observation>
      </resource>
   </entry>
   <entry>
      <fullUrl value="urn:uuid:c7e6d3d6-c85f-4ae8-8ddb-884c1bda649e"/>
      <resource>
         <Observation>
            <id value="c7e6d3d6-c85f-4ae8-8ddb-884c1bda649e"/>
            <meta>
               <profile value="http://hl7.eu/fhir/laboratory/StructureDefinition/Observation-resultslab-eu-lab"/>
            </meta>
            <text>
               <status value="generated"/>
               <div xmlns="http://www.w3.org/1999/xhtml">
                  <table class="hl7__eu__lab__report">
                     <tr>
                        <th>Test</th>
                        <th>02-Nov-2021</th>
                        <th>Reference Range</th>
                        <th>Unit</th>
                     </tr>
                     <tr>
                        <td>Leukocytes [#/area] in Urine sediment by Microscopy high power field</td>
                        <td>26.7</td>
                        <td>0 - 30</td>
                        <td/>
                        <td>/[HPF]</td>
                     </tr>
                  </table>
               </div>
            </text>
            <status value="final"/>
            <category>
               <coding>
                  <system value="http://terminology.hl7.org/CodeSystem/observation-category"/>
                  <code value="laboratory"/>
               </coding>
            </category>
            <code>
               <coding>
                  <system value="http://loinc.org"/>
                  <code value="5821-4"/>
                  <display value="Leukocytes [#/area] in Urine sediment by Microscopy high power field"/>
               </coding>
               <text value="Leukocytes [#/area] in Urine sediment by Microscopy high power field"/>
            </code>
            <subject>
               <reference value="urn:uuid:402d9f84-3ff2-4697-aa3d-6eca086a65ab"/>
               <display value="Russell Khan"/>
            </subject>
            <effectiveDateTime value="2021-11-02T06:32:15Z"/>
            <performer>
               <display value="The Central European Lab"/>
            </performer>
            <valueQuantity>
               <value value="26.7"/>
               <unit value="/[HPF]"/>
               <system value="http://unitsofmeasure.org"/>
               <code value="/[HPF]"/>
            </valueQuantity>
            <specimen>
               <reference value="urn:uuid:d2b34bcd-f1e5-4acd-a5da-2952f6d8ee22"/>
            </specimen>
            <referenceRange>
               <low>
                  <value value="0"/>
                  <system value="http://unitsofmeasure.org"/>
                  <code value="#/area"/>
               </low>
            </referenceRange>
            <referenceRange>
               <high>
                  <value value="30"/>
                  <system value="http://unitsofmeasure.org"/>
                  <code value="#/area"/>
               </high>
            </referenceRange>
         </Observation>
      </resource>
   </entry>
   <entry>
      <fullUrl value="urn:uuid:0e0404fb-46e6-41fd-b225-4500d8c6aac4"/>
      <resource>
         <Observation>
            <id value="0e0404fb-46e6-41fd-b225-4500d8c6aac4"/>
            <meta>
               <profile value="http://hl7.eu/fhir/laboratory/StructureDefinition/Observation-resultslab-eu-lab"/>
            </meta>
            <text>
               <status value="generated"/>
               <div xmlns="http://www.w3.org/1999/xhtml">
                  <table class="hl7__eu__lab__report">
                     <tr>
                        <th>Test</th>
                        <th>02-Nov-2021</th>
                        <th>Reference Range</th>
                        <th>Unit</th>
                     </tr>
                     <tr>
                        <td>Erythrocytes [#/area] in Urine sediment by Microscopy high power field</td>
                        <td>2.6</td>
                        <td>0 - 5</td>
                        <td/>
                        <td>/[HPF]</td>
                     </tr>
                  </table>
               </div>
            </text>
            <status value="final"/>
            <category>
               <coding>
                  <system value="http://terminology.hl7.org/CodeSystem/observation-category"/>
                  <code value="laboratory"/>
               </coding>
            </category>
            <code>
               <coding>
                  <system value="http://loinc.org"/>
                  <code value="13945-1"/>
                  <display value="Erythrocytes [#/area] in Urine sediment by Microscopy high power field"/>
               </coding>
               <text value="Erythrocytes [#/area] in Urine sediment by Microscopy high power field"/>
            </code>
            <subject>
               <reference value="urn:uuid:402d9f84-3ff2-4697-aa3d-6eca086a65ab"/>
               <display value="Russell Khan"/>
            </subject>
            <effectiveDateTime value="2021-11-02T06:32:15Z"/>
            <performer>
               <display value="The Central European Lab"/>
            </performer>
            <valueQuantity>
               <value value="2.6"/>
               <unit value="/[HPF]"/>
               <system value="http://unitsofmeasure.org"/>
               <code value="/[HPF]"/>
            </valueQuantity>
            <specimen>
               <reference value="urn:uuid:d2b34bcd-f1e5-4acd-a5da-2952f6d8ee22"/>
            </specimen>
            <referenceRange>
               <low>
                  <value value="0"/>
                  <system value="http://unitsofmeasure.org"/>
                  <code value="[#/area]"/>
               </low>
            </referenceRange>
            <referenceRange>
               <high>
                  <value value="5"/>
                  <system value="http://unitsofmeasure.org"/>
                  <code value="[#/area]"/>
               </high>
            </referenceRange>
         </Observation>
      </resource>
   </entry>
   <entry>
      <fullUrl value="urn:uuid:e5d2c782-3af6-4924-9f92-e365e273bfb9"/>
      <resource>
         <Observation>
            <id value="e5d2c782-3af6-4924-9f92-e365e273bfb9"/>
            <meta>
               <profile value="http://hl7.eu/fhir/laboratory/StructureDefinition/Observation-resultslab-eu-lab"/>
            </meta>
            <text>
               <status value="generated"/>
               <div xmlns="http://www.w3.org/1999/xhtml">
                  <table class="hl7__eu__lab__report">
                     <tr>
                        <th>Test</th>
                        <th>02-Nov-2021</th>
                        <th>Reference Range</th>
                        <th>Unit</th>
                     </tr>
                     <tr>
                        <td>Epithelial cells [#/area] in Urine sediment by Microscopy high power field</td>
                        <td>1.3</td>
                        <td>0 - 5</td>
                        <td/>
                        <td>/[HPF]</td>
                     </tr>
                  </table>
               </div>
            </text>
            <status value="final"/>
            <category>
               <coding>
                  <system value="http://terminology.hl7.org/CodeSystem/observation-category"/>
                  <code value="laboratory"/>
               </coding>
            </category>
            <code>
               <coding>
                  <system value="http://loinc.org"/>
                  <code value="5787-7"/>
                  <display value="Epithelial cells [#/area] in Urine sediment by Microscopy high power field"/>
               </coding>
               <text value="Epithelial cells [#/area] in Urine sediment by Microscopy high power field"/>
            </code>
            <subject>
               <reference value="urn:uuid:402d9f84-3ff2-4697-aa3d-6eca086a65ab"/>
               <display value="Russell Khan"/>
            </subject>
            <effectiveDateTime value="2021-11-02T06:32:15Z"/>
            <performer>
               <display value="The Central European Lab"/>
            </performer>
            <valueQuantity>
               <value value="1.3"/>
               <unit value="/[HPF]"/>
               <system value="http://unitsofmeasure.org"/>
               <code value="/[HPF]"/>
            </valueQuantity>
            <specimen>
               <reference value="urn:uuid:d2b34bcd-f1e5-4acd-a5da-2952f6d8ee22"/>
            </specimen>
            <referenceRange>
               <low>
                  <value value="0"/>
                  <system value="http://unitsofmeasure.org"/>
                  <code value="[#/area]"/>
               </low>
            </referenceRange>
            <referenceRange>
               <high>
                  <value value="5"/>
                  <system value="http://unitsofmeasure.org"/>
                  <code value="[#/area]"/>
               </high>
            </referenceRange>
         </Observation>
      </resource>
   </entry>
   <entry>
      <fullUrl value="urn:uuid:2f2eeb63-b065-4ad1-89ab-0088fc7fec2e"/>
      <resource>
         <Observation>
            <id value="2f2eeb63-b065-4ad1-89ab-0088fc7fec2e"/>
            <meta>
               <profile value="http://hl7.eu/fhir/laboratory/StructureDefinition/Observation-resultslab-eu-lab"/>
            </meta>
            <text>
               <status value="generated"/>
               <div xmlns="http://www.w3.org/1999/xhtml">
                  <table class="hl7__eu__lab__report">
                     <tr>
                        <th>Test</th>
                        <th>02-Nov-2021</th>
                        <th>Reference Range</th>
                        <th>Unit</th>
                     </tr>
                     <tr>
                        <td>Casts [Presence] in Urine sediment by Light microscopy</td>
                     </tr>
                  </table>
               </div>
            </text>
            <status value="final"/>
            <category>
               <coding>
                  <system value="http://terminology.hl7.org/CodeSystem/observation-category"/>
                  <code value="laboratory"/>
               </coding>
            </category>
            <code>
               <coding>
                  <system value="http://loinc.org"/>
                  <code value="24124-0"/>
                  <display value="Casts [Presence] in Urine sediment by Light microscopy"/>
               </coding>
               <text value="Casts [Presence] in Urine sediment by Light microscopy"/>
            </code>
            <subject>
               <reference value="urn:uuid:402d9f84-3ff2-4697-aa3d-6eca086a65ab"/>
               <display value="Russell Khan"/>
            </subject>
            <effectiveDateTime value="2021-11-02T06:32:15Z"/>
            <performer>
               <display value="The Central European Lab"/>
            </performer>
            <specimen>
               <reference value="urn:uuid:d2b34bcd-f1e5-4acd-a5da-2952f6d8ee22"/>
            </specimen>
         </Observation>
      </resource>
   </entry>
   <entry>
      <fullUrl value="urn:uuid:5c18724f-9258-4a15-947b-531010fcffcd"/>
      <resource>
         <Observation>
            <id value="5c18724f-9258-4a15-947b-531010fcffcd"/>
            <meta>
               <profile value="http://hl7.eu/fhir/laboratory/StructureDefinition/Observation-resultslab-eu-lab"/>
            </meta>
            <text>
               <status value="generated"/>
               <div xmlns="http://www.w3.org/1999/xhtml">
                  <table class="hl7__eu__lab__report">
                     <tr>
                        <th>Test</th>
                        <th>02-Nov-2021</th>
                        <th>Reference Range</th>
                        <th>Unit</th>
                     </tr>
                     <tr>
                        <td>Mucus [Presence] in Urine sediment by Light microscopy</td>
                     </tr>
                  </table>
               </div>
            </text>
            <status value="final"/>
            <category>
               <coding>
                  <system value="http://terminology.hl7.org/CodeSystem/observation-category"/>
                  <code value="laboratory"/>
               </coding>
            </category>
            <code>
               <coding>
                  <system value="http://loinc.org"/>
                  <code value="8247-9"/>
                  <display value="Mucus [Presence] in Urine sediment by Light microscopy"/>
               </coding>
               <text value="Mucus [Presence] in Urine sediment by Light microscopy"/>
            </code>
            <subject>
               <reference value="urn:uuid:402d9f84-3ff2-4697-aa3d-6eca086a65ab"/>
               <display value="Russell Khan"/>
            </subject>
            <effectiveDateTime value="2021-11-02T06:32:15Z"/>
            <performer>
               <display value="The Central European Lab"/>
            </performer>
            <specimen>
               <reference value="urn:uuid:d2b34bcd-f1e5-4acd-a5da-2952f6d8ee22"/>
            </specimen>
         </Observation>
      </resource>
   </entry>
   <entry>
      <fullUrl value="urn:uuid:f24a3638-d887-4835-8245-43992f3151c2"/>
      <resource>
         <Observation>
            <id value="f24a3638-d887-4835-8245-43992f3151c2"/>
            <meta>
               <profile value="http://hl7.eu/fhir/laboratory/StructureDefinition/Observation-resultslab-eu-lab"/>
            </meta>
            <text>
               <status value="generated"/>
               <div xmlns="http://www.w3.org/1999/xhtml">
                  <table class="hl7__eu__lab__report">
                     <tr>
                        <th>Test</th>
                        <th>02-Nov-2021</th>
                        <th>Reference Range</th>
                        <th>Unit</th>
                     </tr>
                     <tr>
                        <td>Bacteria [#/area] in Urine sediment by Microscopy high power field</td>
                     </tr>
                  </table>
               </div>
            </text>
            <status value="final"/>
            <category>
               <coding>
                  <system value="http://terminology.hl7.org/CodeSystem/observation-category"/>
                  <code value="laboratory"/>
               </coding>
            </category>
            <code>
               <coding>
                  <system value="http://loinc.org"/>
                  <code value="5769-5"/>
                  <display value="Bacteria [#/area] in Urine sediment by Microscopy high power field"/>
               </coding>
               <text value="Bacteria [#/area] in Urine sediment by Microscopy high power field"/>
            </code>
            <subject>
               <reference value="urn:uuid:402d9f84-3ff2-4697-aa3d-6eca086a65ab"/>
               <display value="Russell Khan"/>
            </subject>
            <effectiveDateTime value="2021-11-02T06:32:15Z"/>
            <performer>
               <display value="The Central European Lab"/>
            </performer>
            <specimen>
               <reference value="urn:uuid:d2b34bcd-f1e5-4acd-a5da-2952f6d8ee22"/>
            </specimen>
         </Observation>
      </resource>
   </entry>
   <entry>
      <fullUrl value="urn:uuid:4fb9403f-ab1a-4459-a81c-e1a81a3a2f7f"/>
      <resource>
         <Observation>
            <id value="4fb9403f-ab1a-4459-a81c-e1a81a3a2f7f"/>
            <meta>
               <profile value="http://hl7.eu/fhir/laboratory/StructureDefinition/Observation-resultslab-eu-lab"/>
            </meta>
            <text>
               <status value="generated"/>
               <div xmlns="http://www.w3.org/1999/xhtml">
                  <table class="hl7__eu__lab__report">
                     <tr>
                        <th>Test</th>
                        <th>02-Nov-2021</th>
                        <th>Reference Range</th>
                        <th>Unit</th>
                     </tr>
                     <tr>
                        <td>Bacteria identified in Urine by Culture</td>
                     </tr>
                  </table>
               </div>
            </text>
            <status value="final"/>
            <category>
               <coding>
                  <system value="http://terminology.hl7.org/CodeSystem/observation-category"/>
                  <code value="laboratory"/>
               </coding>
            </category>
            <code>
               <coding>
                  <system value="http://loinc.org"/>
                  <code value="630-4"/>
                  <display value="Bacteria identified in Urine by Culture"/>
               </coding>
               <text value="Bacteria identified in Urine by Culture"/>
            </code>
            <subject>
               <reference value="urn:uuid:402d9f84-3ff2-4697-aa3d-6eca086a65ab"/>
               <display value="Russell Khan"/>
            </subject>
            <effectiveDateTime value="2021-11-02T06:32:15Z"/>
            <performer>
               <display value="The Central European Lab"/>
            </performer>
            <specimen>
               <reference value="urn:uuid:684eada9-dce1-44da-b85e-e5e7d4cbdbcd"/>
            </specimen>
         </Observation>
      </resource>
   </entry>
   <entry>
      <fullUrl value="urn:uuid:515a7ad7-e241-4a1f-b568-9a7d91c1b095"/>
      <resource>
         <Device>
            <id value="515a7ad7-e241-4a1f-b568-9a7d91c1b095"/>
            <text>
               <status value="generated"/>
               <div xmlns="http://www.w3.org/1999/xhtml">SYNDERAI Synthetic Generator v5.0</div>
            </text>
            <status value="active&#34;"/>
            <distinctIdentifier value="synderai-generator-50"/>
            <manufacturer value="SYNDERAI Project"/>
            <deviceName>
               <name value="SYNDERAI Synthetic Generator"/>
               <type value="manufacturer-name"/>
            </deviceName>
            <version>
               <value value="5.0"/>
            </version>
         </Device>
      </resource>
   </entry>
   <entry>
      <fullUrl value="urn:uuid:4631f3ca-2bae-4b57-a0df-b66d04eb3e40"/>
      <resource>
         <Provenance>
            <id value="4631f3ca-2bae-4b57-a0df-b66d04eb3e40"/>
            <text>
               <status value="generated"/>
               <div xmlns="http://www.w3.org/1999/xhtml">Provenance for SYNDERAI Synthetic Example Data Resource</div>
            </text>
            <target>
               <reference value="Patient/402d9f84-3ff2-4697-aa3d-6eca086a65ab"/>
            </target>
            <target>
               <reference value="Bundle/c3e3ef99-37cd-4ffd-ae32-d21736dcf852"/>
            </target>
            <target>
               <reference value="Composition/68de35d1-1355-467b-935f-6fbe2d7d54c3"/>
            </target>
            <target>
               <reference value="PractitionerRole/d4b996de-ebdc-44cf-95b8-826848c5c033"/>
            </target>
            <target>
               <reference value="Practitioner/cd611a54-39f2-4096-b8c7-16cc7e2300b4"/>
            </target>
            <target>
               <reference value="PractitionerRole/16ab6c3f-c122-4fd9-b456-15fec437aaab"/>
            </target>
            <target>
               <reference value="Organization/eaeb0e78-1a1f-4900-89e8-10ac9f409deb"/>
            </target>
            <recorded value="2021-11-02T07:32:15Z"/>
            <policy value="https://synderai.net/synderai-synthetic-data-policy"/>
            <reason>
               <text value="Interoperability Testing and Training (non-clinical use)"/>
            </reason>
            <activity>
               <text value="Synthetic Example Data Generation"/>
            </activity>
            <agent>
               <type>
                  <text value="author"/>
               </type>
               <who>
                  <reference value="Device/515a7ad7-e241-4a1f-b568-9a7d91c1b095"/>
               </who>
            </agent>
         </Provenance>
      </resource>
   </entry>
   <entry>
      <fullUrl value="urn:uuid:d4b996de-ebdc-44cf-95b8-826848c5c033"/>
      <resource>
         <PractitionerRole>
            <id value="d4b996de-ebdc-44cf-95b8-826848c5c033"/>
            <meta>
               <profile value="http://hl7.eu/fhir/base/StructureDefinition/practitionerRole-eu"/>
            </meta>
            <text>
               <status value="generated"/>
               <div xmlns="http://www.w3.org/1999/xhtml">Laboratory Role Id: d4b996de-ebdc-44cf-95b8-826848c5c033</div>
            </text>
            <practitioner>
               <reference value="urn:uuid:cd611a54-39f2-4096-b8c7-16cc7e2300b4"/>
            </practitioner>
         </PractitionerRole>
      </resource>
   </entry>
   <entry>
      <fullUrl value="urn:uuid:cd611a54-39f2-4096-b8c7-16cc7e2300b4"/>
      <resource>
         <Practitioner>
            <id value="cd611a54-39f2-4096-b8c7-16cc7e2300b4"/>
            <meta>
               <profile value="http://hl7.eu/fhir/base/StructureDefinition/practitioner-eu"/>
            </meta>
            <text>
               <status value="generated"/>
               <div xmlns="http://www.w3.org/1999/xhtml">Laboratory: Laboratoire Central Européenne, 1000 Brussels, Belgium</div>
            </text>
            <identifier>
               <system value="urn:oid:2.16.840.1.113883.2.51.999"/>
               <value value="a872a143-66a4-4525-9863-a22daccad6ff"/>
               <assigner>
                  <display value="HL7 Europe"/>
               </assigner>
            </identifier>
            <name>
               <family value="Ample"/>
               <given value="Ex"/>
               <prefix value="dr"/>
            </name>
            <address>
               <line value="Laboratoire Central Européenne"/>
               <line value="Boulevard du Jardin Botanique 32"/>
               <city value="Brussels"/>
               <postalCode value="1000"/>
               <country value="Belgium"/>
            </address>
         </Practitioner>
      </resource>
   </entry>
</Bundle>