{
  "resourceType": "Bundle",
  "id": "ba97354f-2dbf-41e8-b534-0bcba2976f87",
  "meta": {
    "profile": [
      "http://hl7.eu/fhir/laboratory/StructureDefinition/Bundle-eu-lab"
    ]
  },
  "identifier": {
    "assigner": {
      "display": "HL7 Europe"
    },
    "system": "urn:oid:2.16.840.1.113883.2.51.999",
    "value": "f67591d3-b04a-4a43-9812-e83294c3ca82"
  },
  "entry": [
    {
      "fullUrl": "urn:uuid:3ea0b82b-5ae2-4105-83e9-2058b629bb2e",
      "resource": {
        "resourceType": "Composition",
        "id": "3ea0b82b-5ae2-4105-83e9-2058b629bb2e",
        "meta": {
          "profile": [
            "http://hl7.eu/fhir/laboratory/StructureDefinition/Composition-eu-lab"
          ]
        },
        "identifier": {
          "assigner": {
            "display": "HL7 Europe"
          },
          "system": "urn:oid:2.16.840.1.113883.2.51.999",
          "value": "fedf5728-5071-465c-9133-e386ae1b3f47"
        },
        "author": [
          {
            "reference": "urn:uuid:609c5c6f-f299-42e1-ae45-736fbb7efcc9"
          }
        ],
        "category": [
          {
            "coding": [
              {
                "code": "26436-6",
                "system": "http://loinc.org",
                "display": "Laboratory studies (set)"
              }
            ]
          }
        ],
        "type": {
          "coding": [
            {
              "code": "11502-2",
              "system": "http://loinc.org",
              "display": "Laboratory report"
            }
          ],
          "text": "Laboratory Report"
        },
        "section": [
          {
            "code": {
              "coding": [
                {
                  "code": "26436-6",
                  "system": "http://loinc.org",
                  "display": "Laboratory studies (set)"
                }
              ],
              "text": "Laboratory studies"
            },
            "section": [
              {
                "code": {
                  "coding": [
                    {
                      "code": "$18719-5",
                      "system": "http://loinc.org",
                      "display": "Chemistry studies (set)"
                    }
                  ],
                  "text": "Chemistry"
                },
                "entry": [
                  {
                    "reference": "urn:uuid:aa8cd351-cce1-4dfc-bb7b-6224f764b525"
                  },
                  {
                    "reference": "urn:uuid:d1d465a8-8297-4965-83bf-543c7b5f1ee9"
                  },
                  {
                    "reference": "urn:uuid:56bce1fb-609b-4d52-bcf6-ea0e9a4fef11"
                  },
                  {
                    "reference": "urn:uuid:f9634c20-3bd6-4be6-ac13-8ac5265c2276"
                  },
                  {
                    "reference": "urn:uuid:b9aaa48f-64fe-48d3-ba49-5d09f6fee68a"
                  },
                  {
                    "reference": "urn:uuid:745fd6b1-45c7-4cdd-81a4-3a9240510a0e"
                  },
                  {
                    "reference": "urn:uuid:13583931-4046-4493-b0c4-3a3397ac8f77"
                  },
                  {
                    "reference": "urn:uuid:32d7a1a4-b394-4c24-98f3-c29ec78276f1"
                  },
                  {
                    "reference": "urn:uuid:cfa1d3e7-064f-4425-be8f-ec6b6796ec57"
                  }
                ],
                "text": {
                  "status": "generated",
                  "div": "<div xmlns=\"http://www.w3.org/1999/xhtml\"><h3>Chemistry</h3><table class=\"hl7__eu__lab__report\"><thead><tr><th>Test</th><th>21-JAN-2017</th><th>Reference&#xA0;Range</th><th>Unit</th></tr></thead><tbody><tr><td>Hemoglobin A1c/Hemoglobin.total in Blood</td><td><strong>6.2 H</strong></td><td>4 - 6</td><td>%</td></tr><tr><td>Glucose [Mass/volume] in Blood</td><td>87.3</td><td>70 - 140</td><td>mg/dL</td></tr><tr><td>Urea nitrogen [Mass/volume] in Blood</td><td>7.7</td><td>7 - 45</td><td>mg/dL</td></tr><tr><td>Creatinine [Mass/volume] in Blood</td><td>0.9</td><td>0.6 - 1.1</td><td>mg/dL</td></tr><tr><td>Calcium [Mass/volume] in Blood</td><td>9.7</td><td>8.5 - 10.5</td><td>mg/dL</td></tr><tr><td>Sodium [Moles/volume] in Blood</td><td>141.4</td><td>135 - 145</td><td>mmol/L</td></tr><tr><td>Potassium [Moles/volume] in Blood</td><td>4.7</td><td>3.5 - 5.1</td><td>mmol/L</td></tr><tr><td>Chloride [Moles/volume] in Blood</td><td><strong>109.0 H</strong></td><td>98 - 107</td><td>mmol/L</td></tr><tr><td>Carbon dioxide, total [Moles/volume] in Blood</td><td><strong>20.3 L</strong></td><td>22 - 32</td><td>mmol/L</td></tr></tbody></table></div>"
                },
                "title": "Chemistry"
              }
            ],
            "title": "Laboratory Report"
          },
          {
            "text": {
              "status": "generated",
              "div": "<div xmlns=\"http://www.w3.org/1999/xhtml\"><h3>Annotation</h3><table class=\"hl7__eu__lab__report\"><tr><th>Conclusion and Recommendations based on this report and previous findings known to us</th></tr><tr><td>The patient shows mildly elevated HbA1c, suggesting impaired glucose metabolism or early diabetes, despite normal fasting glucose. Chloride is slightly elevated and total CO₂ is mildly decreased, which may indicate a mild metabolic acidosis or compensation. Renal function and other electrolytes are within normal limits. Clinical correlation and follow-up are recommended.</td></tr></table></div>"
            },
            "code": {
              "coding": [
                {
                  "system": "http://loinc.org",
                  "code": "48767-8",
                  "display": "Annotation comment"
                }
              ]
            },
            "title": "Annotation comment"
          }
        ],
        "status": "final",
        "subject": {
          "reference": "urn:uuid:249c4e04-022d-4b10-b0f7-010dd0355cba",
          "display": "Lydia Ward"
        },
        "date": "2017-01-21T00:08:09Z",
        "title": "Laboratory Report",
        "confidentiality": "N"
      }
    },
    {
      "fullUrl": "urn:uuid:a0ae044d-916a-4eba-8433-46b0b032d113",
      "resource": {
        "resourceType": "DiagnosticReport",
        "id": "a0ae044d-916a-4eba-8433-46b0b032d113",
        "meta": {
          "profile": [
            "http://hl7.eu/fhir/laboratory/StructureDefinition/DiagnosticReport-eu-lab"
          ]
        },
        "identifier": [
          {
            "assigner": {
              "display": "HL7 Europe"
            },
            "system": "urn:oid:2.16.840.1.113883.2.51.999",
            "value": "f7b7e3b4-253b-4656-aba9-1531a24060b6"
          }
        ],
        "extension": [
          {
            "url": "http://hl7.org/fhir/5.0/StructureDefinition/extension-DiagnosticReport.composition",
            "valueReference": {
              "reference": "urn:uuid:fedf5728-5071-465c-9133-e386ae1b3f47"
            }
          }
        ],
        "category": [
          {
            "coding": [
              {
                "code": "26436-6",
                "system": "http://loinc.org",
                "display": "Laboratory studies (set)"
              }
            ]
          }
        ],
        "specimen": [
          {
            "reference": "urn:uuid:a24ddcd6-8865-4e44-b6a4-943726afc574"
          }
        ],
        "result": [
          {
            "reference": "urn:uuid:aa8cd351-cce1-4dfc-bb7b-6224f764b525"
          },
          {
            "reference": "urn:uuid:d1d465a8-8297-4965-83bf-543c7b5f1ee9"
          },
          {
            "reference": "urn:uuid:56bce1fb-609b-4d52-bcf6-ea0e9a4fef11"
          },
          {
            "reference": "urn:uuid:f9634c20-3bd6-4be6-ac13-8ac5265c2276"
          },
          {
            "reference": "urn:uuid:b9aaa48f-64fe-48d3-ba49-5d09f6fee68a"
          },
          {
            "reference": "urn:uuid:745fd6b1-45c7-4cdd-81a4-3a9240510a0e"
          },
          {
            "reference": "urn:uuid:13583931-4046-4493-b0c4-3a3397ac8f77"
          },
          {
            "reference": "urn:uuid:32d7a1a4-b394-4c24-98f3-c29ec78276f1"
          },
          {
            "reference": "urn:uuid:cfa1d3e7-064f-4425-be8f-ec6b6796ec57"
          }
        ],
        "status": "registered",
        "code": {
          "coding": [
            {
              "code": "11502-2",
              "system": "http://loinc.org",
              "display": "Laboratory report"
            }
          ]
        },
        "subject": {
          "reference": "urn:uuid:249c4e04-022d-4b10-b0f7-010dd0355cba",
          "display": "Lydia Ward"
        }
      }
    },
    {
      "fullUrl": "urn:uuid:249c4e04-022d-4b10-b0f7-010dd0355cba",
      "resource": {
        "resourceType": "Patient",
        "id": "249c4e04-022d-4b10-b0f7-010dd0355cba",
        "meta": {
          "security": [
            {
              "system": "http://terminology.hl7.org/CodeSystem/v3-ActReason",
              "code": "HTEST"
            },
            {
              "system": "http://terminology.hl7.org/CodeSystem/v3-ActReason",
              "code": "TRAIN"
            }
          ],
          "tag": [
            {
              "system": "https://synderai.net/fhir/CodeSystem/tags",
              "code": "synthetic",
              "display": "SYNDERAI Synthetic data"
            }
          ],
          "profile": [
            "http://hl7.eu/fhir/base/StructureDefinition/patient-eu-core"
          ]
        },
        "identifier": [
          {
            "type": {
              "coding": [
                {
                  "code": "PT",
                  "system": "http://terminology.hl7.org/CodeSystem/v2-0203"
                }
              ]
            },
            "system": "http://ec.europa.eu/identifier/eci",
            "value": "8944-364030-8"
          },
          {
            "type": {
              "coding": [
                {
                  "code": "MR",
                  "system": "http://terminology.hl7.org/CodeSystem/v2-0203"
                }
              ]
            },
            "system": "http://local.setting.eu/identifier",
            "value": "9edf6b8d-b276-7218-98c6-ccf8d15f2a01"
          }
        ],
        "name": [
          {
            "family": "Ward"
          },
          {
            "given": [
              "Lydia"
            ]
          },
          {
            "text": "Lydia Ward"
          }
        ],
        "address": [
          {
            "line": [
              "6 Hunt radial"
            ],
            "use": "home",
            "type": "physical",
            "postalCode": "EH33",
            "city": "South Rosieside",
            "country": "United Kingdom"
          }
        ],
        "telecom": [
          {
            "system": "phone",
            "value": "01144960349"
          }
        ],
        "extension": [
          {
            "url": "http://hl7.org/fhir/StructureDefinition/patient-nationality",
            "valueCodeableConcept": {
              "coding": [
                {
                  "code": "GB",
                  "system": "http://hl7.org/fhir/ValueSet/country"
                }
              ]
            }
          }
        ],
        "text": {
          "status": "generated",
          "div": "<div xmlns=\"http://www.w3.org/1999/xhtml\"><table class=\"hl7__ips\"><tr><td>Lydia Ward</td><td>female</td><td>27-Dec-1968</td></tr></table></div>"
        },
        "gender": "female",
        "birthDate": "1968-12-27"
      }
    },
    {
      "fullUrl": "urn:uuid:2ba3cbdd-6d79-4b88-8eae-4e068e2042b1",
      "resource": {
        "resourceType": "ServiceRequest",
        "id": "2ba3cbdd-6d79-4b88-8eae-4e068e2042b1",
        "meta": {
          "profile": [
            "http://hl7.eu/fhir/laboratory/StructureDefinition/ServiceRequest-eu-lab"
          ]
        },
        "identifier": [
          {
            "system": "http://example.org",
            "value": "51c3470e-7ec3-4206-9e60-f479ce964610"
          }
        ],
        "specimen": [
          {
            "reference": "urn:uuid:a24ddcd6-8865-4e44-b6a4-943726afc574"
          }
        ],
        "reasonCode": [
          {
            "coding": [
              {
                "code": "271737000",
                "system": "http://snomed.info/sct",
                "display": "Anemia"
              }
            ]
          },
          {
            "coding": [
              {
                "code": "15777000",
                "system": "http://snomed.info/sct",
                "display": "Prediabetes"
              }
            ]
          }
        ],
        "status": "active",
        "intent": "order",
        "code": {
          "coding": [
            {
              "code": "108252007",
              "system": "http://snomed.info/sct",
              "display": "Laboratory procedure"
            }
          ]
        },
        "subject": {
          "reference": "urn:uuid:249c4e04-022d-4b10-b0f7-010dd0355cba",
          "display": "Lydia Ward"
        },
        "requester": {
          "reference": "urn:uuid:289ec37c-c8f3-4ea4-8e54-03a475a0fe23"
        }
      }
    },
    {
      "fullUrl": "urn:uuid:289ec37c-c8f3-4ea4-8e54-03a475a0fe23",
      "resource": {
        "resourceType": "PractitionerRole",
        "id": "289ec37c-c8f3-4ea4-8e54-03a475a0fe23",
        "meta": {
          "profile": [
            "http://hl7.eu/fhir/base/StructureDefinition/practitionerRole-eu"
          ]
        },
        "text": {
          "status": "generated",
          "div": "<div xmlns=\"http://www.w3.org/1999/xhtml\">Provider Role Id: 289ec37c-c8f3-4ea4-8e54-03a475a0fe23</div>"
        },
        "organization": {
          "reference": "urn:uuid:cbabbd6b-fc59-42fb-959f-6d92ab25ce3e"
        }
      }
    },
    {
      "fullUrl": "urn:uuid:cbabbd6b-fc59-42fb-959f-6d92ab25ce3e",
      "resource": {
        "resourceType": "Organization",
        "id": "cbabbd6b-fc59-42fb-959f-6d92ab25ce3e",
        "meta": {
          "profile": [
            "http://hl7.eu/fhir/base/StructureDefinition/organization-eu"
          ]
        },
        "identifier": [
          {
            "assigner": {
              "display": "HL7 Europe"
            },
            "system": "urn:oid:2.16.840.1.113883.2.51.999",
            "value": "15687342-8cb1-4f3c-a09c-482421733837"
          }
        ],
        "address": [
          {
            "city": "Edinburgh",
            "postalCode": "EH9 2",
            "country": "United Kingdom"
          }
        ],
        "text": {
          "status": "generated",
          "div": "<div xmlns=\"http://www.w3.org/1999/xhtml\">Provider Organization: Royal Hospital for Sick Children</div>"
        },
        "name": "Royal Hospital for Sick Children"
      }
    },
    {
      "fullUrl": "urn:uuid:a24ddcd6-8865-4e44-b6a4-943726afc574",
      "resource": {
        "resourceType": "Specimen",
        "id": "a24ddcd6-8865-4e44-b6a4-943726afc574",
        "meta": {
          "profile": [
            "http://hl7.eu/fhir/laboratory/StructureDefinition/Specimen-eu-lab"
          ]
        },
        "collection": {
          "collectedDateTime": "2017-01-20"
        },
        "text": {
          "status": "generated",
          "div": "<div xmlns=\"http://www.w3.org/1999/xhtml\"><table class=\"hl7__eu__lab__report\"><tr><th>Specimen</th><th>Collection Date</th></tr><tr><td>Whole blood specimen (specimen)</td><td><span class=\"nb\">20-Jan-2017</span></td></tr></table></div>"
        },
        "type": {
          "coding": [
            {
              "code": "258580003",
              "system": "http://snomed.info/sct",
              "display": "Whole blood specimen (specimen)"
            }
          ]
        }
      }
    },
    {
      "fullUrl": "urn:uuid:aa8cd351-cce1-4dfc-bb7b-6224f764b525",
      "resource": {
        "resourceType": "Observation",
        "id": "aa8cd351-cce1-4dfc-bb7b-6224f764b525",
        "meta": {
          "profile": [
            "http://hl7.eu/fhir/laboratory/StructureDefinition/Observation-resultslab-eu-lab"
          ]
        },
        "performer": [
          {
            "display": "The Central European Lab"
          }
        ],
        "category": [
          {
            "coding": [
              {
                "system": "http://terminology.hl7.org/CodeSystem/observation-category",
                "code": "laboratory"
              }
            ]
          }
        ],
        "code": {
          "coding": [
            {
              "code": "4548-4",
              "system": "http://loinc.org",
              "display": "Hemoglobin A1c/Hemoglobin.total in Blood"
            }
          ],
          "text": "Hemoglobin A1c/Hemoglobin.total in Blood"
        },
        "valueQuantity": {
          "system": "http://unitsofmeasure.org",
          "value": 6.2,
          "unit": "%",
          "code": "%"
        },
        "referenceRange": [
          {
            "low": {
              "value": 4,
              "code": "%",
              "system": "http://unitsofmeasure.org"
            }
          },
          {
            "high": {
              "value": 6,
              "code": "%",
              "system": "http://unitsofmeasure.org"
            }
          }
        ],
        "interpretation": [
          {
            "coding": [
              {
                "code": "H",
                "system": "http://terminology.hl7.org/CodeSystem/v3-ObservationInterpretation",
                "display": "High"
              }
            ]
          }
        ],
        "text": {
          "status": "generated",
          "div": "<div xmlns=\"http://www.w3.org/1999/xhtml\"><table class=\"hl7__eu__lab__report\"><tr><th>Test</th><th>21-Jan-2017</th><th>Reference&#xA0;Range</th><th>Unit</th></tr><tr><td>Hemoglobin A1c/Hemoglobin.total in Blood</td><td>6.2</td><td>4 - 6</td><td>H</td><td>%</td></tr></table></div>"
        },
        "status": "final",
        "subject": {
          "reference": "urn:uuid:249c4e04-022d-4b10-b0f7-010dd0355cba",
          "display": "Lydia Ward"
        },
        "effectiveDateTime": "2017-01-20T23:08:09Z",
        "specimen": {
          "reference": "urn:uuid:a24ddcd6-8865-4e44-b6a4-943726afc574"
        }
      }
    },
    {
      "fullUrl": "urn:uuid:d1d465a8-8297-4965-83bf-543c7b5f1ee9",
      "resource": {
        "resourceType": "Observation",
        "id": "d1d465a8-8297-4965-83bf-543c7b5f1ee9",
        "meta": {
          "profile": [
            "http://hl7.eu/fhir/laboratory/StructureDefinition/Observation-resultslab-eu-lab"
          ]
        },
        "performer": [
          {
            "display": "The Central European Lab"
          }
        ],
        "category": [
          {
            "coding": [
              {
                "system": "http://terminology.hl7.org/CodeSystem/observation-category",
                "code": "laboratory"
              }
            ]
          }
        ],
        "code": {
          "coding": [
            {
              "code": "2339-0",
              "system": "http://loinc.org",
              "display": "Glucose [Mass/volume] in Blood"
            }
          ],
          "text": "Glucose [Mass/volume] in Blood"
        },
        "valueQuantity": {
          "system": "http://unitsofmeasure.org",
          "value": 87.3,
          "unit": "mg/dL",
          "code": "mg/dL"
        },
        "referenceRange": [
          {
            "low": {
              "value": 70,
              "code": "mg/dL",
              "system": "http://unitsofmeasure.org"
            }
          },
          {
            "high": {
              "value": 140,
              "code": "mg/dL",
              "system": "http://unitsofmeasure.org"
            }
          }
        ],
        "text": {
          "status": "generated",
          "div": "<div xmlns=\"http://www.w3.org/1999/xhtml\"><table class=\"hl7__eu__lab__report\"><tr><th>Test</th><th>21-Jan-2017</th><th>Reference&#xA0;Range</th><th>Unit</th></tr><tr><td>Glucose [Mass/volume] in Blood</td><td>87.3</td><td>70 - 140</td><td></td><td>mg/dL</td></tr></table></div>"
        },
        "status": "final",
        "subject": {
          "reference": "urn:uuid:249c4e04-022d-4b10-b0f7-010dd0355cba",
          "display": "Lydia Ward"
        },
        "effectiveDateTime": "2017-01-20T23:08:09Z",
        "specimen": {
          "reference": "urn:uuid:a24ddcd6-8865-4e44-b6a4-943726afc574"
        }
      }
    },
    {
      "fullUrl": "urn:uuid:56bce1fb-609b-4d52-bcf6-ea0e9a4fef11",
      "resource": {
        "resourceType": "Observation",
        "id": "56bce1fb-609b-4d52-bcf6-ea0e9a4fef11",
        "meta": {
          "profile": [
            "http://hl7.eu/fhir/laboratory/StructureDefinition/Observation-resultslab-eu-lab"
          ]
        },
        "performer": [
          {
            "display": "The Central European Lab"
          }
        ],
        "category": [
          {
            "coding": [
              {
                "system": "http://terminology.hl7.org/CodeSystem/observation-category",
                "code": "laboratory"
              }
            ]
          }
        ],
        "code": {
          "coding": [
            {
              "code": "6299-2",
              "system": "http://loinc.org",
              "display": "Urea nitrogen [Mass/volume] in Blood"
            }
          ],
          "text": "Urea nitrogen [Mass/volume] in Blood"
        },
        "valueQuantity": {
          "system": "http://unitsofmeasure.org",
          "value": 7.7,
          "unit": "mg/dL",
          "code": "mg/dL"
        },
        "referenceRange": [
          {
            "low": {
              "value": 7,
              "code": "mg/dL",
              "system": "http://unitsofmeasure.org"
            }
          },
          {
            "high": {
              "value": 45,
              "code": "mg/dL",
              "system": "http://unitsofmeasure.org"
            }
          }
        ],
        "text": {
          "status": "generated",
          "div": "<div xmlns=\"http://www.w3.org/1999/xhtml\"><table class=\"hl7__eu__lab__report\"><tr><th>Test</th><th>21-Jan-2017</th><th>Reference&#xA0;Range</th><th>Unit</th></tr><tr><td>Urea nitrogen [Mass/volume] in Blood</td><td>7.7</td><td>7 - 45</td><td></td><td>mg/dL</td></tr></table></div>"
        },
        "status": "final",
        "subject": {
          "reference": "urn:uuid:249c4e04-022d-4b10-b0f7-010dd0355cba",
          "display": "Lydia Ward"
        },
        "effectiveDateTime": "2017-01-20T23:08:09Z",
        "specimen": {
          "reference": "urn:uuid:a24ddcd6-8865-4e44-b6a4-943726afc574"
        }
      }
    },
    {
      "fullUrl": "urn:uuid:f9634c20-3bd6-4be6-ac13-8ac5265c2276",
      "resource": {
        "resourceType": "Observation",
        "id": "f9634c20-3bd6-4be6-ac13-8ac5265c2276",
        "meta": {
          "profile": [
            "http://hl7.eu/fhir/laboratory/StructureDefinition/Observation-resultslab-eu-lab"
          ]
        },
        "performer": [
          {
            "display": "The Central European Lab"
          }
        ],
        "category": [
          {
            "coding": [
              {
                "system": "http://terminology.hl7.org/CodeSystem/observation-category",
                "code": "laboratory"
              }
            ]
          }
        ],
        "code": {
          "coding": [
            {
              "code": "38483-4",
              "system": "http://loinc.org",
              "display": "Creatinine [Mass/volume] in Blood"
            }
          ],
          "text": "Creatinine [Mass/volume] in Blood"
        },
        "valueQuantity": {
          "system": "http://unitsofmeasure.org",
          "value": 0.9,
          "unit": "mg/dL",
          "code": "mg/dL"
        },
        "referenceRange": [
          {
            "low": {
              "value": 0.6,
              "code": "mg/dL",
              "system": "http://unitsofmeasure.org"
            }
          },
          {
            "high": {
              "value": 1.1,
              "code": "mg/dL",
              "system": "http://unitsofmeasure.org"
            }
          }
        ],
        "text": {
          "status": "generated",
          "div": "<div xmlns=\"http://www.w3.org/1999/xhtml\"><table class=\"hl7__eu__lab__report\"><tr><th>Test</th><th>21-Jan-2017</th><th>Reference&#xA0;Range</th><th>Unit</th></tr><tr><td>Creatinine [Mass/volume] in Blood</td><td>0.9</td><td>0.6 - 1.1</td><td></td><td>mg/dL</td></tr></table></div>"
        },
        "status": "final",
        "subject": {
          "reference": "urn:uuid:249c4e04-022d-4b10-b0f7-010dd0355cba",
          "display": "Lydia Ward"
        },
        "effectiveDateTime": "2017-01-20T23:08:09Z",
        "specimen": {
          "reference": "urn:uuid:a24ddcd6-8865-4e44-b6a4-943726afc574"
        }
      }
    },
    {
      "fullUrl": "urn:uuid:b9aaa48f-64fe-48d3-ba49-5d09f6fee68a",
      "resource": {
        "resourceType": "Observation",
        "id": "b9aaa48f-64fe-48d3-ba49-5d09f6fee68a",
        "meta": {
          "profile": [
            "http://hl7.eu/fhir/laboratory/StructureDefinition/Observation-resultslab-eu-lab"
          ]
        },
        "performer": [
          {
            "display": "The Central European Lab"
          }
        ],
        "category": [
          {
            "coding": [
              {
                "system": "http://terminology.hl7.org/CodeSystem/observation-category",
                "code": "laboratory"
              }
            ]
          }
        ],
        "code": {
          "coding": [
            {
              "code": "49765-1",
              "system": "http://loinc.org",
              "display": "Calcium [Mass/volume] in Blood"
            }
          ],
          "text": "Calcium [Mass/volume] in Blood"
        },
        "valueQuantity": {
          "system": "http://unitsofmeasure.org",
          "value": 9.7,
          "unit": "mg/dL",
          "code": "mg/dL"
        },
        "referenceRange": [
          {
            "low": {
              "value": 8.5,
              "code": "mg/dL",
              "system": "http://unitsofmeasure.org"
            }
          },
          {
            "high": {
              "value": 10.5,
              "code": "mg/dL",
              "system": "http://unitsofmeasure.org"
            }
          }
        ],
        "text": {
          "status": "generated",
          "div": "<div xmlns=\"http://www.w3.org/1999/xhtml\"><table class=\"hl7__eu__lab__report\"><tr><th>Test</th><th>21-Jan-2017</th><th>Reference&#xA0;Range</th><th>Unit</th></tr><tr><td>Calcium [Mass/volume] in Blood</td><td>9.7</td><td>8.5 - 10.5</td><td></td><td>mg/dL</td></tr></table></div>"
        },
        "status": "final",
        "subject": {
          "reference": "urn:uuid:249c4e04-022d-4b10-b0f7-010dd0355cba",
          "display": "Lydia Ward"
        },
        "effectiveDateTime": "2017-01-20T23:08:09Z",
        "specimen": {
          "reference": "urn:uuid:a24ddcd6-8865-4e44-b6a4-943726afc574"
        }
      }
    },
    {
      "fullUrl": "urn:uuid:745fd6b1-45c7-4cdd-81a4-3a9240510a0e",
      "resource": {
        "resourceType": "Observation",
        "id": "745fd6b1-45c7-4cdd-81a4-3a9240510a0e",
        "meta": {
          "profile": [
            "http://hl7.eu/fhir/laboratory/StructureDefinition/Observation-resultslab-eu-lab"
          ]
        },
        "performer": [
          {
            "display": "The Central European Lab"
          }
        ],
        "category": [
          {
            "coding": [
              {
                "system": "http://terminology.hl7.org/CodeSystem/observation-category",
                "code": "laboratory"
              }
            ]
          }
        ],
        "code": {
          "coding": [
            {
              "code": "2947-0",
              "system": "http://loinc.org",
              "display": "Sodium [Moles/volume] in Blood"
            }
          ],
          "text": "Sodium [Moles/volume] in Blood"
        },
        "valueQuantity": {
          "system": "http://unitsofmeasure.org",
          "value": 141.4,
          "unit": "mmol/L",
          "code": "mmol/L"
        },
        "referenceRange": [
          {
            "low": {
              "value": 135,
              "code": "mmol/L",
              "system": "http://unitsofmeasure.org"
            }
          },
          {
            "high": {
              "value": 145,
              "code": "mmol/L",
              "system": "http://unitsofmeasure.org"
            }
          }
        ],
        "text": {
          "status": "generated",
          "div": "<div xmlns=\"http://www.w3.org/1999/xhtml\"><table class=\"hl7__eu__lab__report\"><tr><th>Test</th><th>21-Jan-2017</th><th>Reference&#xA0;Range</th><th>Unit</th></tr><tr><td>Sodium [Moles/volume] in Blood</td><td>141.4</td><td>135 - 145</td><td></td><td>mmol/L</td></tr></table></div>"
        },
        "status": "final",
        "subject": {
          "reference": "urn:uuid:249c4e04-022d-4b10-b0f7-010dd0355cba",
          "display": "Lydia Ward"
        },
        "effectiveDateTime": "2017-01-20T23:08:09Z",
        "specimen": {
          "reference": "urn:uuid:a24ddcd6-8865-4e44-b6a4-943726afc574"
        }
      }
    },
    {
      "fullUrl": "urn:uuid:13583931-4046-4493-b0c4-3a3397ac8f77",
      "resource": {
        "resourceType": "Observation",
        "id": "13583931-4046-4493-b0c4-3a3397ac8f77",
        "meta": {
          "profile": [
            "http://hl7.eu/fhir/laboratory/StructureDefinition/Observation-resultslab-eu-lab"
          ]
        },
        "performer": [
          {
            "display": "The Central European Lab"
          }
        ],
        "category": [
          {
            "coding": [
              {
                "system": "http://terminology.hl7.org/CodeSystem/observation-category",
                "code": "laboratory"
              }
            ]
          }
        ],
        "code": {
          "coding": [
            {
              "code": "6298-4",
              "system": "http://loinc.org",
              "display": "Potassium [Moles/volume] in Blood"
            }
          ],
          "text": "Potassium [Moles/volume] in Blood"
        },
        "valueQuantity": {
          "system": "http://unitsofmeasure.org",
          "value": 4.7,
          "unit": "mmol/L",
          "code": "mmol/L"
        },
        "referenceRange": [
          {
            "low": {
              "value": 3.5,
              "code": "mmol/L",
              "system": "http://unitsofmeasure.org"
            }
          },
          {
            "high": {
              "value": 5.1,
              "code": "mmol/L",
              "system": "http://unitsofmeasure.org"
            }
          }
        ],
        "text": {
          "status": "generated",
          "div": "<div xmlns=\"http://www.w3.org/1999/xhtml\"><table class=\"hl7__eu__lab__report\"><tr><th>Test</th><th>21-Jan-2017</th><th>Reference&#xA0;Range</th><th>Unit</th></tr><tr><td>Potassium [Moles/volume] in Blood</td><td>4.7</td><td>3.5 - 5.1</td><td></td><td>mmol/L</td></tr></table></div>"
        },
        "status": "final",
        "subject": {
          "reference": "urn:uuid:249c4e04-022d-4b10-b0f7-010dd0355cba",
          "display": "Lydia Ward"
        },
        "effectiveDateTime": "2017-01-20T23:08:09Z",
        "specimen": {
          "reference": "urn:uuid:a24ddcd6-8865-4e44-b6a4-943726afc574"
        }
      }
    },
    {
      "fullUrl": "urn:uuid:32d7a1a4-b394-4c24-98f3-c29ec78276f1",
      "resource": {
        "resourceType": "Observation",
        "id": "32d7a1a4-b394-4c24-98f3-c29ec78276f1",
        "meta": {
          "profile": [
            "http://hl7.eu/fhir/laboratory/StructureDefinition/Observation-resultslab-eu-lab"
          ]
        },
        "performer": [
          {
            "display": "The Central European Lab"
          }
        ],
        "category": [
          {
            "coding": [
              {
                "system": "http://terminology.hl7.org/CodeSystem/observation-category",
                "code": "laboratory"
              }
            ]
          }
        ],
        "code": {
          "coding": [
            {
              "code": "2069-3",
              "system": "http://loinc.org",
              "display": "Chloride [Moles/volume] in Blood"
            }
          ],
          "text": "Chloride [Moles/volume] in Blood"
        },
        "valueQuantity": {
          "system": "http://unitsofmeasure.org",
          "value": 109,
          "unit": "mmol/L",
          "code": "mmol/L"
        },
        "referenceRange": [
          {
            "low": {
              "value": 98,
              "code": "mmol/L",
              "system": "http://unitsofmeasure.org"
            }
          },
          {
            "high": {
              "value": 107,
              "code": "mmol/L",
              "system": "http://unitsofmeasure.org"
            }
          }
        ],
        "interpretation": [
          {
            "coding": [
              {
                "code": "H",
                "system": "http://terminology.hl7.org/CodeSystem/v3-ObservationInterpretation",
                "display": "High"
              }
            ]
          }
        ],
        "text": {
          "status": "generated",
          "div": "<div xmlns=\"http://www.w3.org/1999/xhtml\"><table class=\"hl7__eu__lab__report\"><tr><th>Test</th><th>21-Jan-2017</th><th>Reference&#xA0;Range</th><th>Unit</th></tr><tr><td>Chloride [Moles/volume] in Blood</td><td>109.0</td><td>98 - 107</td><td>H</td><td>mmol/L</td></tr></table></div>"
        },
        "status": "final",
        "subject": {
          "reference": "urn:uuid:249c4e04-022d-4b10-b0f7-010dd0355cba",
          "display": "Lydia Ward"
        },
        "effectiveDateTime": "2017-01-20T23:08:09Z",
        "specimen": {
          "reference": "urn:uuid:a24ddcd6-8865-4e44-b6a4-943726afc574"
        }
      }
    },
    {
      "fullUrl": "urn:uuid:cfa1d3e7-064f-4425-be8f-ec6b6796ec57",
      "resource": {
        "resourceType": "Observation",
        "id": "cfa1d3e7-064f-4425-be8f-ec6b6796ec57",
        "meta": {
          "profile": [
            "http://hl7.eu/fhir/laboratory/StructureDefinition/Observation-resultslab-eu-lab"
          ]
        },
        "performer": [
          {
            "display": "The Central European Lab"
          }
        ],
        "category": [
          {
            "coding": [
              {
                "system": "http://terminology.hl7.org/CodeSystem/observation-category",
                "code": "laboratory"
              }
            ]
          }
        ],
        "code": {
          "coding": [
            {
              "code": "20565-8",
              "system": "http://loinc.org",
              "display": "Carbon dioxide, total [Moles/volume] in Blood"
            }
          ],
          "text": "Carbon dioxide, total [Moles/volume] in Blood"
        },
        "valueQuantity": {
          "system": "http://unitsofmeasure.org",
          "value": 20.3,
          "unit": "mmol/L",
          "code": "mmol/L"
        },
        "referenceRange": [
          {
            "low": {
              "value": 22,
              "code": "mmol/L",
              "system": "http://unitsofmeasure.org"
            }
          },
          {
            "high": {
              "value": 32,
              "code": "mmol/L",
              "system": "http://unitsofmeasure.org"
            }
          }
        ],
        "interpretation": [
          {
            "coding": [
              {
                "code": "L",
                "system": "http://terminology.hl7.org/CodeSystem/v3-ObservationInterpretation",
                "display": "Low"
              }
            ]
          }
        ],
        "text": {
          "status": "generated",
          "div": "<div xmlns=\"http://www.w3.org/1999/xhtml\"><table class=\"hl7__eu__lab__report\"><tr><th>Test</th><th>21-Jan-2017</th><th>Reference&#xA0;Range</th><th>Unit</th></tr><tr><td>Carbon dioxide, total [Moles/volume] in Blood</td><td>20.3</td><td>22 - 32</td><td>L</td><td>mmol/L</td></tr></table></div>"
        },
        "status": "final",
        "subject": {
          "reference": "urn:uuid:249c4e04-022d-4b10-b0f7-010dd0355cba",
          "display": "Lydia Ward"
        },
        "effectiveDateTime": "2017-01-20T23:08:09Z",
        "specimen": {
          "reference": "urn:uuid:a24ddcd6-8865-4e44-b6a4-943726afc574"
        }
      }
    },
    {
      "fullUrl": "urn:uuid:3b30d1f5-273d-44ce-995e-67dda56e3f2b",
      "resource": {
        "resourceType": "Device",
        "id": "3b30d1f5-273d-44ce-995e-67dda56e3f2b",
        "deviceName": [
          {
            "name": "SYNDERAI Synthetic Generator",
            "type": "manufacturer-name"
          }
        ],
        "version": [
          {
            "value": "5.0"
          }
        ],
        "text": {
          "status": "generated",
          "div": "<div xmlns=\"http://www.w3.org/1999/xhtml\">SYNDERAI Synthetic Generator v5.0</div>"
        },
        "status": "active\"",
        "distinctIdentifier": "synderai-generator-50",
        "manufacturer": "SYNDERAI Project"
      }
    },
    {
      "fullUrl": "urn:uuid:24f8c0b9-5001-47ee-936e-e32f9fe77d18",
      "resource": {
        "resourceType": "Provenance",
        "id": "24f8c0b9-5001-47ee-936e-e32f9fe77d18",
        "target": [
          {
            "reference": "Patient/249c4e04-022d-4b10-b0f7-010dd0355cba"
          },
          {
            "reference": "Bundle/ba97354f-2dbf-41e8-b534-0bcba2976f87"
          },
          {
            "reference": "Composition/3ea0b82b-5ae2-4105-83e9-2058b629bb2e"
          },
          {
            "reference": "PractitionerRole/609c5c6f-f299-42e1-ae45-736fbb7efcc9"
          },
          {
            "reference": "Practitioner/13b82a8b-a029-4019-ae8c-99ff6faa7fb9"
          },
          {
            "reference": "PractitionerRole/289ec37c-c8f3-4ea4-8e54-03a475a0fe23"
          },
          {
            "reference": "Organization/cbabbd6b-fc59-42fb-959f-6d92ab25ce3e"
          }
        ],
        "activity": {
          "text": "Synthetic Example Data Generation"
        },
        "policy": [
          "https://synderai.net/synderai-synthetic-data-policy"
        ],
        "agent": [
          {
            "type": {
              "text": "author"
            },
            "who": {
              "reference": "Device/3b30d1f5-273d-44ce-995e-67dda56e3f2b"
            }
          }
        ],
        "reason": [
          {
            "text": "Interoperability Testing and Training (non-clinical use)"
          }
        ],
        "text": {
          "status": "generated",
          "div": "<div xmlns=\"http://www.w3.org/1999/xhtml\">Provenance for SYNDERAI Synthetic Example Data Resource</div>"
        },
        "recorded": "2017-01-21T00:08:09Z"
      }
    },
    {
      "fullUrl": "urn:uuid:609c5c6f-f299-42e1-ae45-736fbb7efcc9",
      "resource": {
        "resourceType": "PractitionerRole",
        "id": "609c5c6f-f299-42e1-ae45-736fbb7efcc9",
        "meta": {
          "profile": [
            "http://hl7.eu/fhir/base/StructureDefinition/practitionerRole-eu"
          ]
        },
        "text": {
          "status": "generated",
          "div": "<div xmlns=\"http://www.w3.org/1999/xhtml\">Laboratory Role Id: 609c5c6f-f299-42e1-ae45-736fbb7efcc9</div>"
        },
        "practitioner": {
          "reference": "urn:uuid:13b82a8b-a029-4019-ae8c-99ff6faa7fb9"
        }
      }
    },
    {
      "fullUrl": "urn:uuid:13b82a8b-a029-4019-ae8c-99ff6faa7fb9",
      "resource": {
        "resourceType": "Practitioner",
        "id": "13b82a8b-a029-4019-ae8c-99ff6faa7fb9",
        "meta": {
          "profile": [
            "http://hl7.eu/fhir/base/StructureDefinition/practitioner-eu"
          ]
        },
        "identifier": [
          {
            "assigner": {
              "display": "HL7 Europe"
            },
            "system": "urn:oid:2.16.840.1.113883.2.51.999",
            "value": "8c48ce23-aa28-4a5d-a459-cea38b50d253"
          }
        ],
        "name": [
          {
            "prefix": [
              "dr"
            ],
            "given": [
              "Ex"
            ],
            "family": "Ample"
          }
        ],
        "address": [
          {
            "line": [
              "Laboratoire Central Européenne",
              "Boulevard du Jardin Botanique 32"
            ],
            "postalCode": "1000",
            "city": "Brussels",
            "country": "Belgium"
          }
        ],
        "text": {
          "status": "generated",
          "div": "<div xmlns=\"http://www.w3.org/1999/xhtml\">Laboratory: Laboratoire Central Européenne, 1000 Brussels, Belgium</div>"
        }
      }
    }
  ],
  "type": "document",
  "timestamp": "2017-01-21T00:08:09Z"
}
