{
  "resourceType": "Bundle",
  "id": "c2caa247-7d38-41ed-8aa9-d7642a7fc0d1",
  "meta": {
    "profile": [
      "http://hl7.eu/fhir/laboratory/StructureDefinition/Bundle-eu-lab"
    ]
  },
  "identifier": {
    "assigner": {
      "display": "HL7 Europe"
    },
    "system": "urn:oid:2.16.840.1.113883.2.51.999",
    "value": "9345e46e-efee-4de7-9b1b-bb09d589269e"
  },
  "entry": [
    {
      "fullUrl": "urn:uuid:c13fce07-3dbd-4309-953e-2828c555a5ff",
      "resource": {
        "resourceType": "Composition",
        "id": "c13fce07-3dbd-4309-953e-2828c555a5ff",
        "meta": {
          "profile": [
            "http://hl7.eu/fhir/laboratory/StructureDefinition/Composition-eu-lab"
          ]
        },
        "identifier": {
          "assigner": {
            "display": "HL7 Europe"
          },
          "system": "urn:oid:2.16.840.1.113883.2.51.999",
          "value": "b79a0225-a726-4873-b970-a24287e596ff"
        },
        "author": [
          {
            "reference": "urn:uuid:178c7f3d-a238-455b-9f14-e18a2a3dc5e7"
          }
        ],
        "category": [
          {
            "coding": [
              {
                "code": "26436-6",
                "system": "http://loinc.org",
                "display": "Laboratory studies (set)"
              }
            ]
          }
        ],
        "type": {
          "coding": [
            {
              "code": "11502-2",
              "system": "http://loinc.org",
              "display": "Laboratory report"
            }
          ],
          "text": "Laboratory Report"
        },
        "section": [
          {
            "code": {
              "coding": [
                {
                  "code": "26436-6",
                  "system": "http://loinc.org",
                  "display": "Laboratory studies (set)"
                }
              ],
              "text": "Laboratory studies"
            },
            "section": [
              {
                "code": {
                  "coding": [
                    {
                      "code": "$18723-7",
                      "system": "http://loinc.org",
                      "display": "Hematology studies (set)"
                    }
                  ],
                  "text": "Hematology"
                },
                "entry": [
                  {
                    "reference": "urn:uuid:51200366-8622-4656-a56d-441348fa1cee"
                  },
                  {
                    "reference": "urn:uuid:b73e7b1c-fad2-4ed4-ae1c-7c46e8cbd8de"
                  },
                  {
                    "reference": "urn:uuid:3070c806-7f47-411f-a474-54a7f04f1c72"
                  },
                  {
                    "reference": "urn:uuid:34c30495-34cf-429c-940c-26b8e8290c83"
                  },
                  {
                    "reference": "urn:uuid:ef7a81ca-9b36-4808-91d2-8623ba97e82c"
                  },
                  {
                    "reference": "urn:uuid:9bdb3d30-ecbb-45a8-b456-541ddeba453c"
                  },
                  {
                    "reference": "urn:uuid:a86ff4fa-6ac5-4136-8aff-cc483e0fdfda"
                  },
                  {
                    "reference": "urn:uuid:f589d7f0-61b3-4e44-86e4-8a8ebd17506e"
                  },
                  {
                    "reference": "urn:uuid:ed61ba0f-3da8-4f1d-89b1-4b502d0f1004"
                  },
                  {
                    "reference": "urn:uuid:34ea5a5c-f2bb-4d2c-b120-977d06ff5a02"
                  },
                  {
                    "reference": "urn:uuid:f27c6fd8-2357-4afd-9b4c-791767b6e365"
                  }
                ],
                "text": {
                  "status": "generated",
                  "div": "<div xmlns=\"http://www.w3.org/1999/xhtml\"><h3>Hematology</h3><table class=\"hl7__eu__lab__report\"><thead><tr><th>Test</th><th>29-AUG-2017</th><th>Reference&#xA0;Range</th><th>Unit</th></tr></thead><tbody><tr><td>Leukocytes [#/volume] in Blood by Automated count</td><td>3.9</td><td>3.6 - 10.5</td><td>10*3/uL</td></tr><tr><td>Erythrocytes [#/volume] in Blood by Automated count</td><td>4.9</td><td>4.2 - 5.7</td><td>10*6/uL</td></tr><tr><td>Hemoglobin [Mass/volume] in Blood</td><td><strong>16.8 H</strong></td><td>12.1 - 15.5</td><td>g/dL</td></tr><tr><td>Hematocrit [Volume Fraction] of Blood by Automated count</td><td><strong>35.9 L</strong></td><td>38 - 54</td><td>%</td></tr><tr><td>MCV [Entitic volume] by Automated count</td><td>89.8</td><td>82 - 98</td><td>fL</td></tr><tr><td>MCH [Entitic mass] by Automated count</td><td>31.3</td><td>27 - 34</td><td>pg</td></tr><tr><td>MCHC [Mass/volume] by Automated count</td><td>34.8</td><td>31.5 - 35</td><td>g/dL</td></tr><tr><td>Erythrocyte distribution width [Entitic volume] by Automated count</td><td>43.4</td><td>36 - 55</td><td>fL</td></tr><tr><td>Platelets [#/volume] in Blood by Automated count</td><td>343.7</td><td>150 - 450</td><td>10*3/uL</td></tr><tr><td>Platelet distribution width [Entitic volume] in Blood by Automated count</td><td>279.6</td><td>15 - 450</td><td>fL</td></tr><tr><td>Platelet mean volume [Entitic volume] in Blood by Automated count</td><td>10.1</td><td>7.4 - 12</td><td>fL</td></tr></tbody></table></div>"
                },
                "title": "Hematology"
              },
              {
                "code": {
                  "coding": [
                    {
                      "code": "$18719-5",
                      "system": "http://loinc.org",
                      "display": "Chemistry studies (set)"
                    }
                  ],
                  "text": "Chemistry"
                },
                "entry": [
                  {
                    "reference": "urn:uuid:acfaf3cc-2c16-412a-a19a-d646ed1ae22c"
                  },
                  {
                    "reference": "urn:uuid:db3622e8-134d-482d-a3d1-b61f3ad21fa5"
                  },
                  {
                    "reference": "urn:uuid:7fc2b905-6033-4e42-b2ad-df4af7fce8e8"
                  },
                  {
                    "reference": "urn:uuid:f82a610b-99f9-4785-96a6-02cfb833cb07"
                  },
                  {
                    "reference": "urn:uuid:2de7417d-2b31-4c59-96dc-cbce9d64594a"
                  },
                  {
                    "reference": "urn:uuid:8c40b199-9c16-4c42-97c9-8eccf63b73ab"
                  },
                  {
                    "reference": "urn:uuid:56031e83-c1dc-4e73-87ac-a9d62ffe39f3"
                  },
                  {
                    "reference": "urn:uuid:3d406b2e-58b0-4344-aa2c-1cd734673758"
                  },
                  {
                    "reference": "urn:uuid:46a5dcd9-c510-4803-91fc-fb087679d5eb"
                  },
                  {
                    "reference": "urn:uuid:0caf4f75-e1a7-4662-9aca-45f814c491d4"
                  },
                  {
                    "reference": "urn:uuid:a3f5662c-5e17-495b-8854-8dcd04c7b2ed"
                  },
                  {
                    "reference": "urn:uuid:866098ec-f422-4e01-ade3-872af1be7a15"
                  },
                  {
                    "reference": "urn:uuid:3f94c2c6-c334-42b1-bf66-636d82c2eec6"
                  },
                  {
                    "reference": "urn:uuid:c0ecba2f-4e5b-4831-a030-70046ab7cfbf"
                  },
                  {
                    "reference": "urn:uuid:38714726-9761-4216-b828-bbdbb1ebcaa1"
                  },
                  {
                    "reference": "urn:uuid:830e5c0f-dc5c-45cc-9d75-7689a0013b69"
                  },
                  {
                    "reference": "urn:uuid:b9ce6fbb-6b49-4e1b-b246-54e657655140"
                  },
                  {
                    "reference": "urn:uuid:4bd79560-542b-4653-bc5d-489b6ad3afcf"
                  },
                  {
                    "reference": "urn:uuid:c31630f9-65f5-47cb-b99f-60fc5568a7c9"
                  },
                  {
                    "reference": "urn:uuid:e8893840-4927-4535-b8cc-5f17a7928d5f"
                  },
                  {
                    "reference": "urn:uuid:7d58cc00-d829-472b-80f2-38c52df39f15"
                  },
                  {
                    "reference": "urn:uuid:a6e05e7f-eb0b-4279-8c8b-03a814973176"
                  }
                ],
                "text": {
                  "status": "generated",
                  "div": "<div xmlns=\"http://www.w3.org/1999/xhtml\"><h3>Chemistry</h3><table class=\"hl7__eu__lab__report\"><thead><tr><th>Test</th><th>29-AUG-2017</th><th>Reference&#xA0;Range</th><th>Unit</th></tr></thead><tbody><tr><td>Glucose [Mass/volume] in Serum or Plasma</td><td>88.5</td><td>70 - 99</td><td>mg/dL</td></tr><tr><td>Urea nitrogen [Mass/volume] in Serum or Plasma</td><td>18.2</td><td>7 - 50</td><td>mg/dL</td></tr><tr><td>Creatinine [Mass/volume] in Serum or Plasma</td><td><strong>2.1 H</strong></td><td>0.6 - 1.1</td><td>mg/dL</td></tr><tr><td>Calcium [Mass/volume] in Serum or Plasma</td><td>9.1</td><td>8.6 - 10.4</td><td>mg/dL</td></tr><tr><td>Sodium [Moles/volume] in Serum or Plasma</td><td>140.7</td><td>135 - 145</td><td>mmol/L</td></tr><tr><td>Potassium [Moles/volume] in Serum or Plasma</td><td>4.2</td><td>3.5 - 5.1</td><td>mmol/L</td></tr><tr><td>Chloride [Moles/volume] in Serum or Plasma</td><td>104.1</td><td>98 - 108</td><td>mmol/L</td></tr><tr><td>Carbon dioxide, total [Moles/volume] in Serum or Plasma</td><td>26.0</td><td>22 - 32</td><td>mmol/L</td></tr><tr><td>Ketones [Presence] in Urine by Test strip</td><td>Urine ketone test = +</td><td></td><td></td></tr><tr><td>Hemoglobin A1c/Hemoglobin.total in Blood</td><td><strong>3.2 L</strong></td><td>4 - 6.4</td><td>%</td></tr><tr><td>Glucose [Mass/volume] in Blood</td><td>88.5</td><td>70 - 100</td><td>mg/dL</td></tr><tr><td>Urea nitrogen [Mass/volume] in Blood</td><td>18.2</td><td>7 - 43</td><td>mg/dL</td></tr><tr><td>Creatinine [Mass/volume] in Blood</td><td><strong>1.8 H</strong></td><td>0.6 - 1.1</td><td>mg/dL</td></tr><tr><td>Calcium [Mass/volume] in Blood</td><td>9.1</td><td>8.5 - 10.5</td><td>mg/dL</td></tr><tr><td>Sodium [Moles/volume] in Blood</td><td>140.7</td><td>135 - 145</td><td>mmol/L</td></tr><tr><td>Potassium [Moles/volume] in Blood</td><td>4.2</td><td>3.5 - 5.1</td><td>mmol/L</td></tr><tr><td>Chloride [Moles/volume] in Blood</td><td>104.1</td><td>98 - 108</td><td>mmol/L</td></tr><tr><td>Carbon dioxide, total [Moles/volume] in Blood</td><td>26.0</td><td>22 - 29</td><td>mmol/L</td></tr><tr><td>Cholesterol [Mass/volume] in Serum or Plasma</td><td><strong>293.6 H</strong></td><td>125 - 239</td><td>mg/dL</td></tr><tr><td>Triglyceride [Mass/volume] in Serum or Plasma</td><td>102.6</td><td></td><td>mg/dL</td></tr><tr><td>Cholesterol in LDL [Mass/volume] in Serum or Plasma by Direct assay</td><td><strong>215.7 H</strong></td><td>0 - 130</td><td>mg/dL</td></tr><tr><td>Cholesterol in HDL [Mass/volume] in Serum or Plasma</td><td>57.3</td><td>50 - 100</td><td>mg/dL</td></tr></tbody></table></div>"
                },
                "title": "Chemistry"
              },
              {
                "code": {
                  "coding": [
                    {
                      "code": "$18729-4",
                      "system": "http://loinc.org",
                      "display": "Urinalysis studies (set)"
                    }
                  ],
                  "text": "Urinalysis"
                },
                "entry": [
                  {
                    "reference": "urn:uuid:44f146fe-a30b-4e52-920d-51179b19260c"
                  },
                  {
                    "reference": "urn:uuid:36ecac88-6aa3-40e4-be5e-ffce2a957ffa"
                  },
                  {
                    "reference": "urn:uuid:f3b9ece7-5fde-4872-ac97-386bbabb4066"
                  },
                  {
                    "reference": "urn:uuid:2529df60-79cb-43f8-a56e-ec49b13668c2"
                  },
                  {
                    "reference": "urn:uuid:398f2464-f446-4050-9dc3-29efd3072433"
                  },
                  {
                    "reference": "urn:uuid:50f5b595-ce5b-46e9-956f-3a1cd19f5ae6"
                  },
                  {
                    "reference": "urn:uuid:a79b092c-d47f-4ddf-8aa7-9245f5c61108"
                  },
                  {
                    "reference": "urn:uuid:a9a1ce38-fb2f-481e-8dbc-55669a3f8453"
                  },
                  {
                    "reference": "urn:uuid:a17906df-d17f-441d-8e76-9ab81f350523"
                  },
                  {
                    "reference": "urn:uuid:27004f31-2438-451c-93bc-55a8fe399591"
                  },
                  {
                    "reference": "urn:uuid:09344fb3-2d0d-4064-bc3b-423ba3ccaf31"
                  },
                  {
                    "reference": "urn:uuid:58fc4386-c8ab-428e-bfdc-b6d8c7e6df43"
                  }
                ],
                "text": {
                  "status": "generated",
                  "div": "<div xmlns=\"http://www.w3.org/1999/xhtml\"><h3>Urinalysis</h3><table class=\"hl7__eu__lab__report\"><thead><tr><th>Test</th><th>29-AUG-2017</th><th>Reference&#xA0;Range</th><th>Unit</th></tr></thead><tbody><tr><td>Glucose [Mass/volume] in Urine by Test strip</td><td><strong>2.1 H</strong></td><td>0.8 - 0</td><td>mg/dL</td></tr><tr><td>Glucose [Presence] in Urine by Test strip</td><td>++</td><td></td><td></td></tr><tr><td>Bilirubin.total [Mass/volume] in Urine by Test strip</td><td>0.3</td><td>0 - 1</td><td>mg/dL</td></tr><tr><td>Bilirubin.total [Presence] in Urine by Test strip</td><td>Finding of bilirubin in urine</td><td></td><td></td></tr><tr><td>Ketones [Mass/volume] in Urine by Test strip</td><td><strong>7.2 H</strong></td><td>0 - 4</td><td>mg/dL</td></tr><tr><td>Specific gravity of Urine by Test strip</td><td><strong>1.0 L</strong></td><td>1.005 - 1.03</td><td>{nominal}</td></tr><tr><td>pH of Urine by Test strip</td><td>6.7</td><td>4.6 - 7</td><td>pH</td></tr><tr><td>Protein [Mass/volume] in Urine by Test strip</td><td><strong>261.6 H</strong></td><td>0 - 14</td><td>mg/dL</td></tr><tr><td>Protein [Presence] in Urine by Test strip</td><td>Urine protein test = ++</td><td></td><td></td></tr><tr><td>Nitrite [Presence] in Urine by Test strip</td><td>Urine nitrite negative</td><td></td><td></td></tr><tr><td>Hemoglobin [Presence] in Urine by Test strip</td><td>Urine blood test = negative</td><td></td><td></td></tr><tr><td>Leukocyte esterase [Presence] in Urine by Test strip</td><td>Urine leukocyte test negative</td><td></td><td></td></tr></tbody></table></div>"
                },
                "title": "Urinalysis"
              },
              {
                "code": {
                  "coding": [
                    {
                      "code": "$LP7846-1",
                      "system": "http://loinc.org",
                      "display": "Specimen information"
                    }
                  ],
                  "text": "Specimen information"
                },
                "entry": [
                  {
                    "reference": "urn:uuid:4d5c353d-ac21-4871-9a6b-b662cf6c0347"
                  },
                  {
                    "reference": "urn:uuid:76670504-418c-47d7-862f-6dd7528b5b38"
                  },
                  {
                    "reference": "urn:uuid:937fdd2e-e957-4bb7-af48-e04cfb0b592f"
                  },
                  {
                    "reference": "urn:uuid:51adee85-5c71-4122-9161-91c2a88ff989"
                  }
                ],
                "text": {
                  "status": "generated",
                  "div": "<div xmlns=\"http://www.w3.org/1999/xhtml\"><h3>Specimen information</h3><table class=\"hl7__eu__lab__report\"><thead><tr><th>Test</th><th>29-AUG-2017</th><th>Specimen</th><th></th></tr></thead><tbody><tr><td>Appearance of Urine</td><td>Cloudy urine</td><td>Urine</td><td></td></tr><tr><td>Odor of Urine</td><td>Urine smell ammoniacal</td><td>Urine</td><td></td></tr><tr><td>Clarity of Urine</td><td>Translucent</td><td>Urine</td><td></td></tr><tr><td>Color of Urine</td><td>Brown color</td><td>Urine</td><td></td></tr></tbody></table></div>"
                },
                "title": "Specimen information"
              }
            ],
            "title": "Laboratory Report"
          },
          {
            "text": {
              "status": "generated",
              "div": "<div xmlns=\"http://www.w3.org/1999/xhtml\"><h3>Annotation</h3><table class=\"hl7__eu__lab__report\"><tr><th>Conclusion and Recommendations based on this report and previous findings known to us</th></tr><tr><td>The patient shows elevated creatinine, proteinuria, and abnormal urine findings (cloudy, brown, low specific gravity, ketonuria, glucosuria), suggesting possible renal dysfunction or nephropathy. Dyslipidemia is present (high total and LDL cholesterol). Hemoglobin is high but hematocrit is low, possibly indicating hemoconcentration or lab artifact. HbA1c is low despite glucosuria, which may warrant further investigation. No evidence of infection in urine. Recommend nephrology evaluation and further assessment of renal and metabolic status.</td></tr></table></div>"
            },
            "code": {
              "coding": [
                {
                  "system": "http://loinc.org",
                  "code": "48767-8",
                  "display": "Annotation comment"
                }
              ]
            },
            "title": "Annotation comment"
          }
        ],
        "status": "final",
        "subject": {
          "reference": "urn:uuid:0fcf1b5b-13e8-47fe-a60d-636dd9818b35",
          "display": "Meaghan Neary"
        },
        "date": "2017-08-29T00:11:04Z",
        "title": "Laboratory Report",
        "confidentiality": "N"
      }
    },
    {
      "fullUrl": "urn:uuid:528c44a6-c867-4a51-acc6-b173ffe1cf5e",
      "resource": {
        "resourceType": "DiagnosticReport",
        "id": "528c44a6-c867-4a51-acc6-b173ffe1cf5e",
        "meta": {
          "profile": [
            "http://hl7.eu/fhir/laboratory/StructureDefinition/DiagnosticReport-eu-lab"
          ]
        },
        "identifier": [
          {
            "assigner": {
              "display": "HL7 Europe"
            },
            "system": "urn:oid:2.16.840.1.113883.2.51.999",
            "value": "d48f5440-1f27-4a97-bbae-c1cf7cff93ea"
          }
        ],
        "extension": [
          {
            "url": "http://hl7.org/fhir/5.0/StructureDefinition/extension-DiagnosticReport.composition",
            "valueReference": {
              "reference": "urn:uuid:b79a0225-a726-4873-b970-a24287e596ff"
            }
          }
        ],
        "category": [
          {
            "coding": [
              {
                "code": "26436-6",
                "system": "http://loinc.org",
                "display": "Laboratory studies (set)"
              }
            ]
          }
        ],
        "specimen": [
          {
            "reference": "urn:uuid:e01ba7e3-062e-4a29-afb4-08b8ae972d6e"
          },
          {
            "reference": "urn:uuid:a979f350-7ea3-4e4d-b70e-a0c9fc880d81"
          },
          {
            "reference": "urn:uuid:bc05c160-e533-4ca2-9d12-e72139251940"
          },
          {
            "reference": "urn:uuid:bc05c160-e533-4ca2-9d12-e72139251940"
          }
        ],
        "result": [
          {
            "reference": "urn:uuid:acfaf3cc-2c16-412a-a19a-d646ed1ae22c"
          },
          {
            "reference": "urn:uuid:db3622e8-134d-482d-a3d1-b61f3ad21fa5"
          },
          {
            "reference": "urn:uuid:7fc2b905-6033-4e42-b2ad-df4af7fce8e8"
          },
          {
            "reference": "urn:uuid:f82a610b-99f9-4785-96a6-02cfb833cb07"
          },
          {
            "reference": "urn:uuid:2de7417d-2b31-4c59-96dc-cbce9d64594a"
          },
          {
            "reference": "urn:uuid:8c40b199-9c16-4c42-97c9-8eccf63b73ab"
          },
          {
            "reference": "urn:uuid:56031e83-c1dc-4e73-87ac-a9d62ffe39f3"
          },
          {
            "reference": "urn:uuid:3d406b2e-58b0-4344-aa2c-1cd734673758"
          },
          {
            "reference": "urn:uuid:4d5c353d-ac21-4871-9a6b-b662cf6c0347"
          },
          {
            "reference": "urn:uuid:76670504-418c-47d7-862f-6dd7528b5b38"
          },
          {
            "reference": "urn:uuid:937fdd2e-e957-4bb7-af48-e04cfb0b592f"
          },
          {
            "reference": "urn:uuid:51adee85-5c71-4122-9161-91c2a88ff989"
          },
          {
            "reference": "urn:uuid:44f146fe-a30b-4e52-920d-51179b19260c"
          },
          {
            "reference": "urn:uuid:36ecac88-6aa3-40e4-be5e-ffce2a957ffa"
          },
          {
            "reference": "urn:uuid:f3b9ece7-5fde-4872-ac97-386bbabb4066"
          },
          {
            "reference": "urn:uuid:2529df60-79cb-43f8-a56e-ec49b13668c2"
          },
          {
            "reference": "urn:uuid:398f2464-f446-4050-9dc3-29efd3072433"
          },
          {
            "reference": "urn:uuid:46a5dcd9-c510-4803-91fc-fb087679d5eb"
          },
          {
            "reference": "urn:uuid:50f5b595-ce5b-46e9-956f-3a1cd19f5ae6"
          },
          {
            "reference": "urn:uuid:a79b092c-d47f-4ddf-8aa7-9245f5c61108"
          },
          {
            "reference": "urn:uuid:a9a1ce38-fb2f-481e-8dbc-55669a3f8453"
          },
          {
            "reference": "urn:uuid:a17906df-d17f-441d-8e76-9ab81f350523"
          },
          {
            "reference": "urn:uuid:27004f31-2438-451c-93bc-55a8fe399591"
          },
          {
            "reference": "urn:uuid:09344fb3-2d0d-4064-bc3b-423ba3ccaf31"
          },
          {
            "reference": "urn:uuid:58fc4386-c8ab-428e-bfdc-b6d8c7e6df43"
          },
          {
            "reference": "urn:uuid:0caf4f75-e1a7-4662-9aca-45f814c491d4"
          },
          {
            "reference": "urn:uuid:a3f5662c-5e17-495b-8854-8dcd04c7b2ed"
          },
          {
            "reference": "urn:uuid:866098ec-f422-4e01-ade3-872af1be7a15"
          },
          {
            "reference": "urn:uuid:3f94c2c6-c334-42b1-bf66-636d82c2eec6"
          },
          {
            "reference": "urn:uuid:c0ecba2f-4e5b-4831-a030-70046ab7cfbf"
          },
          {
            "reference": "urn:uuid:38714726-9761-4216-b828-bbdbb1ebcaa1"
          },
          {
            "reference": "urn:uuid:830e5c0f-dc5c-45cc-9d75-7689a0013b69"
          },
          {
            "reference": "urn:uuid:b9ce6fbb-6b49-4e1b-b246-54e657655140"
          },
          {
            "reference": "urn:uuid:4bd79560-542b-4653-bc5d-489b6ad3afcf"
          },
          {
            "reference": "urn:uuid:c31630f9-65f5-47cb-b99f-60fc5568a7c9"
          },
          {
            "reference": "urn:uuid:e8893840-4927-4535-b8cc-5f17a7928d5f"
          },
          {
            "reference": "urn:uuid:7d58cc00-d829-472b-80f2-38c52df39f15"
          },
          {
            "reference": "urn:uuid:a6e05e7f-eb0b-4279-8c8b-03a814973176"
          },
          {
            "reference": "urn:uuid:51200366-8622-4656-a56d-441348fa1cee"
          },
          {
            "reference": "urn:uuid:b73e7b1c-fad2-4ed4-ae1c-7c46e8cbd8de"
          },
          {
            "reference": "urn:uuid:3070c806-7f47-411f-a474-54a7f04f1c72"
          },
          {
            "reference": "urn:uuid:34c30495-34cf-429c-940c-26b8e8290c83"
          },
          {
            "reference": "urn:uuid:ef7a81ca-9b36-4808-91d2-8623ba97e82c"
          },
          {
            "reference": "urn:uuid:9bdb3d30-ecbb-45a8-b456-541ddeba453c"
          },
          {
            "reference": "urn:uuid:a86ff4fa-6ac5-4136-8aff-cc483e0fdfda"
          },
          {
            "reference": "urn:uuid:f589d7f0-61b3-4e44-86e4-8a8ebd17506e"
          },
          {
            "reference": "urn:uuid:ed61ba0f-3da8-4f1d-89b1-4b502d0f1004"
          },
          {
            "reference": "urn:uuid:34ea5a5c-f2bb-4d2c-b120-977d06ff5a02"
          },
          {
            "reference": "urn:uuid:f27c6fd8-2357-4afd-9b4c-791767b6e365"
          }
        ],
        "status": "registered",
        "code": {
          "coding": [
            {
              "code": "11502-2",
              "system": "http://loinc.org",
              "display": "Laboratory report"
            }
          ]
        },
        "subject": {
          "reference": "urn:uuid:0fcf1b5b-13e8-47fe-a60d-636dd9818b35",
          "display": "Meaghan Neary"
        }
      }
    },
    {
      "fullUrl": "urn:uuid:0fcf1b5b-13e8-47fe-a60d-636dd9818b35",
      "resource": {
        "resourceType": "Patient",
        "id": "0fcf1b5b-13e8-47fe-a60d-636dd9818b35",
        "meta": {
          "security": [
            {
              "system": "http://terminology.hl7.org/CodeSystem/v3-ActReason",
              "code": "HTEST"
            },
            {
              "system": "http://terminology.hl7.org/CodeSystem/v3-ActReason",
              "code": "TRAIN"
            }
          ],
          "tag": [
            {
              "system": "https://synderai.net/fhir/CodeSystem/tags",
              "code": "synthetic",
              "display": "SYNDERAI Synthetic data"
            }
          ],
          "profile": [
            "http://hl7.eu/fhir/base/StructureDefinition/patient-eu-core"
          ]
        },
        "identifier": [
          {
            "type": {
              "coding": [
                {
                  "code": "PT",
                  "system": "http://terminology.hl7.org/CodeSystem/v2-0203"
                }
              ]
            },
            "system": "http://ec.europa.eu/identifier/eci",
            "value": "1586-567257-8"
          },
          {
            "type": {
              "coding": [
                {
                  "code": "MR",
                  "system": "http://terminology.hl7.org/CodeSystem/v2-0203"
                }
              ]
            },
            "system": "http://local.setting.eu/identifier",
            "value": "443e6379-f231-b364-3ccb-644740a1aa2a"
          }
        ],
        "name": [
          {
            "family": "Neary"
          },
          {
            "given": [
              "Meaghan"
            ]
          },
          {
            "text": "Meaghan Neary"
          }
        ],
        "address": [
          {
            "line": [
              "64 Linskey Street"
            ],
            "use": "home",
            "type": "physical",
            "postalCode": "D02",
            "city": "Dublin",
            "country": "Ireland"
          }
        ],
        "telecom": [
          {
            "system": "phone",
            "value": "001-967-573-0911x465"
          }
        ],
        "extension": [
          {
            "url": "http://hl7.org/fhir/StructureDefinition/patient-nationality",
            "valueCodeableConcept": {
              "coding": [
                {
                  "code": "IE",
                  "system": "http://hl7.org/fhir/ValueSet/country"
                }
              ]
            }
          }
        ],
        "text": {
          "status": "generated",
          "div": "<div xmlns=\"http://www.w3.org/1999/xhtml\"><table class=\"hl7__ips\"><tr><td>Meaghan Neary</td><td>female</td><td>19-Dec-1960</td></tr></table></div>"
        },
        "gender": "female",
        "birthDate": "1960-12-19"
      }
    },
    {
      "fullUrl": "urn:uuid:8f0a4430-1fc6-41b8-bc0b-3a139ddea81a",
      "resource": {
        "resourceType": "ServiceRequest",
        "id": "8f0a4430-1fc6-41b8-bc0b-3a139ddea81a",
        "meta": {
          "profile": [
            "http://hl7.eu/fhir/laboratory/StructureDefinition/ServiceRequest-eu-lab"
          ]
        },
        "identifier": [
          {
            "system": "http://example.org",
            "value": "e2429a0f-5622-4e6f-bba4-4624db69ccaf"
          }
        ],
        "specimen": [
          {
            "reference": "urn:uuid:e01ba7e3-062e-4a29-afb4-08b8ae972d6e"
          },
          {
            "reference": "urn:uuid:a979f350-7ea3-4e4d-b70e-a0c9fc880d81"
          },
          {
            "reference": "urn:uuid:bc05c160-e533-4ca2-9d12-e72139251940"
          }
        ],
        "reasonCode": [
          {
            "coding": [
              {
                "code": "55822004",
                "system": "http://snomed.info/sct",
                "display": "Hyperlipidemia"
              }
            ]
          },
          {
            "coding": [
              {
                "code": "433144002",
                "system": "http://snomed.info/sct",
                "display": "Chronic kidney disease stage 3"
              }
            ]
          },
          {
            "coding": [
              {
                "code": "157141000119108",
                "system": "http://snomed.info/sct",
                "display": "Proteinuria due to type 2 diabetes mellitus"
              }
            ]
          },
          {
            "coding": [
              {
                "code": "431856006",
                "system": "http://snomed.info/sct",
                "display": "Chronic kidney disease stage 2"
              }
            ]
          },
          {
            "coding": [
              {
                "code": "90781000119102",
                "system": "http://snomed.info/sct",
                "display": "Microalbuminuria due to type 2 diabetes mellitus"
              }
            ]
          },
          {
            "coding": [
              {
                "code": "127013003",
                "system": "http://snomed.info/sct",
                "display": "Disorder of kidney due to diabetes mellitus"
              }
            ]
          },
          {
            "coding": [
              {
                "code": "431855005",
                "system": "http://snomed.info/sct",
                "display": "Chronic kidney disease stage 1"
              }
            ]
          },
          {
            "coding": [
              {
                "code": "237602007",
                "system": "http://snomed.info/sct",
                "display": "Metabolic syndrome X"
              }
            ]
          },
          {
            "coding": [
              {
                "code": "271737000",
                "system": "http://snomed.info/sct",
                "display": "Anemia"
              }
            ]
          },
          {
            "coding": [
              {
                "code": "15777000",
                "system": "http://snomed.info/sct",
                "display": "Prediabetes"
              }
            ]
          },
          {
            "coding": [
              {
                "code": "59621000",
                "system": "http://snomed.info/sct",
                "display": "Essential hypertension"
              }
            ]
          }
        ],
        "status": "active",
        "intent": "order",
        "code": {
          "coding": [
            {
              "code": "108252007",
              "system": "http://snomed.info/sct",
              "display": "Laboratory procedure"
            }
          ]
        },
        "subject": {
          "reference": "urn:uuid:0fcf1b5b-13e8-47fe-a60d-636dd9818b35",
          "display": "Meaghan Neary"
        },
        "requester": {
          "reference": "urn:uuid:fc69a42e-d045-44a8-a636-69bd89cb4121"
        }
      }
    },
    {
      "fullUrl": "urn:uuid:fc69a42e-d045-44a8-a636-69bd89cb4121",
      "resource": {
        "resourceType": "PractitionerRole",
        "id": "fc69a42e-d045-44a8-a636-69bd89cb4121",
        "meta": {
          "profile": [
            "http://hl7.eu/fhir/base/StructureDefinition/practitionerRole-eu"
          ]
        },
        "text": {
          "status": "generated",
          "div": "<div xmlns=\"http://www.w3.org/1999/xhtml\">Provider Role Id: fc69a42e-d045-44a8-a636-69bd89cb4121</div>"
        },
        "organization": {
          "reference": "urn:uuid:da791459-9ee5-4d72-bdb3-6d46c3202585"
        }
      }
    },
    {
      "fullUrl": "urn:uuid:da791459-9ee5-4d72-bdb3-6d46c3202585",
      "resource": {
        "resourceType": "Organization",
        "id": "da791459-9ee5-4d72-bdb3-6d46c3202585",
        "meta": {
          "profile": [
            "http://hl7.eu/fhir/base/StructureDefinition/organization-eu"
          ]
        },
        "identifier": [
          {
            "assigner": {
              "display": "HL7 Europe"
            },
            "system": "urn:oid:2.16.840.1.113883.2.51.999",
            "value": "9f04af74-fe42-4986-89cb-468b9ec6d5c1"
          }
        ],
        "address": [
          {
            "line": [
              "Parnell Square West nan"
            ],
            "city": "Dublin",
            "postalCode": "D01",
            "country": "Ireland"
          }
        ],
        "text": {
          "status": "generated",
          "div": "<div xmlns=\"http://www.w3.org/1999/xhtml\">Provider Organization: Rotunda Hospital</div>"
        },
        "name": "Rotunda Hospital"
      }
    },
    {
      "fullUrl": "urn:uuid:e01ba7e3-062e-4a29-afb4-08b8ae972d6e",
      "resource": {
        "resourceType": "Specimen",
        "id": "e01ba7e3-062e-4a29-afb4-08b8ae972d6e",
        "meta": {
          "profile": [
            "http://hl7.eu/fhir/laboratory/StructureDefinition/Specimen-eu-lab"
          ]
        },
        "collection": {
          "collectedDateTime": "2017-08-28"
        },
        "text": {
          "status": "generated",
          "div": "<div xmlns=\"http://www.w3.org/1999/xhtml\"><table class=\"hl7__eu__lab__report\"><tr><th>Specimen</th><th>Collection Date</th></tr><tr><td>Acellular blood (serum or plasma) specimen</td><td><span class=\"nb\">28-Aug-2017</span></td></tr></table></div>"
        },
        "type": {
          "coding": [
            {
              "code": "122592007",
              "system": "http://snomed.info/sct",
              "display": "Acellular blood (serum or plasma) specimen"
            }
          ]
        }
      }
    },
    {
      "fullUrl": "urn:uuid:a979f350-7ea3-4e4d-b70e-a0c9fc880d81",
      "resource": {
        "resourceType": "Specimen",
        "id": "a979f350-7ea3-4e4d-b70e-a0c9fc880d81",
        "meta": {
          "profile": [
            "http://hl7.eu/fhir/laboratory/StructureDefinition/Specimen-eu-lab"
          ]
        },
        "collection": {
          "collectedDateTime": "2017-08-28"
        },
        "text": {
          "status": "generated",
          "div": "<div xmlns=\"http://www.w3.org/1999/xhtml\"><table class=\"hl7__eu__lab__report\"><tr><th>Specimen</th><th>Collection Date</th></tr><tr><td>Urine specimen</td><td><span class=\"nb\">28-Aug-2017</span></td></tr></table></div>"
        },
        "type": {
          "coding": [
            {
              "code": "122575003",
              "system": "http://snomed.info/sct",
              "display": "Urine specimen"
            }
          ]
        }
      }
    },
    {
      "fullUrl": "urn:uuid:bc05c160-e533-4ca2-9d12-e72139251940",
      "resource": {
        "resourceType": "Specimen",
        "id": "bc05c160-e533-4ca2-9d12-e72139251940",
        "meta": {
          "profile": [
            "http://hl7.eu/fhir/laboratory/StructureDefinition/Specimen-eu-lab"
          ]
        },
        "collection": {
          "collectedDateTime": "2017-08-28"
        },
        "text": {
          "status": "generated",
          "div": "<div xmlns=\"http://www.w3.org/1999/xhtml\"><table class=\"hl7__eu__lab__report\"><tr><th>Specimen</th><th>Collection Date</th></tr><tr><td>Whole blood specimen (specimen)</td><td><span class=\"nb\">28-Aug-2017</span></td></tr></table></div>"
        },
        "type": {
          "coding": [
            {
              "code": "258580003",
              "system": "http://snomed.info/sct",
              "display": "Whole blood specimen (specimen)"
            }
          ]
        }
      }
    },
    {
      "fullUrl": "urn:uuid:bc05c160-e533-4ca2-9d12-e72139251940",
      "resource": {
        "resourceType": "Specimen",
        "id": "bc05c160-e533-4ca2-9d12-e72139251940",
        "meta": {
          "profile": [
            "http://hl7.eu/fhir/laboratory/StructureDefinition/Specimen-eu-lab"
          ]
        },
        "collection": {
          "collectedDateTime": "2017-08-28"
        },
        "text": {
          "status": "generated",
          "div": "<div xmlns=\"http://www.w3.org/1999/xhtml\"><table class=\"hl7__eu__lab__report\"><tr><th>Specimen</th><th>Collection Date</th></tr><tr><td>Whole blood specimen (specimen)</td><td><span class=\"nb\">28-Aug-2017</span></td></tr></table></div>"
        },
        "type": {
          "coding": [
            {
              "code": "258580003",
              "system": "http://snomed.info/sct",
              "display": "Whole blood specimen (specimen)"
            }
          ]
        }
      }
    },
    {
      "fullUrl": "urn:uuid:acfaf3cc-2c16-412a-a19a-d646ed1ae22c",
      "resource": {
        "resourceType": "Observation",
        "id": "acfaf3cc-2c16-412a-a19a-d646ed1ae22c",
        "meta": {
          "profile": [
            "http://hl7.eu/fhir/laboratory/StructureDefinition/Observation-resultslab-eu-lab"
          ]
        },
        "performer": [
          {
            "display": "The Central European Lab"
          }
        ],
        "category": [
          {
            "coding": [
              {
                "system": "http://terminology.hl7.org/CodeSystem/observation-category",
                "code": "laboratory"
              }
            ]
          }
        ],
        "code": {
          "coding": [
            {
              "code": "2345-7",
              "system": "http://loinc.org",
              "display": "Glucose [Mass/volume] in Serum or Plasma"
            }
          ],
          "text": "Glucose [Mass/volume] in Serum or Plasma"
        },
        "valueQuantity": {
          "system": "http://unitsofmeasure.org",
          "value": 88.5,
          "unit": "mg/dL",
          "code": "mg/dL"
        },
        "referenceRange": [
          {
            "low": {
              "value": 70,
              "code": "mg/dL",
              "system": "http://unitsofmeasure.org"
            }
          },
          {
            "high": {
              "value": 99,
              "code": "mg/dL",
              "system": "http://unitsofmeasure.org"
            }
          }
        ],
        "text": {
          "status": "generated",
          "div": "<div xmlns=\"http://www.w3.org/1999/xhtml\"><table class=\"hl7__eu__lab__report\"><tr><th>Test</th><th>29-Aug-2017</th><th>Reference&#xA0;Range</th><th>Unit</th></tr><tr><td>Glucose [Mass/volume] in Serum or Plasma</td><td>88.5</td><td>70 - 99</td><td></td><td>mg/dL</td></tr></table></div>"
        },
        "status": "final",
        "subject": {
          "reference": "urn:uuid:0fcf1b5b-13e8-47fe-a60d-636dd9818b35",
          "display": "Meaghan Neary"
        },
        "effectiveDateTime": "2017-08-28T22:11:04Z",
        "specimen": {
          "reference": "urn:uuid:e01ba7e3-062e-4a29-afb4-08b8ae972d6e"
        }
      }
    },
    {
      "fullUrl": "urn:uuid:db3622e8-134d-482d-a3d1-b61f3ad21fa5",
      "resource": {
        "resourceType": "Observation",
        "id": "db3622e8-134d-482d-a3d1-b61f3ad21fa5",
        "meta": {
          "profile": [
            "http://hl7.eu/fhir/laboratory/StructureDefinition/Observation-resultslab-eu-lab"
          ]
        },
        "performer": [
          {
            "display": "The Central European Lab"
          }
        ],
        "category": [
          {
            "coding": [
              {
                "system": "http://terminology.hl7.org/CodeSystem/observation-category",
                "code": "laboratory"
              }
            ]
          }
        ],
        "code": {
          "coding": [
            {
              "code": "3094-0",
              "system": "http://loinc.org",
              "display": "Urea nitrogen [Mass/volume] in Serum or Plasma"
            }
          ],
          "text": "Urea nitrogen [Mass/volume] in Serum or Plasma"
        },
        "valueQuantity": {
          "system": "http://unitsofmeasure.org",
          "value": 18.2,
          "unit": "mg/dL",
          "code": "mg/dL"
        },
        "referenceRange": [
          {
            "low": {
              "value": 7,
              "code": "mg/dL",
              "system": "http://unitsofmeasure.org"
            }
          },
          {
            "high": {
              "value": 50,
              "code": "mg/dL",
              "system": "http://unitsofmeasure.org"
            }
          }
        ],
        "text": {
          "status": "generated",
          "div": "<div xmlns=\"http://www.w3.org/1999/xhtml\"><table class=\"hl7__eu__lab__report\"><tr><th>Test</th><th>29-Aug-2017</th><th>Reference&#xA0;Range</th><th>Unit</th></tr><tr><td>Urea nitrogen [Mass/volume] in Serum or Plasma</td><td>18.2</td><td>7 - 50</td><td></td><td>mg/dL</td></tr></table></div>"
        },
        "status": "final",
        "subject": {
          "reference": "urn:uuid:0fcf1b5b-13e8-47fe-a60d-636dd9818b35",
          "display": "Meaghan Neary"
        },
        "effectiveDateTime": "2017-08-28T22:11:04Z",
        "specimen": {
          "reference": "urn:uuid:e01ba7e3-062e-4a29-afb4-08b8ae972d6e"
        }
      }
    },
    {
      "fullUrl": "urn:uuid:7fc2b905-6033-4e42-b2ad-df4af7fce8e8",
      "resource": {
        "resourceType": "Observation",
        "id": "7fc2b905-6033-4e42-b2ad-df4af7fce8e8",
        "meta": {
          "profile": [
            "http://hl7.eu/fhir/laboratory/StructureDefinition/Observation-resultslab-eu-lab"
          ]
        },
        "performer": [
          {
            "display": "The Central European Lab"
          }
        ],
        "category": [
          {
            "coding": [
              {
                "system": "http://terminology.hl7.org/CodeSystem/observation-category",
                "code": "laboratory"
              }
            ]
          }
        ],
        "code": {
          "coding": [
            {
              "code": "2160-0",
              "system": "http://loinc.org",
              "display": "Creatinine [Mass/volume] in Serum or Plasma"
            }
          ],
          "text": "Creatinine [Mass/volume] in Serum or Plasma"
        },
        "valueQuantity": {
          "system": "http://unitsofmeasure.org",
          "value": 2.1,
          "unit": "mg/dL",
          "code": "mg/dL"
        },
        "referenceRange": [
          {
            "low": {
              "value": 0.6,
              "code": "mg/dL",
              "system": "http://unitsofmeasure.org"
            }
          },
          {
            "high": {
              "value": 1.1,
              "code": "mg/dL",
              "system": "http://unitsofmeasure.org"
            }
          }
        ],
        "interpretation": [
          {
            "coding": [
              {
                "code": "H",
                "system": "http://terminology.hl7.org/CodeSystem/v3-ObservationInterpretation",
                "display": "High"
              }
            ]
          }
        ],
        "text": {
          "status": "generated",
          "div": "<div xmlns=\"http://www.w3.org/1999/xhtml\"><table class=\"hl7__eu__lab__report\"><tr><th>Test</th><th>29-Aug-2017</th><th>Reference&#xA0;Range</th><th>Unit</th></tr><tr><td>Creatinine [Mass/volume] in Serum or Plasma</td><td>2.1</td><td>0.6 - 1.1</td><td>H</td><td>mg/dL</td></tr></table></div>"
        },
        "status": "final",
        "subject": {
          "reference": "urn:uuid:0fcf1b5b-13e8-47fe-a60d-636dd9818b35",
          "display": "Meaghan Neary"
        },
        "effectiveDateTime": "2017-08-28T22:11:04Z",
        "specimen": {
          "reference": "urn:uuid:e01ba7e3-062e-4a29-afb4-08b8ae972d6e"
        }
      }
    },
    {
      "fullUrl": "urn:uuid:f82a610b-99f9-4785-96a6-02cfb833cb07",
      "resource": {
        "resourceType": "Observation",
        "id": "f82a610b-99f9-4785-96a6-02cfb833cb07",
        "meta": {
          "profile": [
            "http://hl7.eu/fhir/laboratory/StructureDefinition/Observation-resultslab-eu-lab"
          ]
        },
        "performer": [
          {
            "display": "The Central European Lab"
          }
        ],
        "category": [
          {
            "coding": [
              {
                "system": "http://terminology.hl7.org/CodeSystem/observation-category",
                "code": "laboratory"
              }
            ]
          }
        ],
        "code": {
          "coding": [
            {
              "code": "17861-6",
              "system": "http://loinc.org",
              "display": "Calcium [Mass/volume] in Serum or Plasma"
            }
          ],
          "text": "Calcium [Mass/volume] in Serum or Plasma"
        },
        "valueQuantity": {
          "system": "http://unitsofmeasure.org",
          "value": 9.1,
          "unit": "mg/dL",
          "code": "mg/dL"
        },
        "referenceRange": [
          {
            "low": {
              "value": 8.6,
              "code": "mg/dL",
              "system": "http://unitsofmeasure.org"
            }
          },
          {
            "high": {
              "value": 10.4,
              "code": "mg/dL",
              "system": "http://unitsofmeasure.org"
            }
          }
        ],
        "text": {
          "status": "generated",
          "div": "<div xmlns=\"http://www.w3.org/1999/xhtml\"><table class=\"hl7__eu__lab__report\"><tr><th>Test</th><th>29-Aug-2017</th><th>Reference&#xA0;Range</th><th>Unit</th></tr><tr><td>Calcium [Mass/volume] in Serum or Plasma</td><td>9.1</td><td>8.6 - 10.4</td><td></td><td>mg/dL</td></tr></table></div>"
        },
        "status": "final",
        "subject": {
          "reference": "urn:uuid:0fcf1b5b-13e8-47fe-a60d-636dd9818b35",
          "display": "Meaghan Neary"
        },
        "effectiveDateTime": "2017-08-28T22:11:04Z",
        "specimen": {
          "reference": "urn:uuid:e01ba7e3-062e-4a29-afb4-08b8ae972d6e"
        }
      }
    },
    {
      "fullUrl": "urn:uuid:2de7417d-2b31-4c59-96dc-cbce9d64594a",
      "resource": {
        "resourceType": "Observation",
        "id": "2de7417d-2b31-4c59-96dc-cbce9d64594a",
        "meta": {
          "profile": [
            "http://hl7.eu/fhir/laboratory/StructureDefinition/Observation-resultslab-eu-lab"
          ]
        },
        "performer": [
          {
            "display": "The Central European Lab"
          }
        ],
        "category": [
          {
            "coding": [
              {
                "system": "http://terminology.hl7.org/CodeSystem/observation-category",
                "code": "laboratory"
              }
            ]
          }
        ],
        "code": {
          "coding": [
            {
              "code": "2951-2",
              "system": "http://loinc.org",
              "display": "Sodium [Moles/volume] in Serum or Plasma"
            }
          ],
          "text": "Sodium [Moles/volume] in Serum or Plasma"
        },
        "valueQuantity": {
          "system": "http://unitsofmeasure.org",
          "value": 140.7,
          "unit": "mmol/L",
          "code": "mmol/L"
        },
        "referenceRange": [
          {
            "low": {
              "value": 135,
              "code": "mmol/L",
              "system": "http://unitsofmeasure.org"
            }
          },
          {
            "high": {
              "value": 145,
              "code": "mmol/L",
              "system": "http://unitsofmeasure.org"
            }
          }
        ],
        "text": {
          "status": "generated",
          "div": "<div xmlns=\"http://www.w3.org/1999/xhtml\"><table class=\"hl7__eu__lab__report\"><tr><th>Test</th><th>29-Aug-2017</th><th>Reference&#xA0;Range</th><th>Unit</th></tr><tr><td>Sodium [Moles/volume] in Serum or Plasma</td><td>140.7</td><td>135 - 145</td><td></td><td>mmol/L</td></tr></table></div>"
        },
        "status": "final",
        "subject": {
          "reference": "urn:uuid:0fcf1b5b-13e8-47fe-a60d-636dd9818b35",
          "display": "Meaghan Neary"
        },
        "effectiveDateTime": "2017-08-28T22:11:04Z",
        "specimen": {
          "reference": "urn:uuid:e01ba7e3-062e-4a29-afb4-08b8ae972d6e"
        }
      }
    },
    {
      "fullUrl": "urn:uuid:8c40b199-9c16-4c42-97c9-8eccf63b73ab",
      "resource": {
        "resourceType": "Observation",
        "id": "8c40b199-9c16-4c42-97c9-8eccf63b73ab",
        "meta": {
          "profile": [
            "http://hl7.eu/fhir/laboratory/StructureDefinition/Observation-resultslab-eu-lab"
          ]
        },
        "performer": [
          {
            "display": "The Central European Lab"
          }
        ],
        "category": [
          {
            "coding": [
              {
                "system": "http://terminology.hl7.org/CodeSystem/observation-category",
                "code": "laboratory"
              }
            ]
          }
        ],
        "code": {
          "coding": [
            {
              "code": "2823-3",
              "system": "http://loinc.org",
              "display": "Potassium [Moles/volume] in Serum or Plasma"
            }
          ],
          "text": "Potassium [Moles/volume] in Serum or Plasma"
        },
        "valueQuantity": {
          "system": "http://unitsofmeasure.org",
          "value": 4.2,
          "unit": "mmol/L",
          "code": "mmol/L"
        },
        "referenceRange": [
          {
            "low": {
              "value": 3.5,
              "code": "mmol/L",
              "system": "http://unitsofmeasure.org"
            }
          },
          {
            "high": {
              "value": 5.1,
              "code": "mmol/L",
              "system": "http://unitsofmeasure.org"
            }
          }
        ],
        "text": {
          "status": "generated",
          "div": "<div xmlns=\"http://www.w3.org/1999/xhtml\"><table class=\"hl7__eu__lab__report\"><tr><th>Test</th><th>29-Aug-2017</th><th>Reference&#xA0;Range</th><th>Unit</th></tr><tr><td>Potassium [Moles/volume] in Serum or Plasma</td><td>4.2</td><td>3.5 - 5.1</td><td></td><td>mmol/L</td></tr></table></div>"
        },
        "status": "final",
        "subject": {
          "reference": "urn:uuid:0fcf1b5b-13e8-47fe-a60d-636dd9818b35",
          "display": "Meaghan Neary"
        },
        "effectiveDateTime": "2017-08-28T22:11:04Z",
        "specimen": {
          "reference": "urn:uuid:e01ba7e3-062e-4a29-afb4-08b8ae972d6e"
        }
      }
    },
    {
      "fullUrl": "urn:uuid:56031e83-c1dc-4e73-87ac-a9d62ffe39f3",
      "resource": {
        "resourceType": "Observation",
        "id": "56031e83-c1dc-4e73-87ac-a9d62ffe39f3",
        "meta": {
          "profile": [
            "http://hl7.eu/fhir/laboratory/StructureDefinition/Observation-resultslab-eu-lab"
          ]
        },
        "performer": [
          {
            "display": "The Central European Lab"
          }
        ],
        "category": [
          {
            "coding": [
              {
                "system": "http://terminology.hl7.org/CodeSystem/observation-category",
                "code": "laboratory"
              }
            ]
          }
        ],
        "code": {
          "coding": [
            {
              "code": "2075-0",
              "system": "http://loinc.org",
              "display": "Chloride [Moles/volume] in Serum or Plasma"
            }
          ],
          "text": "Chloride [Moles/volume] in Serum or Plasma"
        },
        "valueQuantity": {
          "system": "http://unitsofmeasure.org",
          "value": 104.1,
          "unit": "mmol/L",
          "code": "mmol/L"
        },
        "referenceRange": [
          {
            "low": {
              "value": 98,
              "code": "mmol/L",
              "system": "http://unitsofmeasure.org"
            }
          },
          {
            "high": {
              "value": 108,
              "code": "mmol/L",
              "system": "http://unitsofmeasure.org"
            }
          }
        ],
        "text": {
          "status": "generated",
          "div": "<div xmlns=\"http://www.w3.org/1999/xhtml\"><table class=\"hl7__eu__lab__report\"><tr><th>Test</th><th>29-Aug-2017</th><th>Reference&#xA0;Range</th><th>Unit</th></tr><tr><td>Chloride [Moles/volume] in Serum or Plasma</td><td>104.1</td><td>98 - 108</td><td></td><td>mmol/L</td></tr></table></div>"
        },
        "status": "final",
        "subject": {
          "reference": "urn:uuid:0fcf1b5b-13e8-47fe-a60d-636dd9818b35",
          "display": "Meaghan Neary"
        },
        "effectiveDateTime": "2017-08-28T22:11:04Z",
        "specimen": {
          "reference": "urn:uuid:e01ba7e3-062e-4a29-afb4-08b8ae972d6e"
        }
      }
    },
    {
      "fullUrl": "urn:uuid:3d406b2e-58b0-4344-aa2c-1cd734673758",
      "resource": {
        "resourceType": "Observation",
        "id": "3d406b2e-58b0-4344-aa2c-1cd734673758",
        "meta": {
          "profile": [
            "http://hl7.eu/fhir/laboratory/StructureDefinition/Observation-resultslab-eu-lab"
          ]
        },
        "performer": [
          {
            "display": "The Central European Lab"
          }
        ],
        "category": [
          {
            "coding": [
              {
                "system": "http://terminology.hl7.org/CodeSystem/observation-category",
                "code": "laboratory"
              }
            ]
          }
        ],
        "code": {
          "coding": [
            {
              "code": "2028-9",
              "system": "http://loinc.org",
              "display": "Carbon dioxide, total [Moles/volume] in Serum or Plasma"
            }
          ],
          "text": "Carbon dioxide, total [Moles/volume] in Serum or Plasma"
        },
        "valueQuantity": {
          "system": "http://unitsofmeasure.org",
          "value": 26,
          "unit": "mmol/L",
          "code": "mmol/L"
        },
        "referenceRange": [
          {
            "low": {
              "value": 22,
              "code": "mmol/L",
              "system": "http://unitsofmeasure.org"
            }
          },
          {
            "high": {
              "value": 32,
              "code": "mmol/L",
              "system": "http://unitsofmeasure.org"
            }
          }
        ],
        "text": {
          "status": "generated",
          "div": "<div xmlns=\"http://www.w3.org/1999/xhtml\"><table class=\"hl7__eu__lab__report\"><tr><th>Test</th><th>29-Aug-2017</th><th>Reference&#xA0;Range</th><th>Unit</th></tr><tr><td>Carbon dioxide, total [Moles/volume] in Serum or Plasma</td><td>26.0</td><td>22 - 32</td><td></td><td>mmol/L</td></tr></table></div>"
        },
        "status": "final",
        "subject": {
          "reference": "urn:uuid:0fcf1b5b-13e8-47fe-a60d-636dd9818b35",
          "display": "Meaghan Neary"
        },
        "effectiveDateTime": "2017-08-28T22:11:04Z",
        "specimen": {
          "reference": "urn:uuid:e01ba7e3-062e-4a29-afb4-08b8ae972d6e"
        }
      }
    },
    {
      "fullUrl": "urn:uuid:4d5c353d-ac21-4871-9a6b-b662cf6c0347",
      "resource": {
        "resourceType": "Observation",
        "id": "4d5c353d-ac21-4871-9a6b-b662cf6c0347",
        "meta": {
          "profile": [
            "http://hl7.eu/fhir/laboratory/StructureDefinition/Observation-resultslab-eu-lab"
          ]
        },
        "performer": [
          {
            "display": "The Central European Lab"
          }
        ],
        "category": [
          {
            "coding": [
              {
                "system": "http://terminology.hl7.org/CodeSystem/observation-category",
                "code": "laboratory"
              }
            ]
          }
        ],
        "code": {
          "coding": [
            {
              "code": "5767-9",
              "system": "http://loinc.org",
              "display": "Appearance of Urine"
            }
          ],
          "text": "Appearance of Urine"
        },
        "text": {
          "status": "generated",
          "div": "<div xmlns=\"http://www.w3.org/1999/xhtml\"><table class=\"hl7__eu__lab__report\"><tr><th>Test</th><th>29-Aug-2017</th><th>Reference&#xA0;Range</th><th>Unit</th></tr><tr><td>Appearance of Urine</td></tr></table></div>"
        },
        "status": "final",
        "subject": {
          "reference": "urn:uuid:0fcf1b5b-13e8-47fe-a60d-636dd9818b35",
          "display": "Meaghan Neary"
        },
        "effectiveDateTime": "2017-08-28T22:11:04Z",
        "specimen": {
          "reference": "urn:uuid:a979f350-7ea3-4e4d-b70e-a0c9fc880d81"
        }
      }
    },
    {
      "fullUrl": "urn:uuid:76670504-418c-47d7-862f-6dd7528b5b38",
      "resource": {
        "resourceType": "Observation",
        "id": "76670504-418c-47d7-862f-6dd7528b5b38",
        "meta": {
          "profile": [
            "http://hl7.eu/fhir/laboratory/StructureDefinition/Observation-resultslab-eu-lab"
          ]
        },
        "performer": [
          {
            "display": "The Central European Lab"
          }
        ],
        "category": [
          {
            "coding": [
              {
                "system": "http://terminology.hl7.org/CodeSystem/observation-category",
                "code": "laboratory"
              }
            ]
          }
        ],
        "code": {
          "coding": [
            {
              "code": "34533-0",
              "system": "http://loinc.org",
              "display": "Odor of Urine"
            }
          ],
          "text": "Odor of Urine"
        },
        "text": {
          "status": "generated",
          "div": "<div xmlns=\"http://www.w3.org/1999/xhtml\"><table class=\"hl7__eu__lab__report\"><tr><th>Test</th><th>29-Aug-2017</th><th>Reference&#xA0;Range</th><th>Unit</th></tr><tr><td>Odor of Urine</td></tr></table></div>"
        },
        "status": "final",
        "subject": {
          "reference": "urn:uuid:0fcf1b5b-13e8-47fe-a60d-636dd9818b35",
          "display": "Meaghan Neary"
        },
        "effectiveDateTime": "2017-08-28T22:11:04Z",
        "specimen": {
          "reference": "urn:uuid:a979f350-7ea3-4e4d-b70e-a0c9fc880d81"
        }
      }
    },
    {
      "fullUrl": "urn:uuid:937fdd2e-e957-4bb7-af48-e04cfb0b592f",
      "resource": {
        "resourceType": "Observation",
        "id": "937fdd2e-e957-4bb7-af48-e04cfb0b592f",
        "meta": {
          "profile": [
            "http://hl7.eu/fhir/laboratory/StructureDefinition/Observation-resultslab-eu-lab"
          ]
        },
        "performer": [
          {
            "display": "The Central European Lab"
          }
        ],
        "category": [
          {
            "coding": [
              {
                "system": "http://terminology.hl7.org/CodeSystem/observation-category",
                "code": "laboratory"
              }
            ]
          }
        ],
        "code": {
          "coding": [
            {
              "code": "32167-9",
              "system": "http://loinc.org",
              "display": "Clarity of Urine"
            }
          ],
          "text": "Clarity of Urine"
        },
        "text": {
          "status": "generated",
          "div": "<div xmlns=\"http://www.w3.org/1999/xhtml\"><table class=\"hl7__eu__lab__report\"><tr><th>Test</th><th>29-Aug-2017</th><th>Reference&#xA0;Range</th><th>Unit</th></tr><tr><td>Clarity of Urine</td></tr></table></div>"
        },
        "status": "final",
        "subject": {
          "reference": "urn:uuid:0fcf1b5b-13e8-47fe-a60d-636dd9818b35",
          "display": "Meaghan Neary"
        },
        "effectiveDateTime": "2017-08-28T22:11:04Z",
        "specimen": {
          "reference": "urn:uuid:a979f350-7ea3-4e4d-b70e-a0c9fc880d81"
        }
      }
    },
    {
      "fullUrl": "urn:uuid:51adee85-5c71-4122-9161-91c2a88ff989",
      "resource": {
        "resourceType": "Observation",
        "id": "51adee85-5c71-4122-9161-91c2a88ff989",
        "meta": {
          "profile": [
            "http://hl7.eu/fhir/laboratory/StructureDefinition/Observation-resultslab-eu-lab"
          ]
        },
        "performer": [
          {
            "display": "The Central European Lab"
          }
        ],
        "category": [
          {
            "coding": [
              {
                "system": "http://terminology.hl7.org/CodeSystem/observation-category",
                "code": "laboratory"
              }
            ]
          }
        ],
        "code": {
          "coding": [
            {
              "code": "5778-6",
              "system": "http://loinc.org",
              "display": "Color of Urine"
            }
          ],
          "text": "Color of Urine"
        },
        "text": {
          "status": "generated",
          "div": "<div xmlns=\"http://www.w3.org/1999/xhtml\"><table class=\"hl7__eu__lab__report\"><tr><th>Test</th><th>29-Aug-2017</th><th>Reference&#xA0;Range</th><th>Unit</th></tr><tr><td>Color of Urine</td></tr></table></div>"
        },
        "status": "final",
        "subject": {
          "reference": "urn:uuid:0fcf1b5b-13e8-47fe-a60d-636dd9818b35",
          "display": "Meaghan Neary"
        },
        "effectiveDateTime": "2017-08-28T22:11:04Z",
        "specimen": {
          "reference": "urn:uuid:a979f350-7ea3-4e4d-b70e-a0c9fc880d81"
        }
      }
    },
    {
      "fullUrl": "urn:uuid:44f146fe-a30b-4e52-920d-51179b19260c",
      "resource": {
        "resourceType": "Observation",
        "id": "44f146fe-a30b-4e52-920d-51179b19260c",
        "meta": {
          "profile": [
            "http://hl7.eu/fhir/laboratory/StructureDefinition/Observation-resultslab-eu-lab"
          ]
        },
        "performer": [
          {
            "display": "The Central European Lab"
          }
        ],
        "category": [
          {
            "coding": [
              {
                "system": "http://terminology.hl7.org/CodeSystem/observation-category",
                "code": "laboratory"
              }
            ]
          }
        ],
        "code": {
          "coding": [
            {
              "code": "5792-7",
              "system": "http://loinc.org",
              "display": "Glucose [Mass/volume] in Urine by Test strip"
            }
          ],
          "text": "Glucose [Mass/volume] in Urine by Test strip"
        },
        "valueQuantity": {
          "system": "http://unitsofmeasure.org",
          "value": 2.1,
          "unit": "mg/dL",
          "code": "mg/dL"
        },
        "referenceRange": [
          {
            "low": {
              "value": 0.8,
              "code": "mg/dL",
              "system": "http://unitsofmeasure.org"
            }
          },
          {
            "high": {
              "value": 0,
              "code": "mg/dL",
              "system": "http://unitsofmeasure.org"
            }
          }
        ],
        "interpretation": [
          {
            "coding": [
              {
                "code": "H",
                "system": "http://terminology.hl7.org/CodeSystem/v3-ObservationInterpretation",
                "display": "High"
              }
            ]
          }
        ],
        "text": {
          "status": "generated",
          "div": "<div xmlns=\"http://www.w3.org/1999/xhtml\"><table class=\"hl7__eu__lab__report\"><tr><th>Test</th><th>29-Aug-2017</th><th>Reference&#xA0;Range</th><th>Unit</th></tr><tr><td>Glucose [Mass/volume] in Urine by Test strip</td><td>2.1</td><td>0.8 - 0</td><td>H</td><td>mg/dL</td></tr></table></div>"
        },
        "status": "final",
        "subject": {
          "reference": "urn:uuid:0fcf1b5b-13e8-47fe-a60d-636dd9818b35",
          "display": "Meaghan Neary"
        },
        "effectiveDateTime": "2017-08-28T22:11:04Z",
        "specimen": {
          "reference": "urn:uuid:a979f350-7ea3-4e4d-b70e-a0c9fc880d81"
        }
      }
    },
    {
      "fullUrl": "urn:uuid:36ecac88-6aa3-40e4-be5e-ffce2a957ffa",
      "resource": {
        "resourceType": "Observation",
        "id": "36ecac88-6aa3-40e4-be5e-ffce2a957ffa",
        "meta": {
          "profile": [
            "http://hl7.eu/fhir/laboratory/StructureDefinition/Observation-resultslab-eu-lab"
          ]
        },
        "performer": [
          {
            "display": "The Central European Lab"
          }
        ],
        "category": [
          {
            "coding": [
              {
                "system": "http://terminology.hl7.org/CodeSystem/observation-category",
                "code": "laboratory"
              }
            ]
          }
        ],
        "code": {
          "coding": [
            {
              "code": "25428-4",
              "system": "http://loinc.org",
              "display": "Glucose [Presence] in Urine by Test strip"
            }
          ],
          "text": "Glucose [Presence] in Urine by Test strip"
        },
        "text": {
          "status": "generated",
          "div": "<div xmlns=\"http://www.w3.org/1999/xhtml\"><table class=\"hl7__eu__lab__report\"><tr><th>Test</th><th>29-Aug-2017</th><th>Reference&#xA0;Range</th><th>Unit</th></tr><tr><td>Glucose [Presence] in Urine by Test strip</td></tr></table></div>"
        },
        "status": "final",
        "subject": {
          "reference": "urn:uuid:0fcf1b5b-13e8-47fe-a60d-636dd9818b35",
          "display": "Meaghan Neary"
        },
        "effectiveDateTime": "2017-08-28T22:11:04Z",
        "specimen": {
          "reference": "urn:uuid:a979f350-7ea3-4e4d-b70e-a0c9fc880d81"
        }
      }
    },
    {
      "fullUrl": "urn:uuid:f3b9ece7-5fde-4872-ac97-386bbabb4066",
      "resource": {
        "resourceType": "Observation",
        "id": "f3b9ece7-5fde-4872-ac97-386bbabb4066",
        "meta": {
          "profile": [
            "http://hl7.eu/fhir/laboratory/StructureDefinition/Observation-resultslab-eu-lab"
          ]
        },
        "performer": [
          {
            "display": "The Central European Lab"
          }
        ],
        "category": [
          {
            "coding": [
              {
                "system": "http://terminology.hl7.org/CodeSystem/observation-category",
                "code": "laboratory"
              }
            ]
          }
        ],
        "code": {
          "coding": [
            {
              "code": "20505-4",
              "system": "http://loinc.org",
              "display": "Bilirubin.total [Mass/volume] in Urine by Test strip"
            }
          ],
          "text": "Bilirubin.total [Mass/volume] in Urine by Test strip"
        },
        "valueQuantity": {
          "system": "http://unitsofmeasure.org",
          "value": 0.3,
          "unit": "mg/dL",
          "code": "mg/dL"
        },
        "referenceRange": [
          {
            "low": {
              "value": 0,
              "code": "mg/dL",
              "system": "http://unitsofmeasure.org"
            }
          },
          {
            "high": {
              "value": 1,
              "code": "mg/dL",
              "system": "http://unitsofmeasure.org"
            }
          }
        ],
        "text": {
          "status": "generated",
          "div": "<div xmlns=\"http://www.w3.org/1999/xhtml\"><table class=\"hl7__eu__lab__report\"><tr><th>Test</th><th>29-Aug-2017</th><th>Reference&#xA0;Range</th><th>Unit</th></tr><tr><td>Bilirubin.total [Mass/volume] in Urine by Test strip</td><td>0.3</td><td>0 - 1</td><td></td><td>mg/dL</td></tr></table></div>"
        },
        "status": "final",
        "subject": {
          "reference": "urn:uuid:0fcf1b5b-13e8-47fe-a60d-636dd9818b35",
          "display": "Meaghan Neary"
        },
        "effectiveDateTime": "2017-08-28T22:11:04Z",
        "specimen": {
          "reference": "urn:uuid:a979f350-7ea3-4e4d-b70e-a0c9fc880d81"
        }
      }
    },
    {
      "fullUrl": "urn:uuid:2529df60-79cb-43f8-a56e-ec49b13668c2",
      "resource": {
        "resourceType": "Observation",
        "id": "2529df60-79cb-43f8-a56e-ec49b13668c2",
        "meta": {
          "profile": [
            "http://hl7.eu/fhir/laboratory/StructureDefinition/Observation-resultslab-eu-lab"
          ]
        },
        "performer": [
          {
            "display": "The Central European Lab"
          }
        ],
        "category": [
          {
            "coding": [
              {
                "system": "http://terminology.hl7.org/CodeSystem/observation-category",
                "code": "laboratory"
              }
            ]
          }
        ],
        "code": {
          "coding": [
            {
              "code": "5770-3",
              "system": "http://loinc.org",
              "display": "Bilirubin.total [Presence] in Urine by Test strip"
            }
          ],
          "text": "Bilirubin.total [Presence] in Urine by Test strip"
        },
        "text": {
          "status": "generated",
          "div": "<div xmlns=\"http://www.w3.org/1999/xhtml\"><table class=\"hl7__eu__lab__report\"><tr><th>Test</th><th>29-Aug-2017</th><th>Reference&#xA0;Range</th><th>Unit</th></tr><tr><td>Bilirubin.total [Presence] in Urine by Test strip</td></tr></table></div>"
        },
        "status": "final",
        "subject": {
          "reference": "urn:uuid:0fcf1b5b-13e8-47fe-a60d-636dd9818b35",
          "display": "Meaghan Neary"
        },
        "effectiveDateTime": "2017-08-28T22:11:04Z",
        "specimen": {
          "reference": "urn:uuid:a979f350-7ea3-4e4d-b70e-a0c9fc880d81"
        }
      }
    },
    {
      "fullUrl": "urn:uuid:398f2464-f446-4050-9dc3-29efd3072433",
      "resource": {
        "resourceType": "Observation",
        "id": "398f2464-f446-4050-9dc3-29efd3072433",
        "meta": {
          "profile": [
            "http://hl7.eu/fhir/laboratory/StructureDefinition/Observation-resultslab-eu-lab"
          ]
        },
        "performer": [
          {
            "display": "The Central European Lab"
          }
        ],
        "category": [
          {
            "coding": [
              {
                "system": "http://terminology.hl7.org/CodeSystem/observation-category",
                "code": "laboratory"
              }
            ]
          }
        ],
        "code": {
          "coding": [
            {
              "code": "5797-6",
              "system": "http://loinc.org",
              "display": "Ketones [Mass/volume] in Urine by Test strip"
            }
          ],
          "text": "Ketones [Mass/volume] in Urine by Test strip"
        },
        "valueQuantity": {
          "system": "http://unitsofmeasure.org",
          "value": 7.2,
          "unit": "mg/dL",
          "code": "mg/dL"
        },
        "referenceRange": [
          {
            "low": {
              "value": 0,
              "code": "mg/dL",
              "system": "http://unitsofmeasure.org"
            }
          },
          {
            "high": {
              "value": 4,
              "code": "mg/dL",
              "system": "http://unitsofmeasure.org"
            }
          }
        ],
        "interpretation": [
          {
            "coding": [
              {
                "code": "H",
                "system": "http://terminology.hl7.org/CodeSystem/v3-ObservationInterpretation",
                "display": "High"
              }
            ]
          }
        ],
        "text": {
          "status": "generated",
          "div": "<div xmlns=\"http://www.w3.org/1999/xhtml\"><table class=\"hl7__eu__lab__report\"><tr><th>Test</th><th>29-Aug-2017</th><th>Reference&#xA0;Range</th><th>Unit</th></tr><tr><td>Ketones [Mass/volume] in Urine by Test strip</td><td>7.2</td><td>0 - 4</td><td>H</td><td>mg/dL</td></tr></table></div>"
        },
        "status": "final",
        "subject": {
          "reference": "urn:uuid:0fcf1b5b-13e8-47fe-a60d-636dd9818b35",
          "display": "Meaghan Neary"
        },
        "effectiveDateTime": "2017-08-28T22:11:04Z",
        "specimen": {
          "reference": "urn:uuid:a979f350-7ea3-4e4d-b70e-a0c9fc880d81"
        }
      }
    },
    {
      "fullUrl": "urn:uuid:46a5dcd9-c510-4803-91fc-fb087679d5eb",
      "resource": {
        "resourceType": "Observation",
        "id": "46a5dcd9-c510-4803-91fc-fb087679d5eb",
        "meta": {
          "profile": [
            "http://hl7.eu/fhir/laboratory/StructureDefinition/Observation-resultslab-eu-lab"
          ]
        },
        "performer": [
          {
            "display": "The Central European Lab"
          }
        ],
        "category": [
          {
            "coding": [
              {
                "system": "http://terminology.hl7.org/CodeSystem/observation-category",
                "code": "laboratory"
              }
            ]
          }
        ],
        "code": {
          "coding": [
            {
              "code": "2514-8",
              "system": "http://loinc.org",
              "display": "Ketones [Presence] in Urine by Test strip"
            }
          ],
          "text": "Ketones [Presence] in Urine by Test strip"
        },
        "text": {
          "status": "generated",
          "div": "<div xmlns=\"http://www.w3.org/1999/xhtml\"><table class=\"hl7__eu__lab__report\"><tr><th>Test</th><th>29-Aug-2017</th><th>Reference&#xA0;Range</th><th>Unit</th></tr><tr><td>Ketones [Presence] in Urine by Test strip</td></tr></table></div>"
        },
        "status": "final",
        "subject": {
          "reference": "urn:uuid:0fcf1b5b-13e8-47fe-a60d-636dd9818b35",
          "display": "Meaghan Neary"
        },
        "effectiveDateTime": "2017-08-28T22:11:04Z",
        "specimen": {
          "reference": "urn:uuid:a979f350-7ea3-4e4d-b70e-a0c9fc880d81"
        }
      }
    },
    {
      "fullUrl": "urn:uuid:50f5b595-ce5b-46e9-956f-3a1cd19f5ae6",
      "resource": {
        "resourceType": "Observation",
        "id": "50f5b595-ce5b-46e9-956f-3a1cd19f5ae6",
        "meta": {
          "profile": [
            "http://hl7.eu/fhir/laboratory/StructureDefinition/Observation-resultslab-eu-lab"
          ]
        },
        "performer": [
          {
            "display": "The Central European Lab"
          }
        ],
        "category": [
          {
            "coding": [
              {
                "system": "http://terminology.hl7.org/CodeSystem/observation-category",
                "code": "laboratory"
              }
            ]
          }
        ],
        "code": {
          "coding": [
            {
              "code": "5811-5",
              "system": "http://loinc.org",
              "display": "Specific gravity of Urine by Test strip"
            }
          ],
          "text": "Specific gravity of Urine by Test strip"
        },
        "valueQuantity": {
          "system": "http://unitsofmeasure.org",
          "value": 1,
          "unit": "{nominal}",
          "code": "{nominal}"
        },
        "referenceRange": [
          {
            "low": {
              "value": 1.005,
              "code": "g/mL",
              "system": "http://unitsofmeasure.org"
            }
          },
          {
            "high": {
              "value": 1.03,
              "code": "g/mL",
              "system": "http://unitsofmeasure.org"
            }
          }
        ],
        "interpretation": [
          {
            "coding": [
              {
                "code": "L",
                "system": "http://terminology.hl7.org/CodeSystem/v3-ObservationInterpretation",
                "display": "Low"
              }
            ]
          }
        ],
        "text": {
          "status": "generated",
          "div": "<div xmlns=\"http://www.w3.org/1999/xhtml\"><table class=\"hl7__eu__lab__report\"><tr><th>Test</th><th>29-Aug-2017</th><th>Reference&#xA0;Range</th><th>Unit</th></tr><tr><td>Specific gravity of Urine by Test strip</td><td>1.0</td><td>1.005 - 1.03</td><td>L</td><td>{nominal}</td></tr></table></div>"
        },
        "status": "final",
        "subject": {
          "reference": "urn:uuid:0fcf1b5b-13e8-47fe-a60d-636dd9818b35",
          "display": "Meaghan Neary"
        },
        "effectiveDateTime": "2017-08-28T22:11:04Z",
        "specimen": {
          "reference": "urn:uuid:a979f350-7ea3-4e4d-b70e-a0c9fc880d81"
        }
      }
    },
    {
      "fullUrl": "urn:uuid:a79b092c-d47f-4ddf-8aa7-9245f5c61108",
      "resource": {
        "resourceType": "Observation",
        "id": "a79b092c-d47f-4ddf-8aa7-9245f5c61108",
        "meta": {
          "profile": [
            "http://hl7.eu/fhir/laboratory/StructureDefinition/Observation-resultslab-eu-lab"
          ]
        },
        "performer": [
          {
            "display": "The Central European Lab"
          }
        ],
        "category": [
          {
            "coding": [
              {
                "system": "http://terminology.hl7.org/CodeSystem/observation-category",
                "code": "laboratory"
              }
            ]
          }
        ],
        "code": {
          "coding": [
            {
              "code": "5803-2",
              "system": "http://loinc.org",
              "display": "pH of Urine by Test strip"
            }
          ],
          "text": "pH of Urine by Test strip"
        },
        "valueQuantity": {
          "system": "http://unitsofmeasure.org",
          "value": 6.7,
          "unit": "pH",
          "code": "pH"
        },
        "referenceRange": [
          {
            "low": {
              "value": 4.6,
              "code": "pH",
              "system": "http://unitsofmeasure.org"
            }
          },
          {
            "high": {
              "value": 7,
              "code": "pH",
              "system": "http://unitsofmeasure.org"
            }
          }
        ],
        "text": {
          "status": "generated",
          "div": "<div xmlns=\"http://www.w3.org/1999/xhtml\"><table class=\"hl7__eu__lab__report\"><tr><th>Test</th><th>29-Aug-2017</th><th>Reference&#xA0;Range</th><th>Unit</th></tr><tr><td>pH of Urine by Test strip</td><td>6.7</td><td>4.6 - 7</td><td></td><td>pH</td></tr></table></div>"
        },
        "status": "final",
        "subject": {
          "reference": "urn:uuid:0fcf1b5b-13e8-47fe-a60d-636dd9818b35",
          "display": "Meaghan Neary"
        },
        "effectiveDateTime": "2017-08-28T22:11:04Z",
        "specimen": {
          "reference": "urn:uuid:a979f350-7ea3-4e4d-b70e-a0c9fc880d81"
        }
      }
    },
    {
      "fullUrl": "urn:uuid:a9a1ce38-fb2f-481e-8dbc-55669a3f8453",
      "resource": {
        "resourceType": "Observation",
        "id": "a9a1ce38-fb2f-481e-8dbc-55669a3f8453",
        "meta": {
          "profile": [
            "http://hl7.eu/fhir/laboratory/StructureDefinition/Observation-resultslab-eu-lab"
          ]
        },
        "performer": [
          {
            "display": "The Central European Lab"
          }
        ],
        "category": [
          {
            "coding": [
              {
                "system": "http://terminology.hl7.org/CodeSystem/observation-category",
                "code": "laboratory"
              }
            ]
          }
        ],
        "code": {
          "coding": [
            {
              "code": "5804-0",
              "system": "http://loinc.org",
              "display": "Protein [Mass/volume] in Urine by Test strip"
            }
          ],
          "text": "Protein [Mass/volume] in Urine by Test strip"
        },
        "valueQuantity": {
          "system": "http://unitsofmeasure.org",
          "value": 261.6,
          "unit": "mg/dL",
          "code": "mg/dL"
        },
        "referenceRange": [
          {
            "low": {
              "value": 0,
              "code": "mg/dL",
              "system": "http://unitsofmeasure.org"
            }
          },
          {
            "high": {
              "value": 14,
              "code": "mg/dL",
              "system": "http://unitsofmeasure.org"
            }
          }
        ],
        "interpretation": [
          {
            "coding": [
              {
                "code": "H",
                "system": "http://terminology.hl7.org/CodeSystem/v3-ObservationInterpretation",
                "display": "High"
              }
            ]
          }
        ],
        "text": {
          "status": "generated",
          "div": "<div xmlns=\"http://www.w3.org/1999/xhtml\"><table class=\"hl7__eu__lab__report\"><tr><th>Test</th><th>29-Aug-2017</th><th>Reference&#xA0;Range</th><th>Unit</th></tr><tr><td>Protein [Mass/volume] in Urine by Test strip</td><td>261.6</td><td>0 - 14</td><td>H</td><td>mg/dL</td></tr></table></div>"
        },
        "status": "final",
        "subject": {
          "reference": "urn:uuid:0fcf1b5b-13e8-47fe-a60d-636dd9818b35",
          "display": "Meaghan Neary"
        },
        "effectiveDateTime": "2017-08-28T22:11:04Z",
        "specimen": {
          "reference": "urn:uuid:a979f350-7ea3-4e4d-b70e-a0c9fc880d81"
        }
      }
    },
    {
      "fullUrl": "urn:uuid:a17906df-d17f-441d-8e76-9ab81f350523",
      "resource": {
        "resourceType": "Observation",
        "id": "a17906df-d17f-441d-8e76-9ab81f350523",
        "meta": {
          "profile": [
            "http://hl7.eu/fhir/laboratory/StructureDefinition/Observation-resultslab-eu-lab"
          ]
        },
        "performer": [
          {
            "display": "The Central European Lab"
          }
        ],
        "category": [
          {
            "coding": [
              {
                "system": "http://terminology.hl7.org/CodeSystem/observation-category",
                "code": "laboratory"
              }
            ]
          }
        ],
        "code": {
          "coding": [
            {
              "code": "20454-5",
              "system": "http://loinc.org",
              "display": "Protein [Presence] in Urine by Test strip"
            }
          ],
          "text": "Protein [Presence] in Urine by Test strip"
        },
        "text": {
          "status": "generated",
          "div": "<div xmlns=\"http://www.w3.org/1999/xhtml\"><table class=\"hl7__eu__lab__report\"><tr><th>Test</th><th>29-Aug-2017</th><th>Reference&#xA0;Range</th><th>Unit</th></tr><tr><td>Protein [Presence] in Urine by Test strip</td></tr></table></div>"
        },
        "status": "final",
        "subject": {
          "reference": "urn:uuid:0fcf1b5b-13e8-47fe-a60d-636dd9818b35",
          "display": "Meaghan Neary"
        },
        "effectiveDateTime": "2017-08-28T22:11:04Z",
        "specimen": {
          "reference": "urn:uuid:a979f350-7ea3-4e4d-b70e-a0c9fc880d81"
        }
      }
    },
    {
      "fullUrl": "urn:uuid:27004f31-2438-451c-93bc-55a8fe399591",
      "resource": {
        "resourceType": "Observation",
        "id": "27004f31-2438-451c-93bc-55a8fe399591",
        "meta": {
          "profile": [
            "http://hl7.eu/fhir/laboratory/StructureDefinition/Observation-resultslab-eu-lab"
          ]
        },
        "performer": [
          {
            "display": "The Central European Lab"
          }
        ],
        "category": [
          {
            "coding": [
              {
                "system": "http://terminology.hl7.org/CodeSystem/observation-category",
                "code": "laboratory"
              }
            ]
          }
        ],
        "code": {
          "coding": [
            {
              "code": "5802-4",
              "system": "http://loinc.org",
              "display": "Nitrite [Presence] in Urine by Test strip"
            }
          ],
          "text": "Nitrite [Presence] in Urine by Test strip"
        },
        "text": {
          "status": "generated",
          "div": "<div xmlns=\"http://www.w3.org/1999/xhtml\"><table class=\"hl7__eu__lab__report\"><tr><th>Test</th><th>29-Aug-2017</th><th>Reference&#xA0;Range</th><th>Unit</th></tr><tr><td>Nitrite [Presence] in Urine by Test strip</td></tr></table></div>"
        },
        "status": "final",
        "subject": {
          "reference": "urn:uuid:0fcf1b5b-13e8-47fe-a60d-636dd9818b35",
          "display": "Meaghan Neary"
        },
        "effectiveDateTime": "2017-08-28T22:11:04Z",
        "specimen": {
          "reference": "urn:uuid:a979f350-7ea3-4e4d-b70e-a0c9fc880d81"
        }
      }
    },
    {
      "fullUrl": "urn:uuid:09344fb3-2d0d-4064-bc3b-423ba3ccaf31",
      "resource": {
        "resourceType": "Observation",
        "id": "09344fb3-2d0d-4064-bc3b-423ba3ccaf31",
        "meta": {
          "profile": [
            "http://hl7.eu/fhir/laboratory/StructureDefinition/Observation-resultslab-eu-lab"
          ]
        },
        "performer": [
          {
            "display": "The Central European Lab"
          }
        ],
        "category": [
          {
            "coding": [
              {
                "system": "http://terminology.hl7.org/CodeSystem/observation-category",
                "code": "laboratory"
              }
            ]
          }
        ],
        "code": {
          "coding": [
            {
              "code": "5794-3",
              "system": "http://loinc.org",
              "display": "Hemoglobin [Presence] in Urine by Test strip"
            }
          ],
          "text": "Hemoglobin [Presence] in Urine by Test strip"
        },
        "text": {
          "status": "generated",
          "div": "<div xmlns=\"http://www.w3.org/1999/xhtml\"><table class=\"hl7__eu__lab__report\"><tr><th>Test</th><th>29-Aug-2017</th><th>Reference&#xA0;Range</th><th>Unit</th></tr><tr><td>Hemoglobin [Presence] in Urine by Test strip</td></tr></table></div>"
        },
        "status": "final",
        "subject": {
          "reference": "urn:uuid:0fcf1b5b-13e8-47fe-a60d-636dd9818b35",
          "display": "Meaghan Neary"
        },
        "effectiveDateTime": "2017-08-28T22:11:04Z",
        "specimen": {
          "reference": "urn:uuid:a979f350-7ea3-4e4d-b70e-a0c9fc880d81"
        }
      }
    },
    {
      "fullUrl": "urn:uuid:58fc4386-c8ab-428e-bfdc-b6d8c7e6df43",
      "resource": {
        "resourceType": "Observation",
        "id": "58fc4386-c8ab-428e-bfdc-b6d8c7e6df43",
        "meta": {
          "profile": [
            "http://hl7.eu/fhir/laboratory/StructureDefinition/Observation-resultslab-eu-lab"
          ]
        },
        "performer": [
          {
            "display": "The Central European Lab"
          }
        ],
        "category": [
          {
            "coding": [
              {
                "system": "http://terminology.hl7.org/CodeSystem/observation-category",
                "code": "laboratory"
              }
            ]
          }
        ],
        "code": {
          "coding": [
            {
              "code": "5799-2",
              "system": "http://loinc.org",
              "display": "Leukocyte esterase [Presence] in Urine by Test strip"
            }
          ],
          "text": "Leukocyte esterase [Presence] in Urine by Test strip"
        },
        "text": {
          "status": "generated",
          "div": "<div xmlns=\"http://www.w3.org/1999/xhtml\"><table class=\"hl7__eu__lab__report\"><tr><th>Test</th><th>29-Aug-2017</th><th>Reference&#xA0;Range</th><th>Unit</th></tr><tr><td>Leukocyte esterase [Presence] in Urine by Test strip</td></tr></table></div>"
        },
        "status": "final",
        "subject": {
          "reference": "urn:uuid:0fcf1b5b-13e8-47fe-a60d-636dd9818b35",
          "display": "Meaghan Neary"
        },
        "effectiveDateTime": "2017-08-28T22:11:04Z",
        "specimen": {
          "reference": "urn:uuid:a979f350-7ea3-4e4d-b70e-a0c9fc880d81"
        }
      }
    },
    {
      "fullUrl": "urn:uuid:0caf4f75-e1a7-4662-9aca-45f814c491d4",
      "resource": {
        "resourceType": "Observation",
        "id": "0caf4f75-e1a7-4662-9aca-45f814c491d4",
        "meta": {
          "profile": [
            "http://hl7.eu/fhir/laboratory/StructureDefinition/Observation-resultslab-eu-lab"
          ]
        },
        "performer": [
          {
            "display": "The Central European Lab"
          }
        ],
        "category": [
          {
            "coding": [
              {
                "system": "http://terminology.hl7.org/CodeSystem/observation-category",
                "code": "laboratory"
              }
            ]
          }
        ],
        "code": {
          "coding": [
            {
              "code": "4548-4",
              "system": "http://loinc.org",
              "display": "Hemoglobin A1c/Hemoglobin.total in Blood"
            }
          ],
          "text": "Hemoglobin A1c/Hemoglobin.total in Blood"
        },
        "valueQuantity": {
          "system": "http://unitsofmeasure.org",
          "value": 3.2,
          "unit": "%",
          "code": "%"
        },
        "referenceRange": [
          {
            "low": {
              "value": 4,
              "code": "%",
              "system": "http://unitsofmeasure.org"
            }
          },
          {
            "high": {
              "value": 6.4,
              "code": "%",
              "system": "http://unitsofmeasure.org"
            }
          }
        ],
        "interpretation": [
          {
            "coding": [
              {
                "code": "L",
                "system": "http://terminology.hl7.org/CodeSystem/v3-ObservationInterpretation",
                "display": "Low"
              }
            ]
          }
        ],
        "text": {
          "status": "generated",
          "div": "<div xmlns=\"http://www.w3.org/1999/xhtml\"><table class=\"hl7__eu__lab__report\"><tr><th>Test</th><th>29-Aug-2017</th><th>Reference&#xA0;Range</th><th>Unit</th></tr><tr><td>Hemoglobin A1c/Hemoglobin.total in Blood</td><td>3.2</td><td>4 - 6.4</td><td>L</td><td>%</td></tr></table></div>"
        },
        "status": "final",
        "subject": {
          "reference": "urn:uuid:0fcf1b5b-13e8-47fe-a60d-636dd9818b35",
          "display": "Meaghan Neary"
        },
        "effectiveDateTime": "2017-08-28T22:11:04Z",
        "specimen": {
          "reference": "urn:uuid:bc05c160-e533-4ca2-9d12-e72139251940"
        }
      }
    },
    {
      "fullUrl": "urn:uuid:a3f5662c-5e17-495b-8854-8dcd04c7b2ed",
      "resource": {
        "resourceType": "Observation",
        "id": "a3f5662c-5e17-495b-8854-8dcd04c7b2ed",
        "meta": {
          "profile": [
            "http://hl7.eu/fhir/laboratory/StructureDefinition/Observation-resultslab-eu-lab"
          ]
        },
        "performer": [
          {
            "display": "The Central European Lab"
          }
        ],
        "category": [
          {
            "coding": [
              {
                "system": "http://terminology.hl7.org/CodeSystem/observation-category",
                "code": "laboratory"
              }
            ]
          }
        ],
        "code": {
          "coding": [
            {
              "code": "2339-0",
              "system": "http://loinc.org",
              "display": "Glucose [Mass/volume] in Blood"
            }
          ],
          "text": "Glucose [Mass/volume] in Blood"
        },
        "valueQuantity": {
          "system": "http://unitsofmeasure.org",
          "value": 88.5,
          "unit": "mg/dL",
          "code": "mg/dL"
        },
        "referenceRange": [
          {
            "low": {
              "value": 70,
              "code": "mg/dL",
              "system": "http://unitsofmeasure.org"
            }
          },
          {
            "high": {
              "value": 100,
              "code": "mg/dL",
              "system": "http://unitsofmeasure.org"
            }
          }
        ],
        "text": {
          "status": "generated",
          "div": "<div xmlns=\"http://www.w3.org/1999/xhtml\"><table class=\"hl7__eu__lab__report\"><tr><th>Test</th><th>29-Aug-2017</th><th>Reference&#xA0;Range</th><th>Unit</th></tr><tr><td>Glucose [Mass/volume] in Blood</td><td>88.5</td><td>70 - 100</td><td></td><td>mg/dL</td></tr></table></div>"
        },
        "status": "final",
        "subject": {
          "reference": "urn:uuid:0fcf1b5b-13e8-47fe-a60d-636dd9818b35",
          "display": "Meaghan Neary"
        },
        "effectiveDateTime": "2017-08-28T22:11:04Z",
        "specimen": {
          "reference": "urn:uuid:bc05c160-e533-4ca2-9d12-e72139251940"
        }
      }
    },
    {
      "fullUrl": "urn:uuid:866098ec-f422-4e01-ade3-872af1be7a15",
      "resource": {
        "resourceType": "Observation",
        "id": "866098ec-f422-4e01-ade3-872af1be7a15",
        "meta": {
          "profile": [
            "http://hl7.eu/fhir/laboratory/StructureDefinition/Observation-resultslab-eu-lab"
          ]
        },
        "performer": [
          {
            "display": "The Central European Lab"
          }
        ],
        "category": [
          {
            "coding": [
              {
                "system": "http://terminology.hl7.org/CodeSystem/observation-category",
                "code": "laboratory"
              }
            ]
          }
        ],
        "code": {
          "coding": [
            {
              "code": "6299-2",
              "system": "http://loinc.org",
              "display": "Urea nitrogen [Mass/volume] in Blood"
            }
          ],
          "text": "Urea nitrogen [Mass/volume] in Blood"
        },
        "valueQuantity": {
          "system": "http://unitsofmeasure.org",
          "value": 18.2,
          "unit": "mg/dL",
          "code": "mg/dL"
        },
        "referenceRange": [
          {
            "low": {
              "value": 7,
              "code": "mg/dL",
              "system": "http://unitsofmeasure.org"
            }
          },
          {
            "high": {
              "value": 43,
              "code": "mg/dL",
              "system": "http://unitsofmeasure.org"
            }
          }
        ],
        "text": {
          "status": "generated",
          "div": "<div xmlns=\"http://www.w3.org/1999/xhtml\"><table class=\"hl7__eu__lab__report\"><tr><th>Test</th><th>29-Aug-2017</th><th>Reference&#xA0;Range</th><th>Unit</th></tr><tr><td>Urea nitrogen [Mass/volume] in Blood</td><td>18.2</td><td>7 - 43</td><td></td><td>mg/dL</td></tr></table></div>"
        },
        "status": "final",
        "subject": {
          "reference": "urn:uuid:0fcf1b5b-13e8-47fe-a60d-636dd9818b35",
          "display": "Meaghan Neary"
        },
        "effectiveDateTime": "2017-08-28T22:11:04Z",
        "specimen": {
          "reference": "urn:uuid:bc05c160-e533-4ca2-9d12-e72139251940"
        }
      }
    },
    {
      "fullUrl": "urn:uuid:3f94c2c6-c334-42b1-bf66-636d82c2eec6",
      "resource": {
        "resourceType": "Observation",
        "id": "3f94c2c6-c334-42b1-bf66-636d82c2eec6",
        "meta": {
          "profile": [
            "http://hl7.eu/fhir/laboratory/StructureDefinition/Observation-resultslab-eu-lab"
          ]
        },
        "performer": [
          {
            "display": "The Central European Lab"
          }
        ],
        "category": [
          {
            "coding": [
              {
                "system": "http://terminology.hl7.org/CodeSystem/observation-category",
                "code": "laboratory"
              }
            ]
          }
        ],
        "code": {
          "coding": [
            {
              "code": "38483-4",
              "system": "http://loinc.org",
              "display": "Creatinine [Mass/volume] in Blood"
            }
          ],
          "text": "Creatinine [Mass/volume] in Blood"
        },
        "valueQuantity": {
          "system": "http://unitsofmeasure.org",
          "value": 1.8,
          "unit": "mg/dL",
          "code": "mg/dL"
        },
        "referenceRange": [
          {
            "low": {
              "value": 0.6,
              "code": "mg/dL",
              "system": "http://unitsofmeasure.org"
            }
          },
          {
            "high": {
              "value": 1.1,
              "code": "mg/dL",
              "system": "http://unitsofmeasure.org"
            }
          }
        ],
        "interpretation": [
          {
            "coding": [
              {
                "code": "H",
                "system": "http://terminology.hl7.org/CodeSystem/v3-ObservationInterpretation",
                "display": "High"
              }
            ]
          }
        ],
        "text": {
          "status": "generated",
          "div": "<div xmlns=\"http://www.w3.org/1999/xhtml\"><table class=\"hl7__eu__lab__report\"><tr><th>Test</th><th>29-Aug-2017</th><th>Reference&#xA0;Range</th><th>Unit</th></tr><tr><td>Creatinine [Mass/volume] in Blood</td><td>1.8</td><td>0.6 - 1.1</td><td>H</td><td>mg/dL</td></tr></table></div>"
        },
        "status": "final",
        "subject": {
          "reference": "urn:uuid:0fcf1b5b-13e8-47fe-a60d-636dd9818b35",
          "display": "Meaghan Neary"
        },
        "effectiveDateTime": "2017-08-28T22:11:04Z",
        "specimen": {
          "reference": "urn:uuid:bc05c160-e533-4ca2-9d12-e72139251940"
        }
      }
    },
    {
      "fullUrl": "urn:uuid:c0ecba2f-4e5b-4831-a030-70046ab7cfbf",
      "resource": {
        "resourceType": "Observation",
        "id": "c0ecba2f-4e5b-4831-a030-70046ab7cfbf",
        "meta": {
          "profile": [
            "http://hl7.eu/fhir/laboratory/StructureDefinition/Observation-resultslab-eu-lab"
          ]
        },
        "performer": [
          {
            "display": "The Central European Lab"
          }
        ],
        "category": [
          {
            "coding": [
              {
                "system": "http://terminology.hl7.org/CodeSystem/observation-category",
                "code": "laboratory"
              }
            ]
          }
        ],
        "code": {
          "coding": [
            {
              "code": "49765-1",
              "system": "http://loinc.org",
              "display": "Calcium [Mass/volume] in Blood"
            }
          ],
          "text": "Calcium [Mass/volume] in Blood"
        },
        "valueQuantity": {
          "system": "http://unitsofmeasure.org",
          "value": 9.1,
          "unit": "mg/dL",
          "code": "mg/dL"
        },
        "referenceRange": [
          {
            "low": {
              "value": 8.5,
              "code": "mg/dL",
              "system": "http://unitsofmeasure.org"
            }
          },
          {
            "high": {
              "value": 10.5,
              "code": "mg/dL",
              "system": "http://unitsofmeasure.org"
            }
          }
        ],
        "text": {
          "status": "generated",
          "div": "<div xmlns=\"http://www.w3.org/1999/xhtml\"><table class=\"hl7__eu__lab__report\"><tr><th>Test</th><th>29-Aug-2017</th><th>Reference&#xA0;Range</th><th>Unit</th></tr><tr><td>Calcium [Mass/volume] in Blood</td><td>9.1</td><td>8.5 - 10.5</td><td></td><td>mg/dL</td></tr></table></div>"
        },
        "status": "final",
        "subject": {
          "reference": "urn:uuid:0fcf1b5b-13e8-47fe-a60d-636dd9818b35",
          "display": "Meaghan Neary"
        },
        "effectiveDateTime": "2017-08-28T22:11:04Z",
        "specimen": {
          "reference": "urn:uuid:bc05c160-e533-4ca2-9d12-e72139251940"
        }
      }
    },
    {
      "fullUrl": "urn:uuid:38714726-9761-4216-b828-bbdbb1ebcaa1",
      "resource": {
        "resourceType": "Observation",
        "id": "38714726-9761-4216-b828-bbdbb1ebcaa1",
        "meta": {
          "profile": [
            "http://hl7.eu/fhir/laboratory/StructureDefinition/Observation-resultslab-eu-lab"
          ]
        },
        "performer": [
          {
            "display": "The Central European Lab"
          }
        ],
        "category": [
          {
            "coding": [
              {
                "system": "http://terminology.hl7.org/CodeSystem/observation-category",
                "code": "laboratory"
              }
            ]
          }
        ],
        "code": {
          "coding": [
            {
              "code": "2947-0",
              "system": "http://loinc.org",
              "display": "Sodium [Moles/volume] in Blood"
            }
          ],
          "text": "Sodium [Moles/volume] in Blood"
        },
        "valueQuantity": {
          "system": "http://unitsofmeasure.org",
          "value": 140.7,
          "unit": "mmol/L",
          "code": "mmol/L"
        },
        "referenceRange": [
          {
            "low": {
              "value": 135,
              "code": "mmol/L",
              "system": "http://unitsofmeasure.org"
            }
          },
          {
            "high": {
              "value": 145,
              "code": "mmol/L",
              "system": "http://unitsofmeasure.org"
            }
          }
        ],
        "text": {
          "status": "generated",
          "div": "<div xmlns=\"http://www.w3.org/1999/xhtml\"><table class=\"hl7__eu__lab__report\"><tr><th>Test</th><th>29-Aug-2017</th><th>Reference&#xA0;Range</th><th>Unit</th></tr><tr><td>Sodium [Moles/volume] in Blood</td><td>140.7</td><td>135 - 145</td><td></td><td>mmol/L</td></tr></table></div>"
        },
        "status": "final",
        "subject": {
          "reference": "urn:uuid:0fcf1b5b-13e8-47fe-a60d-636dd9818b35",
          "display": "Meaghan Neary"
        },
        "effectiveDateTime": "2017-08-28T22:11:04Z",
        "specimen": {
          "reference": "urn:uuid:bc05c160-e533-4ca2-9d12-e72139251940"
        }
      }
    },
    {
      "fullUrl": "urn:uuid:830e5c0f-dc5c-45cc-9d75-7689a0013b69",
      "resource": {
        "resourceType": "Observation",
        "id": "830e5c0f-dc5c-45cc-9d75-7689a0013b69",
        "meta": {
          "profile": [
            "http://hl7.eu/fhir/laboratory/StructureDefinition/Observation-resultslab-eu-lab"
          ]
        },
        "performer": [
          {
            "display": "The Central European Lab"
          }
        ],
        "category": [
          {
            "coding": [
              {
                "system": "http://terminology.hl7.org/CodeSystem/observation-category",
                "code": "laboratory"
              }
            ]
          }
        ],
        "code": {
          "coding": [
            {
              "code": "6298-4",
              "system": "http://loinc.org",
              "display": "Potassium [Moles/volume] in Blood"
            }
          ],
          "text": "Potassium [Moles/volume] in Blood"
        },
        "valueQuantity": {
          "system": "http://unitsofmeasure.org",
          "value": 4.2,
          "unit": "mmol/L",
          "code": "mmol/L"
        },
        "referenceRange": [
          {
            "low": {
              "value": 3.5,
              "code": "mmol/L",
              "system": "http://unitsofmeasure.org"
            }
          },
          {
            "high": {
              "value": 5.1,
              "code": "mmol/L",
              "system": "http://unitsofmeasure.org"
            }
          }
        ],
        "text": {
          "status": "generated",
          "div": "<div xmlns=\"http://www.w3.org/1999/xhtml\"><table class=\"hl7__eu__lab__report\"><tr><th>Test</th><th>29-Aug-2017</th><th>Reference&#xA0;Range</th><th>Unit</th></tr><tr><td>Potassium [Moles/volume] in Blood</td><td>4.2</td><td>3.5 - 5.1</td><td></td><td>mmol/L</td></tr></table></div>"
        },
        "status": "final",
        "subject": {
          "reference": "urn:uuid:0fcf1b5b-13e8-47fe-a60d-636dd9818b35",
          "display": "Meaghan Neary"
        },
        "effectiveDateTime": "2017-08-28T22:11:04Z",
        "specimen": {
          "reference": "urn:uuid:bc05c160-e533-4ca2-9d12-e72139251940"
        }
      }
    },
    {
      "fullUrl": "urn:uuid:b9ce6fbb-6b49-4e1b-b246-54e657655140",
      "resource": {
        "resourceType": "Observation",
        "id": "b9ce6fbb-6b49-4e1b-b246-54e657655140",
        "meta": {
          "profile": [
            "http://hl7.eu/fhir/laboratory/StructureDefinition/Observation-resultslab-eu-lab"
          ]
        },
        "performer": [
          {
            "display": "The Central European Lab"
          }
        ],
        "category": [
          {
            "coding": [
              {
                "system": "http://terminology.hl7.org/CodeSystem/observation-category",
                "code": "laboratory"
              }
            ]
          }
        ],
        "code": {
          "coding": [
            {
              "code": "2069-3",
              "system": "http://loinc.org",
              "display": "Chloride [Moles/volume] in Blood"
            }
          ],
          "text": "Chloride [Moles/volume] in Blood"
        },
        "valueQuantity": {
          "system": "http://unitsofmeasure.org",
          "value": 104.1,
          "unit": "mmol/L",
          "code": "mmol/L"
        },
        "referenceRange": [
          {
            "low": {
              "value": 98,
              "code": "mmol/L",
              "system": "http://unitsofmeasure.org"
            }
          },
          {
            "high": {
              "value": 108,
              "code": "mmol/L",
              "system": "http://unitsofmeasure.org"
            }
          }
        ],
        "text": {
          "status": "generated",
          "div": "<div xmlns=\"http://www.w3.org/1999/xhtml\"><table class=\"hl7__eu__lab__report\"><tr><th>Test</th><th>29-Aug-2017</th><th>Reference&#xA0;Range</th><th>Unit</th></tr><tr><td>Chloride [Moles/volume] in Blood</td><td>104.1</td><td>98 - 108</td><td></td><td>mmol/L</td></tr></table></div>"
        },
        "status": "final",
        "subject": {
          "reference": "urn:uuid:0fcf1b5b-13e8-47fe-a60d-636dd9818b35",
          "display": "Meaghan Neary"
        },
        "effectiveDateTime": "2017-08-28T22:11:04Z",
        "specimen": {
          "reference": "urn:uuid:bc05c160-e533-4ca2-9d12-e72139251940"
        }
      }
    },
    {
      "fullUrl": "urn:uuid:4bd79560-542b-4653-bc5d-489b6ad3afcf",
      "resource": {
        "resourceType": "Observation",
        "id": "4bd79560-542b-4653-bc5d-489b6ad3afcf",
        "meta": {
          "profile": [
            "http://hl7.eu/fhir/laboratory/StructureDefinition/Observation-resultslab-eu-lab"
          ]
        },
        "performer": [
          {
            "display": "The Central European Lab"
          }
        ],
        "category": [
          {
            "coding": [
              {
                "system": "http://terminology.hl7.org/CodeSystem/observation-category",
                "code": "laboratory"
              }
            ]
          }
        ],
        "code": {
          "coding": [
            {
              "code": "20565-8",
              "system": "http://loinc.org",
              "display": "Carbon dioxide, total [Moles/volume] in Blood"
            }
          ],
          "text": "Carbon dioxide, total [Moles/volume] in Blood"
        },
        "valueQuantity": {
          "system": "http://unitsofmeasure.org",
          "value": 26,
          "unit": "mmol/L",
          "code": "mmol/L"
        },
        "referenceRange": [
          {
            "low": {
              "value": 22,
              "code": "mmol/L",
              "system": "http://unitsofmeasure.org"
            }
          },
          {
            "high": {
              "value": 29,
              "code": "mmol/L",
              "system": "http://unitsofmeasure.org"
            }
          }
        ],
        "text": {
          "status": "generated",
          "div": "<div xmlns=\"http://www.w3.org/1999/xhtml\"><table class=\"hl7__eu__lab__report\"><tr><th>Test</th><th>29-Aug-2017</th><th>Reference&#xA0;Range</th><th>Unit</th></tr><tr><td>Carbon dioxide, total [Moles/volume] in Blood</td><td>26.0</td><td>22 - 29</td><td></td><td>mmol/L</td></tr></table></div>"
        },
        "status": "final",
        "subject": {
          "reference": "urn:uuid:0fcf1b5b-13e8-47fe-a60d-636dd9818b35",
          "display": "Meaghan Neary"
        },
        "effectiveDateTime": "2017-08-28T22:11:04Z",
        "specimen": {
          "reference": "urn:uuid:bc05c160-e533-4ca2-9d12-e72139251940"
        }
      }
    },
    {
      "fullUrl": "urn:uuid:c31630f9-65f5-47cb-b99f-60fc5568a7c9",
      "resource": {
        "resourceType": "Observation",
        "id": "c31630f9-65f5-47cb-b99f-60fc5568a7c9",
        "meta": {
          "profile": [
            "http://hl7.eu/fhir/laboratory/StructureDefinition/Observation-resultslab-eu-lab"
          ]
        },
        "performer": [
          {
            "display": "The Central European Lab"
          }
        ],
        "category": [
          {
            "coding": [
              {
                "system": "http://terminology.hl7.org/CodeSystem/observation-category",
                "code": "laboratory"
              }
            ]
          }
        ],
        "code": {
          "coding": [
            {
              "code": "2093-3",
              "system": "http://loinc.org",
              "display": "Cholesterol [Mass/volume] in Serum or Plasma"
            }
          ],
          "text": "Cholesterol [Mass/volume] in Serum or Plasma"
        },
        "valueQuantity": {
          "system": "http://unitsofmeasure.org",
          "value": 293.6,
          "unit": "mg/dL",
          "code": "mg/dL"
        },
        "referenceRange": [
          {
            "low": {
              "value": 125,
              "code": "mg/dL",
              "system": "http://unitsofmeasure.org"
            }
          },
          {
            "high": {
              "value": 239,
              "code": "mg/dL",
              "system": "http://unitsofmeasure.org"
            }
          }
        ],
        "interpretation": [
          {
            "coding": [
              {
                "code": "H",
                "system": "http://terminology.hl7.org/CodeSystem/v3-ObservationInterpretation",
                "display": "High"
              }
            ]
          }
        ],
        "text": {
          "status": "generated",
          "div": "<div xmlns=\"http://www.w3.org/1999/xhtml\"><table class=\"hl7__eu__lab__report\"><tr><th>Test</th><th>29-Aug-2017</th><th>Reference&#xA0;Range</th><th>Unit</th></tr><tr><td>Cholesterol [Mass/volume] in Serum or Plasma</td><td>293.6</td><td>125 - 239</td><td>H</td><td>mg/dL</td></tr></table></div>"
        },
        "status": "final",
        "subject": {
          "reference": "urn:uuid:0fcf1b5b-13e8-47fe-a60d-636dd9818b35",
          "display": "Meaghan Neary"
        },
        "effectiveDateTime": "2017-08-28T22:11:04Z",
        "specimen": {
          "reference": "urn:uuid:e01ba7e3-062e-4a29-afb4-08b8ae972d6e"
        }
      }
    },
    {
      "fullUrl": "urn:uuid:e8893840-4927-4535-b8cc-5f17a7928d5f",
      "resource": {
        "resourceType": "Observation",
        "id": "e8893840-4927-4535-b8cc-5f17a7928d5f",
        "meta": {
          "profile": [
            "http://hl7.eu/fhir/laboratory/StructureDefinition/Observation-resultslab-eu-lab"
          ]
        },
        "performer": [
          {
            "display": "The Central European Lab"
          }
        ],
        "category": [
          {
            "coding": [
              {
                "system": "http://terminology.hl7.org/CodeSystem/observation-category",
                "code": "laboratory"
              }
            ]
          }
        ],
        "code": {
          "coding": [
            {
              "code": "2571-8",
              "system": "http://loinc.org",
              "display": "Triglyceride [Mass/volume] in Serum or Plasma"
            }
          ],
          "text": "Triglyceride [Mass/volume] in Serum or Plasma"
        },
        "valueQuantity": {
          "system": "http://unitsofmeasure.org",
          "value": 102.6,
          "unit": "mg/dL",
          "code": "mg/dL"
        },
        "text": {
          "status": "generated",
          "div": "<div xmlns=\"http://www.w3.org/1999/xhtml\"><table class=\"hl7__eu__lab__report\"><tr><th>Test</th><th>29-Aug-2017</th><th>Reference&#xA0;Range</th><th>Unit</th></tr><tr><td>Triglyceride [Mass/volume] in Serum or Plasma</td><td>102.6</td><td>mg/dL</td></tr></table></div>"
        },
        "status": "final",
        "subject": {
          "reference": "urn:uuid:0fcf1b5b-13e8-47fe-a60d-636dd9818b35",
          "display": "Meaghan Neary"
        },
        "effectiveDateTime": "2017-08-28T22:11:04Z",
        "specimen": {
          "reference": "urn:uuid:e01ba7e3-062e-4a29-afb4-08b8ae972d6e"
        }
      }
    },
    {
      "fullUrl": "urn:uuid:7d58cc00-d829-472b-80f2-38c52df39f15",
      "resource": {
        "resourceType": "Observation",
        "id": "7d58cc00-d829-472b-80f2-38c52df39f15",
        "meta": {
          "profile": [
            "http://hl7.eu/fhir/laboratory/StructureDefinition/Observation-resultslab-eu-lab"
          ]
        },
        "performer": [
          {
            "display": "The Central European Lab"
          }
        ],
        "category": [
          {
            "coding": [
              {
                "system": "http://terminology.hl7.org/CodeSystem/observation-category",
                "code": "laboratory"
              }
            ]
          }
        ],
        "code": {
          "coding": [
            {
              "code": "18262-6",
              "system": "http://loinc.org",
              "display": "Cholesterol in LDL [Mass/volume] in Serum or Plasma by Direct assay"
            }
          ],
          "text": "Cholesterol in LDL [Mass/volume] in Serum or Plasma by Direct assay"
        },
        "valueQuantity": {
          "system": "http://unitsofmeasure.org",
          "value": 215.7,
          "unit": "mg/dL",
          "code": "mg/dL"
        },
        "referenceRange": [
          {
            "low": {
              "value": 0,
              "code": "mg/dL",
              "system": "http://unitsofmeasure.org"
            }
          },
          {
            "high": {
              "value": 130,
              "code": "mg/dL",
              "system": "http://unitsofmeasure.org"
            }
          }
        ],
        "interpretation": [
          {
            "coding": [
              {
                "code": "H",
                "system": "http://terminology.hl7.org/CodeSystem/v3-ObservationInterpretation",
                "display": "High"
              }
            ]
          }
        ],
        "text": {
          "status": "generated",
          "div": "<div xmlns=\"http://www.w3.org/1999/xhtml\"><table class=\"hl7__eu__lab__report\"><tr><th>Test</th><th>29-Aug-2017</th><th>Reference&#xA0;Range</th><th>Unit</th></tr><tr><td>Cholesterol in LDL [Mass/volume] in Serum or Plasma by Direct assay</td><td>215.7</td><td>0 - 130</td><td>H</td><td>mg/dL</td></tr></table></div>"
        },
        "status": "final",
        "subject": {
          "reference": "urn:uuid:0fcf1b5b-13e8-47fe-a60d-636dd9818b35",
          "display": "Meaghan Neary"
        },
        "effectiveDateTime": "2017-08-28T22:11:04Z",
        "specimen": {
          "reference": "urn:uuid:e01ba7e3-062e-4a29-afb4-08b8ae972d6e"
        }
      }
    },
    {
      "fullUrl": "urn:uuid:a6e05e7f-eb0b-4279-8c8b-03a814973176",
      "resource": {
        "resourceType": "Observation",
        "id": "a6e05e7f-eb0b-4279-8c8b-03a814973176",
        "meta": {
          "profile": [
            "http://hl7.eu/fhir/laboratory/StructureDefinition/Observation-resultslab-eu-lab"
          ]
        },
        "performer": [
          {
            "display": "The Central European Lab"
          }
        ],
        "category": [
          {
            "coding": [
              {
                "system": "http://terminology.hl7.org/CodeSystem/observation-category",
                "code": "laboratory"
              }
            ]
          }
        ],
        "code": {
          "coding": [
            {
              "code": "2085-9",
              "system": "http://loinc.org",
              "display": "Cholesterol in HDL [Mass/volume] in Serum or Plasma"
            }
          ],
          "text": "Cholesterol in HDL [Mass/volume] in Serum or Plasma"
        },
        "valueQuantity": {
          "system": "http://unitsofmeasure.org",
          "value": 57.3,
          "unit": "mg/dL",
          "code": "mg/dL"
        },
        "referenceRange": [
          {
            "low": {
              "value": 50,
              "code": "mg/dL",
              "system": "http://unitsofmeasure.org"
            }
          },
          {
            "high": {
              "value": 100,
              "code": "mg/dL",
              "system": "http://unitsofmeasure.org"
            }
          }
        ],
        "text": {
          "status": "generated",
          "div": "<div xmlns=\"http://www.w3.org/1999/xhtml\"><table class=\"hl7__eu__lab__report\"><tr><th>Test</th><th>29-Aug-2017</th><th>Reference&#xA0;Range</th><th>Unit</th></tr><tr><td>Cholesterol in HDL [Mass/volume] in Serum or Plasma</td><td>57.3</td><td>50 - 100</td><td></td><td>mg/dL</td></tr></table></div>"
        },
        "status": "final",
        "subject": {
          "reference": "urn:uuid:0fcf1b5b-13e8-47fe-a60d-636dd9818b35",
          "display": "Meaghan Neary"
        },
        "effectiveDateTime": "2017-08-28T22:11:04Z",
        "specimen": {
          "reference": "urn:uuid:e01ba7e3-062e-4a29-afb4-08b8ae972d6e"
        }
      }
    },
    {
      "fullUrl": "urn:uuid:51200366-8622-4656-a56d-441348fa1cee",
      "resource": {
        "resourceType": "Observation",
        "id": "51200366-8622-4656-a56d-441348fa1cee",
        "meta": {
          "profile": [
            "http://hl7.eu/fhir/laboratory/StructureDefinition/Observation-resultslab-eu-lab"
          ]
        },
        "performer": [
          {
            "display": "The Central European Lab"
          }
        ],
        "category": [
          {
            "coding": [
              {
                "system": "http://terminology.hl7.org/CodeSystem/observation-category",
                "code": "laboratory"
              }
            ]
          }
        ],
        "code": {
          "coding": [
            {
              "code": "6690-2",
              "system": "http://loinc.org",
              "display": "Leukocytes [#/volume] in Blood by Automated count"
            }
          ],
          "text": "Leukocytes [#/volume] in Blood by Automated count"
        },
        "valueQuantity": {
          "system": "http://unitsofmeasure.org",
          "value": 3.9,
          "unit": "10*3/uL",
          "code": "10*3/uL"
        },
        "referenceRange": [
          {
            "low": {
              "value": 3.6,
              "code": "10*3/uL",
              "system": "http://unitsofmeasure.org"
            }
          },
          {
            "high": {
              "value": 10.5,
              "code": "10*3/uL",
              "system": "http://unitsofmeasure.org"
            }
          }
        ],
        "text": {
          "status": "generated",
          "div": "<div xmlns=\"http://www.w3.org/1999/xhtml\"><table class=\"hl7__eu__lab__report\"><tr><th>Test</th><th>29-Aug-2017</th><th>Reference&#xA0;Range</th><th>Unit</th></tr><tr><td>Leukocytes [#/volume] in Blood by Automated count</td><td>3.9</td><td>3.6 - 10.5</td><td></td><td>10*3/uL</td></tr></table></div>"
        },
        "status": "final",
        "subject": {
          "reference": "urn:uuid:0fcf1b5b-13e8-47fe-a60d-636dd9818b35",
          "display": "Meaghan Neary"
        },
        "effectiveDateTime": "2017-08-28T22:11:04Z",
        "specimen": {
          "reference": "urn:uuid:bc05c160-e533-4ca2-9d12-e72139251940"
        }
      }
    },
    {
      "fullUrl": "urn:uuid:b73e7b1c-fad2-4ed4-ae1c-7c46e8cbd8de",
      "resource": {
        "resourceType": "Observation",
        "id": "b73e7b1c-fad2-4ed4-ae1c-7c46e8cbd8de",
        "meta": {
          "profile": [
            "http://hl7.eu/fhir/laboratory/StructureDefinition/Observation-resultslab-eu-lab"
          ]
        },
        "performer": [
          {
            "display": "The Central European Lab"
          }
        ],
        "category": [
          {
            "coding": [
              {
                "system": "http://terminology.hl7.org/CodeSystem/observation-category",
                "code": "laboratory"
              }
            ]
          }
        ],
        "code": {
          "coding": [
            {
              "code": "789-8",
              "system": "http://loinc.org",
              "display": "Erythrocytes [#/volume] in Blood by Automated count"
            }
          ],
          "text": "Erythrocytes [#/volume] in Blood by Automated count"
        },
        "valueQuantity": {
          "system": "http://unitsofmeasure.org",
          "value": 4.9,
          "unit": "10*6/uL",
          "code": "10*6/uL"
        },
        "referenceRange": [
          {
            "low": {
              "value": 4.2,
              "code": "10*6/uL",
              "system": "http://unitsofmeasure.org"
            }
          },
          {
            "high": {
              "value": 5.7,
              "code": "10*6/uL",
              "system": "http://unitsofmeasure.org"
            }
          }
        ],
        "text": {
          "status": "generated",
          "div": "<div xmlns=\"http://www.w3.org/1999/xhtml\"><table class=\"hl7__eu__lab__report\"><tr><th>Test</th><th>29-Aug-2017</th><th>Reference&#xA0;Range</th><th>Unit</th></tr><tr><td>Erythrocytes [#/volume] in Blood by Automated count</td><td>4.9</td><td>4.2 - 5.7</td><td></td><td>10*6/uL</td></tr></table></div>"
        },
        "status": "final",
        "subject": {
          "reference": "urn:uuid:0fcf1b5b-13e8-47fe-a60d-636dd9818b35",
          "display": "Meaghan Neary"
        },
        "effectiveDateTime": "2017-08-28T22:11:04Z",
        "specimen": {
          "reference": "urn:uuid:bc05c160-e533-4ca2-9d12-e72139251940"
        }
      }
    },
    {
      "fullUrl": "urn:uuid:3070c806-7f47-411f-a474-54a7f04f1c72",
      "resource": {
        "resourceType": "Observation",
        "id": "3070c806-7f47-411f-a474-54a7f04f1c72",
        "meta": {
          "profile": [
            "http://hl7.eu/fhir/laboratory/StructureDefinition/Observation-resultslab-eu-lab"
          ]
        },
        "performer": [
          {
            "display": "The Central European Lab"
          }
        ],
        "category": [
          {
            "coding": [
              {
                "system": "http://terminology.hl7.org/CodeSystem/observation-category",
                "code": "laboratory"
              }
            ]
          }
        ],
        "code": {
          "coding": [
            {
              "code": "718-7",
              "system": "http://loinc.org",
              "display": "Hemoglobin [Mass/volume] in Blood"
            }
          ],
          "text": "Hemoglobin [Mass/volume] in Blood"
        },
        "valueQuantity": {
          "system": "http://unitsofmeasure.org",
          "value": 16.8,
          "unit": "g/dL",
          "code": "g/dL"
        },
        "referenceRange": [
          {
            "low": {
              "value": 12.1,
              "code": "g/dL",
              "system": "http://unitsofmeasure.org"
            }
          },
          {
            "high": {
              "value": 15.5,
              "code": "g/dL",
              "system": "http://unitsofmeasure.org"
            }
          }
        ],
        "interpretation": [
          {
            "coding": [
              {
                "code": "H",
                "system": "http://terminology.hl7.org/CodeSystem/v3-ObservationInterpretation",
                "display": "High"
              }
            ]
          }
        ],
        "text": {
          "status": "generated",
          "div": "<div xmlns=\"http://www.w3.org/1999/xhtml\"><table class=\"hl7__eu__lab__report\"><tr><th>Test</th><th>29-Aug-2017</th><th>Reference&#xA0;Range</th><th>Unit</th></tr><tr><td>Hemoglobin [Mass/volume] in Blood</td><td>16.8</td><td>12.1 - 15.5</td><td>H</td><td>g/dL</td></tr></table></div>"
        },
        "status": "final",
        "subject": {
          "reference": "urn:uuid:0fcf1b5b-13e8-47fe-a60d-636dd9818b35",
          "display": "Meaghan Neary"
        },
        "effectiveDateTime": "2017-08-28T22:11:04Z",
        "specimen": {
          "reference": "urn:uuid:bc05c160-e533-4ca2-9d12-e72139251940"
        }
      }
    },
    {
      "fullUrl": "urn:uuid:34c30495-34cf-429c-940c-26b8e8290c83",
      "resource": {
        "resourceType": "Observation",
        "id": "34c30495-34cf-429c-940c-26b8e8290c83",
        "meta": {
          "profile": [
            "http://hl7.eu/fhir/laboratory/StructureDefinition/Observation-resultslab-eu-lab"
          ]
        },
        "performer": [
          {
            "display": "The Central European Lab"
          }
        ],
        "category": [
          {
            "coding": [
              {
                "system": "http://terminology.hl7.org/CodeSystem/observation-category",
                "code": "laboratory"
              }
            ]
          }
        ],
        "code": {
          "coding": [
            {
              "code": "4544-3",
              "system": "http://loinc.org",
              "display": "Hematocrit [Volume Fraction] of Blood by Automated count"
            }
          ],
          "text": "Hematocrit [Volume Fraction] of Blood by Automated count"
        },
        "valueQuantity": {
          "system": "http://unitsofmeasure.org",
          "value": 35.9,
          "unit": "%",
          "code": "%"
        },
        "referenceRange": [
          {
            "low": {
              "value": 38,
              "code": "%",
              "system": "http://unitsofmeasure.org"
            }
          },
          {
            "high": {
              "value": 54,
              "code": "%",
              "system": "http://unitsofmeasure.org"
            }
          }
        ],
        "interpretation": [
          {
            "coding": [
              {
                "code": "L",
                "system": "http://terminology.hl7.org/CodeSystem/v3-ObservationInterpretation",
                "display": "Low"
              }
            ]
          }
        ],
        "text": {
          "status": "generated",
          "div": "<div xmlns=\"http://www.w3.org/1999/xhtml\"><table class=\"hl7__eu__lab__report\"><tr><th>Test</th><th>29-Aug-2017</th><th>Reference&#xA0;Range</th><th>Unit</th></tr><tr><td>Hematocrit [Volume Fraction] of Blood by Automated count</td><td>35.9</td><td>38 - 54</td><td>L</td><td>%</td></tr></table></div>"
        },
        "status": "final",
        "subject": {
          "reference": "urn:uuid:0fcf1b5b-13e8-47fe-a60d-636dd9818b35",
          "display": "Meaghan Neary"
        },
        "effectiveDateTime": "2017-08-28T22:11:04Z",
        "specimen": {
          "reference": "urn:uuid:bc05c160-e533-4ca2-9d12-e72139251940"
        }
      }
    },
    {
      "fullUrl": "urn:uuid:ef7a81ca-9b36-4808-91d2-8623ba97e82c",
      "resource": {
        "resourceType": "Observation",
        "id": "ef7a81ca-9b36-4808-91d2-8623ba97e82c",
        "meta": {
          "profile": [
            "http://hl7.eu/fhir/laboratory/StructureDefinition/Observation-resultslab-eu-lab"
          ]
        },
        "performer": [
          {
            "display": "The Central European Lab"
          }
        ],
        "category": [
          {
            "coding": [
              {
                "system": "http://terminology.hl7.org/CodeSystem/observation-category",
                "code": "laboratory"
              }
            ]
          }
        ],
        "code": {
          "coding": [
            {
              "code": "787-2",
              "system": "http://loinc.org",
              "display": "MCV [Entitic volume] by Automated count"
            }
          ],
          "text": "MCV [Entitic volume] by Automated count"
        },
        "valueQuantity": {
          "system": "http://unitsofmeasure.org",
          "value": 89.8,
          "unit": "fL",
          "code": "fL"
        },
        "referenceRange": [
          {
            "low": {
              "value": 82,
              "code": "fL",
              "system": "http://unitsofmeasure.org"
            }
          },
          {
            "high": {
              "value": 98,
              "code": "fL",
              "system": "http://unitsofmeasure.org"
            }
          }
        ],
        "text": {
          "status": "generated",
          "div": "<div xmlns=\"http://www.w3.org/1999/xhtml\"><table class=\"hl7__eu__lab__report\"><tr><th>Test</th><th>29-Aug-2017</th><th>Reference&#xA0;Range</th><th>Unit</th></tr><tr><td>MCV [Entitic volume] by Automated count</td><td>89.8</td><td>82 - 98</td><td></td><td>fL</td></tr></table></div>"
        },
        "status": "final",
        "subject": {
          "reference": "urn:uuid:0fcf1b5b-13e8-47fe-a60d-636dd9818b35",
          "display": "Meaghan Neary"
        },
        "effectiveDateTime": "2017-08-28T22:11:04Z",
        "specimen": {
          "reference": "urn:uuid:bc05c160-e533-4ca2-9d12-e72139251940"
        }
      }
    },
    {
      "fullUrl": "urn:uuid:9bdb3d30-ecbb-45a8-b456-541ddeba453c",
      "resource": {
        "resourceType": "Observation",
        "id": "9bdb3d30-ecbb-45a8-b456-541ddeba453c",
        "meta": {
          "profile": [
            "http://hl7.eu/fhir/laboratory/StructureDefinition/Observation-resultslab-eu-lab"
          ]
        },
        "performer": [
          {
            "display": "The Central European Lab"
          }
        ],
        "category": [
          {
            "coding": [
              {
                "system": "http://terminology.hl7.org/CodeSystem/observation-category",
                "code": "laboratory"
              }
            ]
          }
        ],
        "code": {
          "coding": [
            {
              "code": "785-6",
              "system": "http://loinc.org",
              "display": "MCH [Entitic mass] by Automated count"
            }
          ],
          "text": "MCH [Entitic mass] by Automated count"
        },
        "valueQuantity": {
          "system": "http://unitsofmeasure.org",
          "value": 31.3,
          "unit": "pg",
          "code": "pg"
        },
        "referenceRange": [
          {
            "low": {
              "value": 27,
              "code": "pg",
              "system": "http://unitsofmeasure.org"
            }
          },
          {
            "high": {
              "value": 34,
              "code": "pg",
              "system": "http://unitsofmeasure.org"
            }
          }
        ],
        "text": {
          "status": "generated",
          "div": "<div xmlns=\"http://www.w3.org/1999/xhtml\"><table class=\"hl7__eu__lab__report\"><tr><th>Test</th><th>29-Aug-2017</th><th>Reference&#xA0;Range</th><th>Unit</th></tr><tr><td>MCH [Entitic mass] by Automated count</td><td>31.3</td><td>27 - 34</td><td></td><td>pg</td></tr></table></div>"
        },
        "status": "final",
        "subject": {
          "reference": "urn:uuid:0fcf1b5b-13e8-47fe-a60d-636dd9818b35",
          "display": "Meaghan Neary"
        },
        "effectiveDateTime": "2017-08-28T22:11:04Z",
        "specimen": {
          "reference": "urn:uuid:bc05c160-e533-4ca2-9d12-e72139251940"
        }
      }
    },
    {
      "fullUrl": "urn:uuid:a86ff4fa-6ac5-4136-8aff-cc483e0fdfda",
      "resource": {
        "resourceType": "Observation",
        "id": "a86ff4fa-6ac5-4136-8aff-cc483e0fdfda",
        "meta": {
          "profile": [
            "http://hl7.eu/fhir/laboratory/StructureDefinition/Observation-resultslab-eu-lab"
          ]
        },
        "performer": [
          {
            "display": "The Central European Lab"
          }
        ],
        "category": [
          {
            "coding": [
              {
                "system": "http://terminology.hl7.org/CodeSystem/observation-category",
                "code": "laboratory"
              }
            ]
          }
        ],
        "code": {
          "coding": [
            {
              "code": "786-4",
              "system": "http://loinc.org",
              "display": "MCHC [Mass/volume] by Automated count"
            }
          ],
          "text": "MCHC [Mass/volume] by Automated count"
        },
        "valueQuantity": {
          "system": "http://unitsofmeasure.org",
          "value": 34.8,
          "unit": "g/dL",
          "code": "g/dL"
        },
        "referenceRange": [
          {
            "low": {
              "value": 31.5,
              "code": "g/dL",
              "system": "http://unitsofmeasure.org"
            }
          },
          {
            "high": {
              "value": 35,
              "code": "g/dL",
              "system": "http://unitsofmeasure.org"
            }
          }
        ],
        "text": {
          "status": "generated",
          "div": "<div xmlns=\"http://www.w3.org/1999/xhtml\"><table class=\"hl7__eu__lab__report\"><tr><th>Test</th><th>29-Aug-2017</th><th>Reference&#xA0;Range</th><th>Unit</th></tr><tr><td>MCHC [Mass/volume] by Automated count</td><td>34.8</td><td>31.5 - 35</td><td></td><td>g/dL</td></tr></table></div>"
        },
        "status": "final",
        "subject": {
          "reference": "urn:uuid:0fcf1b5b-13e8-47fe-a60d-636dd9818b35",
          "display": "Meaghan Neary"
        },
        "effectiveDateTime": "2017-08-28T22:11:04Z",
        "specimen": {
          "reference": "urn:uuid:bc05c160-e533-4ca2-9d12-e72139251940"
        }
      }
    },
    {
      "fullUrl": "urn:uuid:f589d7f0-61b3-4e44-86e4-8a8ebd17506e",
      "resource": {
        "resourceType": "Observation",
        "id": "f589d7f0-61b3-4e44-86e4-8a8ebd17506e",
        "meta": {
          "profile": [
            "http://hl7.eu/fhir/laboratory/StructureDefinition/Observation-resultslab-eu-lab"
          ]
        },
        "performer": [
          {
            "display": "The Central European Lab"
          }
        ],
        "category": [
          {
            "coding": [
              {
                "system": "http://terminology.hl7.org/CodeSystem/observation-category",
                "code": "laboratory"
              }
            ]
          }
        ],
        "code": {
          "coding": [
            {
              "code": "21000-5",
              "system": "http://loinc.org",
              "display": "Erythrocyte distribution width [Entitic volume] by Automated count"
            }
          ],
          "text": "Erythrocyte distribution width [Entitic volume] by Automated count"
        },
        "valueQuantity": {
          "system": "http://unitsofmeasure.org",
          "value": 43.4,
          "unit": "fL",
          "code": "fL"
        },
        "referenceRange": [
          {
            "low": {
              "value": 36,
              "code": "fL",
              "system": "http://unitsofmeasure.org"
            }
          },
          {
            "high": {
              "value": 55,
              "code": "fL",
              "system": "http://unitsofmeasure.org"
            }
          }
        ],
        "text": {
          "status": "generated",
          "div": "<div xmlns=\"http://www.w3.org/1999/xhtml\"><table class=\"hl7__eu__lab__report\"><tr><th>Test</th><th>29-Aug-2017</th><th>Reference&#xA0;Range</th><th>Unit</th></tr><tr><td>Erythrocyte distribution width [Entitic volume] by Automated count</td><td>43.4</td><td>36 - 55</td><td></td><td>fL</td></tr></table></div>"
        },
        "status": "final",
        "subject": {
          "reference": "urn:uuid:0fcf1b5b-13e8-47fe-a60d-636dd9818b35",
          "display": "Meaghan Neary"
        },
        "effectiveDateTime": "2017-08-28T22:11:04Z",
        "specimen": {
          "reference": "urn:uuid:bc05c160-e533-4ca2-9d12-e72139251940"
        }
      }
    },
    {
      "fullUrl": "urn:uuid:ed61ba0f-3da8-4f1d-89b1-4b502d0f1004",
      "resource": {
        "resourceType": "Observation",
        "id": "ed61ba0f-3da8-4f1d-89b1-4b502d0f1004",
        "meta": {
          "profile": [
            "http://hl7.eu/fhir/laboratory/StructureDefinition/Observation-resultslab-eu-lab"
          ]
        },
        "performer": [
          {
            "display": "The Central European Lab"
          }
        ],
        "category": [
          {
            "coding": [
              {
                "system": "http://terminology.hl7.org/CodeSystem/observation-category",
                "code": "laboratory"
              }
            ]
          }
        ],
        "code": {
          "coding": [
            {
              "code": "777-3",
              "system": "http://loinc.org",
              "display": "Platelets [#/volume] in Blood by Automated count"
            }
          ],
          "text": "Platelets [#/volume] in Blood by Automated count"
        },
        "valueQuantity": {
          "system": "http://unitsofmeasure.org",
          "value": 343.7,
          "unit": "10*3/uL",
          "code": "10*3/uL"
        },
        "referenceRange": [
          {
            "low": {
              "value": 150,
              "code": "10*3/uL",
              "system": "http://unitsofmeasure.org"
            }
          },
          {
            "high": {
              "value": 450,
              "code": "10*3/uL",
              "system": "http://unitsofmeasure.org"
            }
          }
        ],
        "text": {
          "status": "generated",
          "div": "<div xmlns=\"http://www.w3.org/1999/xhtml\"><table class=\"hl7__eu__lab__report\"><tr><th>Test</th><th>29-Aug-2017</th><th>Reference&#xA0;Range</th><th>Unit</th></tr><tr><td>Platelets [#/volume] in Blood by Automated count</td><td>343.7</td><td>150 - 450</td><td></td><td>10*3/uL</td></tr></table></div>"
        },
        "status": "final",
        "subject": {
          "reference": "urn:uuid:0fcf1b5b-13e8-47fe-a60d-636dd9818b35",
          "display": "Meaghan Neary"
        },
        "effectiveDateTime": "2017-08-28T22:11:04Z",
        "specimen": {
          "reference": "urn:uuid:bc05c160-e533-4ca2-9d12-e72139251940"
        }
      }
    },
    {
      "fullUrl": "urn:uuid:34ea5a5c-f2bb-4d2c-b120-977d06ff5a02",
      "resource": {
        "resourceType": "Observation",
        "id": "34ea5a5c-f2bb-4d2c-b120-977d06ff5a02",
        "meta": {
          "profile": [
            "http://hl7.eu/fhir/laboratory/StructureDefinition/Observation-resultslab-eu-lab"
          ]
        },
        "performer": [
          {
            "display": "The Central European Lab"
          }
        ],
        "category": [
          {
            "coding": [
              {
                "system": "http://terminology.hl7.org/CodeSystem/observation-category",
                "code": "laboratory"
              }
            ]
          }
        ],
        "code": {
          "coding": [
            {
              "code": "32207-3",
              "system": "http://loinc.org",
              "display": "Platelet distribution width [Entitic volume] in Blood by Automated count"
            }
          ],
          "text": "Platelet distribution width [Entitic volume] in Blood by Automated count"
        },
        "valueQuantity": {
          "system": "http://unitsofmeasure.org",
          "value": 279.6,
          "unit": "fL",
          "code": "fL"
        },
        "referenceRange": [
          {
            "low": {
              "value": 15,
              "code": "fL",
              "system": "http://unitsofmeasure.org"
            }
          },
          {
            "high": {
              "value": 450,
              "code": "fL",
              "system": "http://unitsofmeasure.org"
            }
          }
        ],
        "text": {
          "status": "generated",
          "div": "<div xmlns=\"http://www.w3.org/1999/xhtml\"><table class=\"hl7__eu__lab__report\"><tr><th>Test</th><th>29-Aug-2017</th><th>Reference&#xA0;Range</th><th>Unit</th></tr><tr><td>Platelet distribution width [Entitic volume] in Blood by Automated count</td><td>279.6</td><td>15 - 450</td><td></td><td>fL</td></tr></table></div>"
        },
        "status": "final",
        "subject": {
          "reference": "urn:uuid:0fcf1b5b-13e8-47fe-a60d-636dd9818b35",
          "display": "Meaghan Neary"
        },
        "effectiveDateTime": "2017-08-28T22:11:04Z",
        "specimen": {
          "reference": "urn:uuid:bc05c160-e533-4ca2-9d12-e72139251940"
        }
      }
    },
    {
      "fullUrl": "urn:uuid:f27c6fd8-2357-4afd-9b4c-791767b6e365",
      "resource": {
        "resourceType": "Observation",
        "id": "f27c6fd8-2357-4afd-9b4c-791767b6e365",
        "meta": {
          "profile": [
            "http://hl7.eu/fhir/laboratory/StructureDefinition/Observation-resultslab-eu-lab"
          ]
        },
        "performer": [
          {
            "display": "The Central European Lab"
          }
        ],
        "category": [
          {
            "coding": [
              {
                "system": "http://terminology.hl7.org/CodeSystem/observation-category",
                "code": "laboratory"
              }
            ]
          }
        ],
        "code": {
          "coding": [
            {
              "code": "32623-1",
              "system": "http://loinc.org",
              "display": "Platelet mean volume [Entitic volume] in Blood by Automated count"
            }
          ],
          "text": "Platelet mean volume [Entitic volume] in Blood by Automated count"
        },
        "valueQuantity": {
          "system": "http://unitsofmeasure.org",
          "value": 10.1,
          "unit": "fL",
          "code": "fL"
        },
        "referenceRange": [
          {
            "low": {
              "value": 7.4,
              "code": "fL",
              "system": "http://unitsofmeasure.org"
            }
          },
          {
            "high": {
              "value": 12,
              "code": "fL",
              "system": "http://unitsofmeasure.org"
            }
          }
        ],
        "text": {
          "status": "generated",
          "div": "<div xmlns=\"http://www.w3.org/1999/xhtml\"><table class=\"hl7__eu__lab__report\"><tr><th>Test</th><th>29-Aug-2017</th><th>Reference&#xA0;Range</th><th>Unit</th></tr><tr><td>Platelet mean volume [Entitic volume] in Blood by Automated count</td><td>10.1</td><td>7.4 - 12</td><td></td><td>fL</td></tr></table></div>"
        },
        "status": "final",
        "subject": {
          "reference": "urn:uuid:0fcf1b5b-13e8-47fe-a60d-636dd9818b35",
          "display": "Meaghan Neary"
        },
        "effectiveDateTime": "2017-08-28T22:11:04Z",
        "specimen": {
          "reference": "urn:uuid:bc05c160-e533-4ca2-9d12-e72139251940"
        }
      }
    },
    {
      "fullUrl": "urn:uuid:3f3ccea8-a6c4-4c46-8b8c-c62b015a40ce",
      "resource": {
        "resourceType": "Device",
        "id": "3f3ccea8-a6c4-4c46-8b8c-c62b015a40ce",
        "deviceName": [
          {
            "name": "SYNDERAI Synthetic Generator",
            "type": "manufacturer-name"
          }
        ],
        "version": [
          {
            "value": "5.0"
          }
        ],
        "text": {
          "status": "generated",
          "div": "<div xmlns=\"http://www.w3.org/1999/xhtml\">SYNDERAI Synthetic Generator v5.0</div>"
        },
        "status": "active\"",
        "distinctIdentifier": "synderai-generator-50",
        "manufacturer": "SYNDERAI Project"
      }
    },
    {
      "fullUrl": "urn:uuid:310c4abe-0028-4239-82b7-5bc6cd9c6f82",
      "resource": {
        "resourceType": "Provenance",
        "id": "310c4abe-0028-4239-82b7-5bc6cd9c6f82",
        "target": [
          {
            "reference": "Patient/0fcf1b5b-13e8-47fe-a60d-636dd9818b35"
          },
          {
            "reference": "Bundle/c2caa247-7d38-41ed-8aa9-d7642a7fc0d1"
          },
          {
            "reference": "Composition/c13fce07-3dbd-4309-953e-2828c555a5ff"
          },
          {
            "reference": "PractitionerRole/178c7f3d-a238-455b-9f14-e18a2a3dc5e7"
          },
          {
            "reference": "Practitioner/f4829212-eb69-4e6a-9f6e-835dbbb672a5"
          },
          {
            "reference": "PractitionerRole/fc69a42e-d045-44a8-a636-69bd89cb4121"
          },
          {
            "reference": "Organization/da791459-9ee5-4d72-bdb3-6d46c3202585"
          }
        ],
        "activity": {
          "text": "Synthetic Example Data Generation"
        },
        "policy": [
          "https://synderai.net/synderai-synthetic-data-policy"
        ],
        "agent": [
          {
            "type": {
              "text": "author"
            },
            "who": {
              "reference": "Device/3f3ccea8-a6c4-4c46-8b8c-c62b015a40ce"
            }
          }
        ],
        "reason": [
          {
            "text": "Interoperability Testing and Training (non-clinical use)"
          }
        ],
        "text": {
          "status": "generated",
          "div": "<div xmlns=\"http://www.w3.org/1999/xhtml\">Provenance for SYNDERAI Synthetic Example Data Resource</div>"
        },
        "recorded": "2017-08-29T00:11:04Z"
      }
    },
    {
      "fullUrl": "urn:uuid:178c7f3d-a238-455b-9f14-e18a2a3dc5e7",
      "resource": {
        "resourceType": "PractitionerRole",
        "id": "178c7f3d-a238-455b-9f14-e18a2a3dc5e7",
        "meta": {
          "profile": [
            "http://hl7.eu/fhir/base/StructureDefinition/practitionerRole-eu"
          ]
        },
        "text": {
          "status": "generated",
          "div": "<div xmlns=\"http://www.w3.org/1999/xhtml\">Laboratory Role Id: 178c7f3d-a238-455b-9f14-e18a2a3dc5e7</div>"
        },
        "practitioner": {
          "reference": "urn:uuid:f4829212-eb69-4e6a-9f6e-835dbbb672a5"
        }
      }
    },
    {
      "fullUrl": "urn:uuid:f4829212-eb69-4e6a-9f6e-835dbbb672a5",
      "resource": {
        "resourceType": "Practitioner",
        "id": "f4829212-eb69-4e6a-9f6e-835dbbb672a5",
        "meta": {
          "profile": [
            "http://hl7.eu/fhir/base/StructureDefinition/practitioner-eu"
          ]
        },
        "identifier": [
          {
            "assigner": {
              "display": "HL7 Europe"
            },
            "system": "urn:oid:2.16.840.1.113883.2.51.999",
            "value": "13711419-f54a-487d-8ce5-0fb1e34c0b1d"
          }
        ],
        "name": [
          {
            "prefix": [
              "dr"
            ],
            "given": [
              "Ex"
            ],
            "family": "Ample"
          }
        ],
        "address": [
          {
            "line": [
              "Laboratoire Central Européenne",
              "Boulevard du Jardin Botanique 32"
            ],
            "postalCode": "1000",
            "city": "Brussels",
            "country": "Belgium"
          }
        ],
        "text": {
          "status": "generated",
          "div": "<div xmlns=\"http://www.w3.org/1999/xhtml\">Laboratory: Laboratoire Central Européenne, 1000 Brussels, Belgium</div>"
        }
      }
    }
  ],
  "type": "document",
  "timestamp": "2017-08-29T00:11:04Z"
}
