{
  "resourceType": "Bundle",
  "id": "776b8aea-e8a4-4fb6-b912-48c57d6e6a44",
  "meta": {
    "profile": [
      "http://hl7.eu/fhir/laboratory/StructureDefinition/Bundle-eu-lab"
    ]
  },
  "identifier": {
    "assigner": {
      "display": "HL7 Europe"
    },
    "system": "urn:oid:2.16.840.1.113883.2.51.999",
    "value": "f2ea54cd-b2c4-4ea0-9ccb-e27773d514f4"
  },
  "entry": [
    {
      "fullUrl": "urn:uuid:cbf14684-92d8-4b78-8a88-8097ed0e3e40",
      "resource": {
        "resourceType": "Composition",
        "id": "cbf14684-92d8-4b78-8a88-8097ed0e3e40",
        "meta": {
          "profile": [
            "http://hl7.eu/fhir/laboratory/StructureDefinition/Composition-eu-lab"
          ]
        },
        "identifier": {
          "assigner": {
            "display": "HL7 Europe"
          },
          "system": "urn:oid:2.16.840.1.113883.2.51.999",
          "value": "cceed7f7-e779-4971-86d7-fc6a53fe4109"
        },
        "author": [
          {
            "reference": "urn:uuid:947b5ef8-6bff-4a25-ad5e-d1a5832ca184"
          }
        ],
        "category": [
          {
            "coding": [
              {
                "code": "26436-6",
                "system": "http://loinc.org",
                "display": "Laboratory studies (set)"
              }
            ]
          }
        ],
        "type": {
          "coding": [
            {
              "code": "11502-2",
              "system": "http://loinc.org",
              "display": "Laboratory report"
            }
          ],
          "text": "Laboratory Report"
        },
        "section": [
          {
            "code": {
              "coding": [
                {
                  "code": "26436-6",
                  "system": "http://loinc.org",
                  "display": "Laboratory studies (set)"
                }
              ],
              "text": "Laboratory studies"
            },
            "section": [
              {
                "code": {
                  "coding": [
                    {
                      "code": "$18719-5",
                      "system": "http://loinc.org",
                      "display": "Chemistry studies (set)"
                    }
                  ],
                  "text": "Chemistry"
                },
                "entry": [
                  {
                    "reference": "urn:uuid:4b394682-ad4b-4e53-a96b-b3e771a6ef90"
                  },
                  {
                    "reference": "urn:uuid:5e1bde02-8137-47db-96e4-f2264bc34a48"
                  },
                  {
                    "reference": "urn:uuid:ab088a1c-419f-40fd-a2be-3ac3f7e5dd5a"
                  },
                  {
                    "reference": "urn:uuid:c0ccd433-09f8-475d-bdce-4b39e1396567"
                  },
                  {
                    "reference": "urn:uuid:8f1e4721-220f-4f74-9a8c-ee0f43e166fe"
                  },
                  {
                    "reference": "urn:uuid:7cd670eb-e9ca-4a4e-b133-e9e5b8b30daf"
                  },
                  {
                    "reference": "urn:uuid:3bd6714a-2c14-404c-8dda-8a29fe369e1a"
                  },
                  {
                    "reference": "urn:uuid:7faf329d-639e-4b4a-bc1b-832689efc30f"
                  },
                  {
                    "reference": "urn:uuid:9210e5af-b87e-4de6-948f-4ec5a17bdbfa"
                  },
                  {
                    "reference": "urn:uuid:30957a97-3ed5-4d31-a60c-28db383c82b1"
                  },
                  {
                    "reference": "urn:uuid:5a45e292-b9b6-4971-ac82-339e398c7bc5"
                  },
                  {
                    "reference": "urn:uuid:26ee61bd-c8ac-449c-b9de-1b1d337bbda0"
                  },
                  {
                    "reference": "urn:uuid:acd8c671-18aa-4a36-b82a-d87b8180b65a"
                  },
                  {
                    "reference": "urn:uuid:0188c012-16f7-40e9-9c1e-3d882fb4bb5a"
                  },
                  {
                    "reference": "urn:uuid:3594f373-3165-4d0b-93e2-9352caea6d4a"
                  },
                  {
                    "reference": "urn:uuid:e0b2bd08-1934-4626-b37d-559d66b0abd8"
                  },
                  {
                    "reference": "urn:uuid:ea55d3c4-6b43-4704-b689-3459c0188db9"
                  },
                  {
                    "reference": "urn:uuid:4822ff67-a341-421d-9af6-bbeeb49de896"
                  }
                ],
                "text": {
                  "status": "generated",
                  "div": "<div xmlns=\"http://www.w3.org/1999/xhtml\"><h3>Chemistry</h3><table class=\"hl7__eu__lab__report\"><thead><tr><th>Test</th><th>01-FEB-2017</th><th>Reference&#xA0;Range</th><th>Unit</th></tr></thead><tbody><tr><td>Glucose [Mass/volume] in Serum or Plasma</td><td><strong>65.2 L</strong></td><td>70 - 140</td><td>mg/dL</td></tr><tr><td>Urea nitrogen [Mass/volume] in Serum or Plasma</td><td>11.1</td><td>7 - 20</td><td>mg/dL</td></tr><tr><td>Creatinine [Mass/volume] in Serum or Plasma</td><td><strong>1.9 H</strong></td><td>0.9 - 1.3</td><td>mg/dL</td></tr><tr><td>Calcium [Mass/volume] in Serum or Plasma</td><td>9.5</td><td>8.5 - 10.5</td><td>mg/dL</td></tr><tr><td>Sodium [Moles/volume] in Serum or Plasma</td><td>142.1</td><td>135 - 145</td><td>mmol/L</td></tr><tr><td>Potassium [Moles/volume] in Serum or Plasma</td><td>4.7</td><td>3.5 - 5</td><td>mmol/L</td></tr><tr><td>Chloride [Moles/volume] in Serum or Plasma</td><td>106.5</td><td>98 - 108</td><td>mmol/L</td></tr><tr><td>Carbon dioxide, total [Moles/volume] in Serum or Plasma</td><td>22.4</td><td>22 - 29</td><td>mmol/L</td></tr><tr><td>Ketones [Presence] in Urine by Test strip</td><td>Urine ketone test = ++</td><td></td><td></td></tr><tr><td>Hemoglobin A1c/Hemoglobin.total in Blood</td><td><strong>3.2 L</strong></td><td>4.3 - 6.4</td><td>%</td></tr><tr><td>Glucose [Mass/volume] in Blood</td><td><strong>65.2 L</strong></td><td>70 - 140</td><td>mg/dL</td></tr><tr><td>Urea nitrogen [Mass/volume] in Blood</td><td>11.1</td><td>7 - 20</td><td>mg/dL</td></tr><tr><td>Creatinine [Mass/volume] in Blood</td><td><strong>7.1 H</strong></td><td>0.6 - 1.3</td><td>mg/dL</td></tr><tr><td>Calcium [Mass/volume] in Blood</td><td>9.5</td><td>8.5 - 10.5</td><td>mg/dL</td></tr><tr><td>Sodium [Moles/volume] in Blood</td><td>142.1</td><td>135 - 145</td><td>mmol/L</td></tr><tr><td>Potassium [Moles/volume] in Blood</td><td>4.7</td><td>3.5 - 5.3</td><td>mmol/L</td></tr><tr><td>Chloride [Moles/volume] in Blood</td><td>106.5</td><td>98 - 110</td><td>mmol/L</td></tr><tr><td>Carbon dioxide, total [Moles/volume] in Blood</td><td>22.4</td><td>22 - 29</td><td>mmol/L</td></tr></tbody></table></div>"
                },
                "title": "Chemistry"
              },
              {
                "code": {
                  "coding": [
                    {
                      "code": "$18729-4",
                      "system": "http://loinc.org",
                      "display": "Urinalysis studies (set)"
                    }
                  ],
                  "text": "Urinalysis"
                },
                "entry": [
                  {
                    "reference": "urn:uuid:4df757cb-abfa-4ec5-b8fb-b3ddedd7678b"
                  },
                  {
                    "reference": "urn:uuid:6991379b-d8e7-4c44-b9ff-aaf93e793d42"
                  },
                  {
                    "reference": "urn:uuid:b1834c5c-7d89-4a51-ae52-f644979e2d9e"
                  },
                  {
                    "reference": "urn:uuid:d922ef73-9072-4ee9-ba2f-f9105c583103"
                  },
                  {
                    "reference": "urn:uuid:a9b7eba4-001b-465a-acd5-82be456f43ae"
                  },
                  {
                    "reference": "urn:uuid:a10d12b1-7557-476d-aaa7-9566a5ce34e4"
                  },
                  {
                    "reference": "urn:uuid:644a1d7a-8fa6-4c97-a0b3-d31c4119d3ab"
                  },
                  {
                    "reference": "urn:uuid:a96308d3-59ce-4d2b-84b6-34e87a72216a"
                  },
                  {
                    "reference": "urn:uuid:d3df83bf-cd2a-4e32-be96-2e3f74929b66"
                  },
                  {
                    "reference": "urn:uuid:36d03efd-10f4-4843-8b6e-3c2b584e5d3d"
                  },
                  {
                    "reference": "urn:uuid:772f88f0-8460-4caf-9119-da5a1130b137"
                  },
                  {
                    "reference": "urn:uuid:2a457762-b25c-4f3c-aaf8-b661057068e0"
                  }
                ],
                "text": {
                  "status": "generated",
                  "div": "<div xmlns=\"http://www.w3.org/1999/xhtml\"><h3>Urinalysis</h3><table class=\"hl7__eu__lab__report\"><thead><tr><th>Test</th><th>01-FEB-2017</th><th>Reference&#xA0;Range</th><th>Unit</th></tr></thead><tbody><tr><td>Glucose [Mass/volume] in Urine by Test strip</td><td><strong>1.5 H</strong></td><td>0 - 0.8</td><td>mg/dL</td></tr><tr><td>Glucose [Presence] in Urine by Test strip</td><td>++</td><td></td><td></td></tr><tr><td>Bilirubin.total [Mass/volume] in Urine by Test strip</td><td>0.5</td><td>0.2 - 1</td><td>mg/dL</td></tr><tr><td>Bilirubin.total [Presence] in Urine by Test strip</td><td>Finding of bilirubin in urine</td><td></td><td></td></tr><tr><td>Ketones [Mass/volume] in Urine by Test strip</td><td><strong>11.4 H</strong></td><td>0 - 5</td><td>mg/dL</td></tr><tr><td>Specific gravity of Urine by Test strip</td><td><strong>1.0 L</strong></td><td>1.005 - 1.03</td><td>{nominal}</td></tr><tr><td>pH of Urine by Test strip</td><td>7.0</td><td>4.6 - 7</td><td>pH</td></tr><tr><td>Protein [Mass/volume] in Urine by Test strip</td><td><strong>299.4 H</strong></td><td>0 - 150</td><td>mg/dL</td></tr><tr><td>Protein [Presence] in Urine by Test strip</td><td>Urine protein test = ++</td><td></td><td></td></tr><tr><td>Nitrite [Presence] in Urine by Test strip</td><td>Urine nitrite negative</td><td></td><td></td></tr><tr><td>Hemoglobin [Presence] in Urine by Test strip</td><td>Urine blood test = negative</td><td></td><td></td></tr><tr><td>Leukocyte esterase [Presence] in Urine by Test strip</td><td>Urine leukocyte test negative</td><td></td><td></td></tr></tbody></table></div>"
                },
                "title": "Urinalysis"
              },
              {
                "code": {
                  "coding": [
                    {
                      "code": "$LP7846-1",
                      "system": "http://loinc.org",
                      "display": "Specimen information"
                    }
                  ],
                  "text": "Specimen information"
                },
                "entry": [
                  {
                    "reference": "urn:uuid:0e3d7db7-8ab0-4b2e-817e-adca4e3615ac"
                  },
                  {
                    "reference": "urn:uuid:d59ea161-0e5c-446d-9e3e-00e3c74f5617"
                  },
                  {
                    "reference": "urn:uuid:b715ae4e-aaaf-4acf-86d0-d1573501fb06"
                  },
                  {
                    "reference": "urn:uuid:308c3c8b-61e1-4155-a47b-3a2008bdfe2b"
                  }
                ],
                "text": {
                  "status": "generated",
                  "div": "<div xmlns=\"http://www.w3.org/1999/xhtml\"><h3>Specimen information</h3><table class=\"hl7__eu__lab__report\"><thead><tr><th>Test</th><th>01-FEB-2017</th><th>Specimen</th><th></th></tr></thead><tbody><tr><td>Appearance of Urine</td><td>Cloudy urine</td><td>Urine</td><td></td></tr><tr><td>Odor of Urine</td><td>Urine smell ammoniacal</td><td>Urine</td><td></td></tr><tr><td>Clarity of Urine</td><td>Translucent</td><td>Urine</td><td></td></tr><tr><td>Color of Urine</td><td>Brown color</td><td>Urine</td><td></td></tr></tbody></table></div>"
                },
                "title": "Specimen information"
              }
            ],
            "title": "Laboratory Report"
          },
          {
            "text": {
              "status": "generated",
              "div": "<div xmlns=\"http://www.w3.org/1999/xhtml\"><h3>Annotation</h3><table class=\"hl7__eu__lab__report\"><tr><th>Conclusion and Recommendations based on this report and previous findings known to us</th></tr><tr><td>The patient shows significant renal dysfunction (markedly elevated creatinine), proteinuria, glycosuria, and ketonuria, with low blood glucose and HbA1c, and abnormal urine appearance (cloudy, brown, ammoniacal). These findings suggest acute or chronic kidney injury, possible nephrotic syndrome, and metabolic derangements. Urgent clinical evaluation and nephrology referral are recommended.</td></tr></table></div>"
            },
            "code": {
              "coding": [
                {
                  "system": "http://loinc.org",
                  "code": "48767-8",
                  "display": "Annotation comment"
                }
              ]
            },
            "title": "Annotation comment"
          }
        ],
        "status": "final",
        "subject": {
          "reference": "urn:uuid:6ff2e5a3-501a-4300-a896-bed60849f708",
          "display": "Θεμιστοκλής Λιναρδάκη"
        },
        "date": "2017-02-01T07:16:00Z",
        "title": "Laboratory Report",
        "confidentiality": "N"
      }
    },
    {
      "fullUrl": "urn:uuid:230f8894-ca5e-42cd-8724-dcfc6a115ebe",
      "resource": {
        "resourceType": "DiagnosticReport",
        "id": "230f8894-ca5e-42cd-8724-dcfc6a115ebe",
        "meta": {
          "profile": [
            "http://hl7.eu/fhir/laboratory/StructureDefinition/DiagnosticReport-eu-lab"
          ]
        },
        "identifier": [
          {
            "assigner": {
              "display": "HL7 Europe"
            },
            "system": "urn:oid:2.16.840.1.113883.2.51.999",
            "value": "b61827ca-9ff1-4e97-9b49-c3f402e7854a"
          }
        ],
        "extension": [
          {
            "url": "http://hl7.org/fhir/5.0/StructureDefinition/extension-DiagnosticReport.composition",
            "valueReference": {
              "reference": "urn:uuid:cceed7f7-e779-4971-86d7-fc6a53fe4109"
            }
          }
        ],
        "category": [
          {
            "coding": [
              {
                "code": "26436-6",
                "system": "http://loinc.org",
                "display": "Laboratory studies (set)"
              }
            ]
          }
        ],
        "specimen": [
          {
            "reference": "urn:uuid:00bd467a-a50b-4104-982d-8719fb98fd8d"
          },
          {
            "reference": "urn:uuid:df0f2796-b264-459f-884f-0eb52b28ae1f"
          },
          {
            "reference": "urn:uuid:5854c47f-12e1-489a-a371-c805ade8ddbc"
          }
        ],
        "result": [
          {
            "reference": "urn:uuid:4b394682-ad4b-4e53-a96b-b3e771a6ef90"
          },
          {
            "reference": "urn:uuid:5e1bde02-8137-47db-96e4-f2264bc34a48"
          },
          {
            "reference": "urn:uuid:ab088a1c-419f-40fd-a2be-3ac3f7e5dd5a"
          },
          {
            "reference": "urn:uuid:c0ccd433-09f8-475d-bdce-4b39e1396567"
          },
          {
            "reference": "urn:uuid:8f1e4721-220f-4f74-9a8c-ee0f43e166fe"
          },
          {
            "reference": "urn:uuid:7cd670eb-e9ca-4a4e-b133-e9e5b8b30daf"
          },
          {
            "reference": "urn:uuid:3bd6714a-2c14-404c-8dda-8a29fe369e1a"
          },
          {
            "reference": "urn:uuid:7faf329d-639e-4b4a-bc1b-832689efc30f"
          },
          {
            "reference": "urn:uuid:0e3d7db7-8ab0-4b2e-817e-adca4e3615ac"
          },
          {
            "reference": "urn:uuid:d59ea161-0e5c-446d-9e3e-00e3c74f5617"
          },
          {
            "reference": "urn:uuid:b715ae4e-aaaf-4acf-86d0-d1573501fb06"
          },
          {
            "reference": "urn:uuid:308c3c8b-61e1-4155-a47b-3a2008bdfe2b"
          },
          {
            "reference": "urn:uuid:4df757cb-abfa-4ec5-b8fb-b3ddedd7678b"
          },
          {
            "reference": "urn:uuid:6991379b-d8e7-4c44-b9ff-aaf93e793d42"
          },
          {
            "reference": "urn:uuid:b1834c5c-7d89-4a51-ae52-f644979e2d9e"
          },
          {
            "reference": "urn:uuid:d922ef73-9072-4ee9-ba2f-f9105c583103"
          },
          {
            "reference": "urn:uuid:a9b7eba4-001b-465a-acd5-82be456f43ae"
          },
          {
            "reference": "urn:uuid:9210e5af-b87e-4de6-948f-4ec5a17bdbfa"
          },
          {
            "reference": "urn:uuid:a10d12b1-7557-476d-aaa7-9566a5ce34e4"
          },
          {
            "reference": "urn:uuid:644a1d7a-8fa6-4c97-a0b3-d31c4119d3ab"
          },
          {
            "reference": "urn:uuid:a96308d3-59ce-4d2b-84b6-34e87a72216a"
          },
          {
            "reference": "urn:uuid:d3df83bf-cd2a-4e32-be96-2e3f74929b66"
          },
          {
            "reference": "urn:uuid:36d03efd-10f4-4843-8b6e-3c2b584e5d3d"
          },
          {
            "reference": "urn:uuid:772f88f0-8460-4caf-9119-da5a1130b137"
          },
          {
            "reference": "urn:uuid:2a457762-b25c-4f3c-aaf8-b661057068e0"
          },
          {
            "reference": "urn:uuid:30957a97-3ed5-4d31-a60c-28db383c82b1"
          },
          {
            "reference": "urn:uuid:5a45e292-b9b6-4971-ac82-339e398c7bc5"
          },
          {
            "reference": "urn:uuid:26ee61bd-c8ac-449c-b9de-1b1d337bbda0"
          },
          {
            "reference": "urn:uuid:acd8c671-18aa-4a36-b82a-d87b8180b65a"
          },
          {
            "reference": "urn:uuid:0188c012-16f7-40e9-9c1e-3d882fb4bb5a"
          },
          {
            "reference": "urn:uuid:3594f373-3165-4d0b-93e2-9352caea6d4a"
          },
          {
            "reference": "urn:uuid:e0b2bd08-1934-4626-b37d-559d66b0abd8"
          },
          {
            "reference": "urn:uuid:ea55d3c4-6b43-4704-b689-3459c0188db9"
          },
          {
            "reference": "urn:uuid:4822ff67-a341-421d-9af6-bbeeb49de896"
          }
        ],
        "status": "registered",
        "code": {
          "coding": [
            {
              "code": "11502-2",
              "system": "http://loinc.org",
              "display": "Laboratory report"
            }
          ]
        },
        "subject": {
          "reference": "urn:uuid:6ff2e5a3-501a-4300-a896-bed60849f708",
          "display": "Θεμιστοκλής Λιναρδάκη"
        }
      }
    },
    {
      "fullUrl": "urn:uuid:6ff2e5a3-501a-4300-a896-bed60849f708",
      "resource": {
        "resourceType": "Patient",
        "id": "6ff2e5a3-501a-4300-a896-bed60849f708",
        "meta": {
          "security": [
            {
              "system": "http://terminology.hl7.org/CodeSystem/v3-ActReason",
              "code": "HTEST"
            },
            {
              "system": "http://terminology.hl7.org/CodeSystem/v3-ActReason",
              "code": "TRAIN"
            }
          ],
          "tag": [
            {
              "system": "https://synderai.net/fhir/CodeSystem/tags",
              "code": "synthetic",
              "display": "SYNDERAI Synthetic data"
            }
          ],
          "profile": [
            "http://hl7.eu/fhir/base/StructureDefinition/patient-eu-core"
          ]
        },
        "identifier": [
          {
            "type": {
              "coding": [
                {
                  "code": "PT",
                  "system": "http://terminology.hl7.org/CodeSystem/v2-0203"
                }
              ]
            },
            "system": "http://ec.europa.eu/identifier/eci",
            "value": "5962-476889-7"
          },
          {
            "type": {
              "coding": [
                {
                  "code": "MR",
                  "system": "http://terminology.hl7.org/CodeSystem/v2-0203"
                }
              ]
            },
            "system": "http://local.setting.eu/identifier",
            "value": "925e2603-2ef9-6bdf-1330-2ebf526636c4"
          }
        ],
        "name": [
          {
            "family": "Λιναρδάκη"
          },
          {
            "given": [
              "Θεμιστοκλής"
            ]
          },
          {
            "text": "Θεμιστοκλής Λιναρδάκη"
          }
        ],
        "address": [
          {
            "line": [
              "Αμαρύνθου 54-58"
            ],
            "use": "home",
            "type": "physical",
            "postalCode": "262 21",
            "city": "Πάτρα",
            "country": "Greece"
          }
        ],
        "telecom": [
          {
            "system": "phone",
            "value": "+302226364480"
          }
        ],
        "extension": [
          {
            "url": "http://hl7.org/fhir/StructureDefinition/patient-nationality",
            "valueCodeableConcept": {
              "coding": [
                {
                  "code": "GR",
                  "system": "http://hl7.org/fhir/ValueSet/country"
                }
              ]
            }
          }
        ],
        "text": {
          "status": "generated",
          "div": "<div xmlns=\"http://www.w3.org/1999/xhtml\"><table class=\"hl7__ips\"><tr><td>Θεμιστοκλής Λιναρδάκη</td><td>male</td><td>21-Jan-1974</td></tr></table></div>"
        },
        "gender": "male",
        "birthDate": "1974-01-21"
      }
    },
    {
      "fullUrl": "urn:uuid:923859df-215b-4792-a6e2-da5195f0bf6c",
      "resource": {
        "resourceType": "ServiceRequest",
        "id": "923859df-215b-4792-a6e2-da5195f0bf6c",
        "meta": {
          "profile": [
            "http://hl7.eu/fhir/laboratory/StructureDefinition/ServiceRequest-eu-lab"
          ]
        },
        "identifier": [
          {
            "system": "http://example.org",
            "value": "6da02951-7b5e-454e-af8e-f16477ac5f1d"
          }
        ],
        "specimen": [
          {
            "reference": "urn:uuid:00bd467a-a50b-4104-982d-8719fb98fd8d"
          },
          {
            "reference": "urn:uuid:df0f2796-b264-459f-884f-0eb52b28ae1f"
          },
          {
            "reference": "urn:uuid:5854c47f-12e1-489a-a371-c805ade8ddbc"
          }
        ],
        "reasonCode": [
          {
            "coding": [
              {
                "code": "237602007",
                "system": "http://snomed.info/sct",
                "display": "Metabolic syndrome X"
              }
            ]
          },
          {
            "coding": [
              {
                "code": "433144002",
                "system": "http://snomed.info/sct",
                "display": "Chronic kidney disease stage 3"
              }
            ]
          },
          {
            "coding": [
              {
                "code": "157141000119108",
                "system": "http://snomed.info/sct",
                "display": "Proteinuria due to type 2 diabetes mellitus"
              }
            ]
          },
          {
            "coding": [
              {
                "code": "431856006",
                "system": "http://snomed.info/sct",
                "display": "Chronic kidney disease stage 2"
              }
            ]
          },
          {
            "coding": [
              {
                "code": "90781000119102",
                "system": "http://snomed.info/sct",
                "display": "Microalbuminuria due to type 2 diabetes mellitus"
              }
            ]
          },
          {
            "coding": [
              {
                "code": "127013003",
                "system": "http://snomed.info/sct",
                "display": "Disorder of kidney due to diabetes mellitus"
              }
            ]
          },
          {
            "coding": [
              {
                "code": "431855005",
                "system": "http://snomed.info/sct",
                "display": "Chronic kidney disease stage 1"
              }
            ]
          },
          {
            "coding": [
              {
                "code": "59621000",
                "system": "http://snomed.info/sct",
                "display": "Essential hypertension"
              }
            ]
          },
          {
            "coding": [
              {
                "code": "15777000",
                "system": "http://snomed.info/sct",
                "display": "Prediabetes"
              }
            ]
          },
          {
            "coding": [
              {
                "code": "271737000",
                "system": "http://snomed.info/sct",
                "display": "Anemia"
              }
            ]
          }
        ],
        "status": "active",
        "intent": "order",
        "code": {
          "coding": [
            {
              "code": "108252007",
              "system": "http://snomed.info/sct",
              "display": "Laboratory procedure"
            }
          ]
        },
        "subject": {
          "reference": "urn:uuid:6ff2e5a3-501a-4300-a896-bed60849f708",
          "display": "Θεμιστοκλής Λιναρδάκη"
        },
        "requester": {
          "reference": "urn:uuid:5e4e85d6-3f29-4d90-9c96-aa5a2ef784b9"
        }
      }
    },
    {
      "fullUrl": "urn:uuid:5e4e85d6-3f29-4d90-9c96-aa5a2ef784b9",
      "resource": {
        "resourceType": "PractitionerRole",
        "id": "5e4e85d6-3f29-4d90-9c96-aa5a2ef784b9",
        "meta": {
          "profile": [
            "http://hl7.eu/fhir/base/StructureDefinition/practitionerRole-eu"
          ]
        },
        "text": {
          "status": "generated",
          "div": "<div xmlns=\"http://www.w3.org/1999/xhtml\">Provider Role Id: 5e4e85d6-3f29-4d90-9c96-aa5a2ef784b9</div>"
        },
        "organization": {
          "reference": "urn:uuid:b1398122-d957-4f16-be0e-8df922842c7d"
        }
      }
    },
    {
      "fullUrl": "urn:uuid:b1398122-d957-4f16-be0e-8df922842c7d",
      "resource": {
        "resourceType": "Organization",
        "id": "b1398122-d957-4f16-be0e-8df922842c7d",
        "meta": {
          "profile": [
            "http://hl7.eu/fhir/base/StructureDefinition/organization-eu"
          ]
        },
        "identifier": [
          {
            "assigner": {
              "display": "HL7 Europe"
            },
            "system": "urn:oid:2.16.840.1.113883.2.51.999",
            "value": "b3320a01-66c0-4223-9777-25b7d789cfe8"
          }
        ],
        "address": [
          {
            "line": [
              "211 Odós Filellinon"
            ],
            "city": "Patras",
            "postalCode": "262 21",
            "country": "Greece"
          }
        ],
        "text": {
          "status": "generated",
          "div": "<div xmlns=\"http://www.w3.org/1999/xhtml\">Provider Organization: Dr. Dimitris Economou</div>"
        },
        "name": "Dr. Dimitris Economou"
      }
    },
    {
      "fullUrl": "urn:uuid:00bd467a-a50b-4104-982d-8719fb98fd8d",
      "resource": {
        "resourceType": "Specimen",
        "id": "00bd467a-a50b-4104-982d-8719fb98fd8d",
        "meta": {
          "profile": [
            "http://hl7.eu/fhir/laboratory/StructureDefinition/Specimen-eu-lab"
          ]
        },
        "collection": {
          "collectedDateTime": "2017-02-01"
        },
        "text": {
          "status": "generated",
          "div": "<div xmlns=\"http://www.w3.org/1999/xhtml\"><table class=\"hl7__eu__lab__report\"><tr><th>Specimen</th><th>Collection Date</th></tr><tr><td>Acellular blood (serum or plasma) specimen</td><td><span class=\"nb\">01-Feb-2017</span></td></tr></table></div>"
        },
        "type": {
          "coding": [
            {
              "code": "122592007",
              "system": "http://snomed.info/sct",
              "display": "Acellular blood (serum or plasma) specimen"
            }
          ]
        }
      }
    },
    {
      "fullUrl": "urn:uuid:df0f2796-b264-459f-884f-0eb52b28ae1f",
      "resource": {
        "resourceType": "Specimen",
        "id": "df0f2796-b264-459f-884f-0eb52b28ae1f",
        "meta": {
          "profile": [
            "http://hl7.eu/fhir/laboratory/StructureDefinition/Specimen-eu-lab"
          ]
        },
        "collection": {
          "collectedDateTime": "2017-02-01"
        },
        "text": {
          "status": "generated",
          "div": "<div xmlns=\"http://www.w3.org/1999/xhtml\"><table class=\"hl7__eu__lab__report\"><tr><th>Specimen</th><th>Collection Date</th></tr><tr><td>Urine specimen</td><td><span class=\"nb\">01-Feb-2017</span></td></tr></table></div>"
        },
        "type": {
          "coding": [
            {
              "code": "122575003",
              "system": "http://snomed.info/sct",
              "display": "Urine specimen"
            }
          ]
        }
      }
    },
    {
      "fullUrl": "urn:uuid:5854c47f-12e1-489a-a371-c805ade8ddbc",
      "resource": {
        "resourceType": "Specimen",
        "id": "5854c47f-12e1-489a-a371-c805ade8ddbc",
        "meta": {
          "profile": [
            "http://hl7.eu/fhir/laboratory/StructureDefinition/Specimen-eu-lab"
          ]
        },
        "collection": {
          "collectedDateTime": "2017-02-01"
        },
        "text": {
          "status": "generated",
          "div": "<div xmlns=\"http://www.w3.org/1999/xhtml\"><table class=\"hl7__eu__lab__report\"><tr><th>Specimen</th><th>Collection Date</th></tr><tr><td>Whole blood specimen (specimen)</td><td><span class=\"nb\">01-Feb-2017</span></td></tr></table></div>"
        },
        "type": {
          "coding": [
            {
              "code": "258580003",
              "system": "http://snomed.info/sct",
              "display": "Whole blood specimen (specimen)"
            }
          ]
        }
      }
    },
    {
      "fullUrl": "urn:uuid:4b394682-ad4b-4e53-a96b-b3e771a6ef90",
      "resource": {
        "resourceType": "Observation",
        "id": "4b394682-ad4b-4e53-a96b-b3e771a6ef90",
        "meta": {
          "profile": [
            "http://hl7.eu/fhir/laboratory/StructureDefinition/Observation-resultslab-eu-lab"
          ]
        },
        "performer": [
          {
            "display": "The Central European Lab"
          }
        ],
        "category": [
          {
            "coding": [
              {
                "system": "http://terminology.hl7.org/CodeSystem/observation-category",
                "code": "laboratory"
              }
            ]
          }
        ],
        "code": {
          "coding": [
            {
              "code": "2345-7",
              "system": "http://loinc.org",
              "display": "Glucose [Mass/volume] in Serum or Plasma"
            }
          ],
          "text": "Glucose [Mass/volume] in Serum or Plasma"
        },
        "valueQuantity": {
          "system": "http://unitsofmeasure.org",
          "value": 65.2,
          "unit": "mg/dL",
          "code": "mg/dL"
        },
        "referenceRange": [
          {
            "low": {
              "value": 70,
              "code": "mg/dL",
              "system": "http://unitsofmeasure.org"
            }
          },
          {
            "high": {
              "value": 140,
              "code": "mg/dL",
              "system": "http://unitsofmeasure.org"
            }
          }
        ],
        "interpretation": [
          {
            "coding": [
              {
                "code": "L",
                "system": "http://terminology.hl7.org/CodeSystem/v3-ObservationInterpretation",
                "display": "Low"
              }
            ]
          }
        ],
        "text": {
          "status": "generated",
          "div": "<div xmlns=\"http://www.w3.org/1999/xhtml\"><table class=\"hl7__eu__lab__report\"><tr><th>Test</th><th>01-Feb-2017</th><th>Reference&#xA0;Range</th><th>Unit</th></tr><tr><td>Glucose [Mass/volume] in Serum or Plasma</td><td>65.2</td><td>70 - 140</td><td>L</td><td>mg/dL</td></tr></table></div>"
        },
        "status": "final",
        "subject": {
          "reference": "urn:uuid:6ff2e5a3-501a-4300-a896-bed60849f708",
          "display": "Θεμιστοκλής Λιναρδάκη"
        },
        "effectiveDateTime": "2017-02-01T06:16:00Z",
        "specimen": {
          "reference": "urn:uuid:00bd467a-a50b-4104-982d-8719fb98fd8d"
        }
      }
    },
    {
      "fullUrl": "urn:uuid:5e1bde02-8137-47db-96e4-f2264bc34a48",
      "resource": {
        "resourceType": "Observation",
        "id": "5e1bde02-8137-47db-96e4-f2264bc34a48",
        "meta": {
          "profile": [
            "http://hl7.eu/fhir/laboratory/StructureDefinition/Observation-resultslab-eu-lab"
          ]
        },
        "performer": [
          {
            "display": "The Central European Lab"
          }
        ],
        "category": [
          {
            "coding": [
              {
                "system": "http://terminology.hl7.org/CodeSystem/observation-category",
                "code": "laboratory"
              }
            ]
          }
        ],
        "code": {
          "coding": [
            {
              "code": "3094-0",
              "system": "http://loinc.org",
              "display": "Urea nitrogen [Mass/volume] in Serum or Plasma"
            }
          ],
          "text": "Urea nitrogen [Mass/volume] in Serum or Plasma"
        },
        "valueQuantity": {
          "system": "http://unitsofmeasure.org",
          "value": 11.1,
          "unit": "mg/dL",
          "code": "mg/dL"
        },
        "referenceRange": [
          {
            "low": {
              "value": 7,
              "code": "mg/dL",
              "system": "http://unitsofmeasure.org"
            }
          },
          {
            "high": {
              "value": 20,
              "code": "mg/dL",
              "system": "http://unitsofmeasure.org"
            }
          }
        ],
        "text": {
          "status": "generated",
          "div": "<div xmlns=\"http://www.w3.org/1999/xhtml\"><table class=\"hl7__eu__lab__report\"><tr><th>Test</th><th>01-Feb-2017</th><th>Reference&#xA0;Range</th><th>Unit</th></tr><tr><td>Urea nitrogen [Mass/volume] in Serum or Plasma</td><td>11.1</td><td>7 - 20</td><td></td><td>mg/dL</td></tr></table></div>"
        },
        "status": "final",
        "subject": {
          "reference": "urn:uuid:6ff2e5a3-501a-4300-a896-bed60849f708",
          "display": "Θεμιστοκλής Λιναρδάκη"
        },
        "effectiveDateTime": "2017-02-01T06:16:00Z",
        "specimen": {
          "reference": "urn:uuid:00bd467a-a50b-4104-982d-8719fb98fd8d"
        }
      }
    },
    {
      "fullUrl": "urn:uuid:ab088a1c-419f-40fd-a2be-3ac3f7e5dd5a",
      "resource": {
        "resourceType": "Observation",
        "id": "ab088a1c-419f-40fd-a2be-3ac3f7e5dd5a",
        "meta": {
          "profile": [
            "http://hl7.eu/fhir/laboratory/StructureDefinition/Observation-resultslab-eu-lab"
          ]
        },
        "performer": [
          {
            "display": "The Central European Lab"
          }
        ],
        "category": [
          {
            "coding": [
              {
                "system": "http://terminology.hl7.org/CodeSystem/observation-category",
                "code": "laboratory"
              }
            ]
          }
        ],
        "code": {
          "coding": [
            {
              "code": "2160-0",
              "system": "http://loinc.org",
              "display": "Creatinine [Mass/volume] in Serum or Plasma"
            }
          ],
          "text": "Creatinine [Mass/volume] in Serum or Plasma"
        },
        "valueQuantity": {
          "system": "http://unitsofmeasure.org",
          "value": 1.9,
          "unit": "mg/dL",
          "code": "mg/dL"
        },
        "referenceRange": [
          {
            "low": {
              "value": 0.9,
              "code": "mg/dL",
              "system": "http://unitsofmeasure.org"
            }
          },
          {
            "high": {
              "value": 1.3,
              "code": "mg/dL",
              "system": "http://unitsofmeasure.org"
            }
          }
        ],
        "interpretation": [
          {
            "coding": [
              {
                "code": "H",
                "system": "http://terminology.hl7.org/CodeSystem/v3-ObservationInterpretation",
                "display": "High"
              }
            ]
          }
        ],
        "text": {
          "status": "generated",
          "div": "<div xmlns=\"http://www.w3.org/1999/xhtml\"><table class=\"hl7__eu__lab__report\"><tr><th>Test</th><th>01-Feb-2017</th><th>Reference&#xA0;Range</th><th>Unit</th></tr><tr><td>Creatinine [Mass/volume] in Serum or Plasma</td><td>1.9</td><td>0.9 - 1.3</td><td>H</td><td>mg/dL</td></tr></table></div>"
        },
        "status": "final",
        "subject": {
          "reference": "urn:uuid:6ff2e5a3-501a-4300-a896-bed60849f708",
          "display": "Θεμιστοκλής Λιναρδάκη"
        },
        "effectiveDateTime": "2017-02-01T06:16:00Z",
        "specimen": {
          "reference": "urn:uuid:00bd467a-a50b-4104-982d-8719fb98fd8d"
        }
      }
    },
    {
      "fullUrl": "urn:uuid:c0ccd433-09f8-475d-bdce-4b39e1396567",
      "resource": {
        "resourceType": "Observation",
        "id": "c0ccd433-09f8-475d-bdce-4b39e1396567",
        "meta": {
          "profile": [
            "http://hl7.eu/fhir/laboratory/StructureDefinition/Observation-resultslab-eu-lab"
          ]
        },
        "performer": [
          {
            "display": "The Central European Lab"
          }
        ],
        "category": [
          {
            "coding": [
              {
                "system": "http://terminology.hl7.org/CodeSystem/observation-category",
                "code": "laboratory"
              }
            ]
          }
        ],
        "code": {
          "coding": [
            {
              "code": "17861-6",
              "system": "http://loinc.org",
              "display": "Calcium [Mass/volume] in Serum or Plasma"
            }
          ],
          "text": "Calcium [Mass/volume] in Serum or Plasma"
        },
        "valueQuantity": {
          "system": "http://unitsofmeasure.org",
          "value": 9.5,
          "unit": "mg/dL",
          "code": "mg/dL"
        },
        "referenceRange": [
          {
            "low": {
              "value": 8.5,
              "code": "mg/dL",
              "system": "http://unitsofmeasure.org"
            }
          },
          {
            "high": {
              "value": 10.5,
              "code": "mg/dL",
              "system": "http://unitsofmeasure.org"
            }
          }
        ],
        "text": {
          "status": "generated",
          "div": "<div xmlns=\"http://www.w3.org/1999/xhtml\"><table class=\"hl7__eu__lab__report\"><tr><th>Test</th><th>01-Feb-2017</th><th>Reference&#xA0;Range</th><th>Unit</th></tr><tr><td>Calcium [Mass/volume] in Serum or Plasma</td><td>9.5</td><td>8.5 - 10.5</td><td></td><td>mg/dL</td></tr></table></div>"
        },
        "status": "final",
        "subject": {
          "reference": "urn:uuid:6ff2e5a3-501a-4300-a896-bed60849f708",
          "display": "Θεμιστοκλής Λιναρδάκη"
        },
        "effectiveDateTime": "2017-02-01T06:16:00Z",
        "specimen": {
          "reference": "urn:uuid:00bd467a-a50b-4104-982d-8719fb98fd8d"
        }
      }
    },
    {
      "fullUrl": "urn:uuid:8f1e4721-220f-4f74-9a8c-ee0f43e166fe",
      "resource": {
        "resourceType": "Observation",
        "id": "8f1e4721-220f-4f74-9a8c-ee0f43e166fe",
        "meta": {
          "profile": [
            "http://hl7.eu/fhir/laboratory/StructureDefinition/Observation-resultslab-eu-lab"
          ]
        },
        "performer": [
          {
            "display": "The Central European Lab"
          }
        ],
        "category": [
          {
            "coding": [
              {
                "system": "http://terminology.hl7.org/CodeSystem/observation-category",
                "code": "laboratory"
              }
            ]
          }
        ],
        "code": {
          "coding": [
            {
              "code": "2951-2",
              "system": "http://loinc.org",
              "display": "Sodium [Moles/volume] in Serum or Plasma"
            }
          ],
          "text": "Sodium [Moles/volume] in Serum or Plasma"
        },
        "valueQuantity": {
          "system": "http://unitsofmeasure.org",
          "value": 142.1,
          "unit": "mmol/L",
          "code": "mmol/L"
        },
        "referenceRange": [
          {
            "low": {
              "value": 135,
              "code": "mmol/L",
              "system": "http://unitsofmeasure.org"
            }
          },
          {
            "high": {
              "value": 145,
              "code": "mmol/L",
              "system": "http://unitsofmeasure.org"
            }
          }
        ],
        "text": {
          "status": "generated",
          "div": "<div xmlns=\"http://www.w3.org/1999/xhtml\"><table class=\"hl7__eu__lab__report\"><tr><th>Test</th><th>01-Feb-2017</th><th>Reference&#xA0;Range</th><th>Unit</th></tr><tr><td>Sodium [Moles/volume] in Serum or Plasma</td><td>142.1</td><td>135 - 145</td><td></td><td>mmol/L</td></tr></table></div>"
        },
        "status": "final",
        "subject": {
          "reference": "urn:uuid:6ff2e5a3-501a-4300-a896-bed60849f708",
          "display": "Θεμιστοκλής Λιναρδάκη"
        },
        "effectiveDateTime": "2017-02-01T06:16:00Z",
        "specimen": {
          "reference": "urn:uuid:00bd467a-a50b-4104-982d-8719fb98fd8d"
        }
      }
    },
    {
      "fullUrl": "urn:uuid:7cd670eb-e9ca-4a4e-b133-e9e5b8b30daf",
      "resource": {
        "resourceType": "Observation",
        "id": "7cd670eb-e9ca-4a4e-b133-e9e5b8b30daf",
        "meta": {
          "profile": [
            "http://hl7.eu/fhir/laboratory/StructureDefinition/Observation-resultslab-eu-lab"
          ]
        },
        "performer": [
          {
            "display": "The Central European Lab"
          }
        ],
        "category": [
          {
            "coding": [
              {
                "system": "http://terminology.hl7.org/CodeSystem/observation-category",
                "code": "laboratory"
              }
            ]
          }
        ],
        "code": {
          "coding": [
            {
              "code": "2823-3",
              "system": "http://loinc.org",
              "display": "Potassium [Moles/volume] in Serum or Plasma"
            }
          ],
          "text": "Potassium [Moles/volume] in Serum or Plasma"
        },
        "valueQuantity": {
          "system": "http://unitsofmeasure.org",
          "value": 4.7,
          "unit": "mmol/L",
          "code": "mmol/L"
        },
        "referenceRange": [
          {
            "low": {
              "value": 3.5,
              "code": "mmol/L",
              "system": "http://unitsofmeasure.org"
            }
          },
          {
            "high": {
              "value": 5,
              "code": "mmol/L",
              "system": "http://unitsofmeasure.org"
            }
          }
        ],
        "text": {
          "status": "generated",
          "div": "<div xmlns=\"http://www.w3.org/1999/xhtml\"><table class=\"hl7__eu__lab__report\"><tr><th>Test</th><th>01-Feb-2017</th><th>Reference&#xA0;Range</th><th>Unit</th></tr><tr><td>Potassium [Moles/volume] in Serum or Plasma</td><td>4.7</td><td>3.5 - 5</td><td></td><td>mmol/L</td></tr></table></div>"
        },
        "status": "final",
        "subject": {
          "reference": "urn:uuid:6ff2e5a3-501a-4300-a896-bed60849f708",
          "display": "Θεμιστοκλής Λιναρδάκη"
        },
        "effectiveDateTime": "2017-02-01T06:16:00Z",
        "specimen": {
          "reference": "urn:uuid:00bd467a-a50b-4104-982d-8719fb98fd8d"
        }
      }
    },
    {
      "fullUrl": "urn:uuid:3bd6714a-2c14-404c-8dda-8a29fe369e1a",
      "resource": {
        "resourceType": "Observation",
        "id": "3bd6714a-2c14-404c-8dda-8a29fe369e1a",
        "meta": {
          "profile": [
            "http://hl7.eu/fhir/laboratory/StructureDefinition/Observation-resultslab-eu-lab"
          ]
        },
        "performer": [
          {
            "display": "The Central European Lab"
          }
        ],
        "category": [
          {
            "coding": [
              {
                "system": "http://terminology.hl7.org/CodeSystem/observation-category",
                "code": "laboratory"
              }
            ]
          }
        ],
        "code": {
          "coding": [
            {
              "code": "2075-0",
              "system": "http://loinc.org",
              "display": "Chloride [Moles/volume] in Serum or Plasma"
            }
          ],
          "text": "Chloride [Moles/volume] in Serum or Plasma"
        },
        "valueQuantity": {
          "system": "http://unitsofmeasure.org",
          "value": 106.5,
          "unit": "mmol/L",
          "code": "mmol/L"
        },
        "referenceRange": [
          {
            "low": {
              "value": 98,
              "code": "mmol/L",
              "system": "http://unitsofmeasure.org"
            }
          },
          {
            "high": {
              "value": 108,
              "code": "mmol/L",
              "system": "http://unitsofmeasure.org"
            }
          }
        ],
        "text": {
          "status": "generated",
          "div": "<div xmlns=\"http://www.w3.org/1999/xhtml\"><table class=\"hl7__eu__lab__report\"><tr><th>Test</th><th>01-Feb-2017</th><th>Reference&#xA0;Range</th><th>Unit</th></tr><tr><td>Chloride [Moles/volume] in Serum or Plasma</td><td>106.5</td><td>98 - 108</td><td></td><td>mmol/L</td></tr></table></div>"
        },
        "status": "final",
        "subject": {
          "reference": "urn:uuid:6ff2e5a3-501a-4300-a896-bed60849f708",
          "display": "Θεμιστοκλής Λιναρδάκη"
        },
        "effectiveDateTime": "2017-02-01T06:16:00Z",
        "specimen": {
          "reference": "urn:uuid:00bd467a-a50b-4104-982d-8719fb98fd8d"
        }
      }
    },
    {
      "fullUrl": "urn:uuid:7faf329d-639e-4b4a-bc1b-832689efc30f",
      "resource": {
        "resourceType": "Observation",
        "id": "7faf329d-639e-4b4a-bc1b-832689efc30f",
        "meta": {
          "profile": [
            "http://hl7.eu/fhir/laboratory/StructureDefinition/Observation-resultslab-eu-lab"
          ]
        },
        "performer": [
          {
            "display": "The Central European Lab"
          }
        ],
        "category": [
          {
            "coding": [
              {
                "system": "http://terminology.hl7.org/CodeSystem/observation-category",
                "code": "laboratory"
              }
            ]
          }
        ],
        "code": {
          "coding": [
            {
              "code": "2028-9",
              "system": "http://loinc.org",
              "display": "Carbon dioxide, total [Moles/volume] in Serum or Plasma"
            }
          ],
          "text": "Carbon dioxide, total [Moles/volume] in Serum or Plasma"
        },
        "valueQuantity": {
          "system": "http://unitsofmeasure.org",
          "value": 22.4,
          "unit": "mmol/L",
          "code": "mmol/L"
        },
        "referenceRange": [
          {
            "low": {
              "value": 22,
              "code": "mmol/L",
              "system": "http://unitsofmeasure.org"
            }
          },
          {
            "high": {
              "value": 29,
              "code": "mmol/L",
              "system": "http://unitsofmeasure.org"
            }
          }
        ],
        "text": {
          "status": "generated",
          "div": "<div xmlns=\"http://www.w3.org/1999/xhtml\"><table class=\"hl7__eu__lab__report\"><tr><th>Test</th><th>01-Feb-2017</th><th>Reference&#xA0;Range</th><th>Unit</th></tr><tr><td>Carbon dioxide, total [Moles/volume] in Serum or Plasma</td><td>22.4</td><td>22 - 29</td><td></td><td>mmol/L</td></tr></table></div>"
        },
        "status": "final",
        "subject": {
          "reference": "urn:uuid:6ff2e5a3-501a-4300-a896-bed60849f708",
          "display": "Θεμιστοκλής Λιναρδάκη"
        },
        "effectiveDateTime": "2017-02-01T06:16:00Z",
        "specimen": {
          "reference": "urn:uuid:00bd467a-a50b-4104-982d-8719fb98fd8d"
        }
      }
    },
    {
      "fullUrl": "urn:uuid:0e3d7db7-8ab0-4b2e-817e-adca4e3615ac",
      "resource": {
        "resourceType": "Observation",
        "id": "0e3d7db7-8ab0-4b2e-817e-adca4e3615ac",
        "meta": {
          "profile": [
            "http://hl7.eu/fhir/laboratory/StructureDefinition/Observation-resultslab-eu-lab"
          ]
        },
        "performer": [
          {
            "display": "The Central European Lab"
          }
        ],
        "category": [
          {
            "coding": [
              {
                "system": "http://terminology.hl7.org/CodeSystem/observation-category",
                "code": "laboratory"
              }
            ]
          }
        ],
        "code": {
          "coding": [
            {
              "code": "5767-9",
              "system": "http://loinc.org",
              "display": "Appearance of Urine"
            }
          ],
          "text": "Appearance of Urine"
        },
        "text": {
          "status": "generated",
          "div": "<div xmlns=\"http://www.w3.org/1999/xhtml\"><table class=\"hl7__eu__lab__report\"><tr><th>Test</th><th>01-Feb-2017</th><th>Reference&#xA0;Range</th><th>Unit</th></tr><tr><td>Appearance of Urine</td></tr></table></div>"
        },
        "status": "final",
        "subject": {
          "reference": "urn:uuid:6ff2e5a3-501a-4300-a896-bed60849f708",
          "display": "Θεμιστοκλής Λιναρδάκη"
        },
        "effectiveDateTime": "2017-02-01T06:16:00Z",
        "specimen": {
          "reference": "urn:uuid:df0f2796-b264-459f-884f-0eb52b28ae1f"
        }
      }
    },
    {
      "fullUrl": "urn:uuid:d59ea161-0e5c-446d-9e3e-00e3c74f5617",
      "resource": {
        "resourceType": "Observation",
        "id": "d59ea161-0e5c-446d-9e3e-00e3c74f5617",
        "meta": {
          "profile": [
            "http://hl7.eu/fhir/laboratory/StructureDefinition/Observation-resultslab-eu-lab"
          ]
        },
        "performer": [
          {
            "display": "The Central European Lab"
          }
        ],
        "category": [
          {
            "coding": [
              {
                "system": "http://terminology.hl7.org/CodeSystem/observation-category",
                "code": "laboratory"
              }
            ]
          }
        ],
        "code": {
          "coding": [
            {
              "code": "34533-0",
              "system": "http://loinc.org",
              "display": "Odor of Urine"
            }
          ],
          "text": "Odor of Urine"
        },
        "text": {
          "status": "generated",
          "div": "<div xmlns=\"http://www.w3.org/1999/xhtml\"><table class=\"hl7__eu__lab__report\"><tr><th>Test</th><th>01-Feb-2017</th><th>Reference&#xA0;Range</th><th>Unit</th></tr><tr><td>Odor of Urine</td></tr></table></div>"
        },
        "status": "final",
        "subject": {
          "reference": "urn:uuid:6ff2e5a3-501a-4300-a896-bed60849f708",
          "display": "Θεμιστοκλής Λιναρδάκη"
        },
        "effectiveDateTime": "2017-02-01T06:16:00Z",
        "specimen": {
          "reference": "urn:uuid:df0f2796-b264-459f-884f-0eb52b28ae1f"
        }
      }
    },
    {
      "fullUrl": "urn:uuid:b715ae4e-aaaf-4acf-86d0-d1573501fb06",
      "resource": {
        "resourceType": "Observation",
        "id": "b715ae4e-aaaf-4acf-86d0-d1573501fb06",
        "meta": {
          "profile": [
            "http://hl7.eu/fhir/laboratory/StructureDefinition/Observation-resultslab-eu-lab"
          ]
        },
        "performer": [
          {
            "display": "The Central European Lab"
          }
        ],
        "category": [
          {
            "coding": [
              {
                "system": "http://terminology.hl7.org/CodeSystem/observation-category",
                "code": "laboratory"
              }
            ]
          }
        ],
        "code": {
          "coding": [
            {
              "code": "32167-9",
              "system": "http://loinc.org",
              "display": "Clarity of Urine"
            }
          ],
          "text": "Clarity of Urine"
        },
        "text": {
          "status": "generated",
          "div": "<div xmlns=\"http://www.w3.org/1999/xhtml\"><table class=\"hl7__eu__lab__report\"><tr><th>Test</th><th>01-Feb-2017</th><th>Reference&#xA0;Range</th><th>Unit</th></tr><tr><td>Clarity of Urine</td></tr></table></div>"
        },
        "status": "final",
        "subject": {
          "reference": "urn:uuid:6ff2e5a3-501a-4300-a896-bed60849f708",
          "display": "Θεμιστοκλής Λιναρδάκη"
        },
        "effectiveDateTime": "2017-02-01T06:16:00Z",
        "specimen": {
          "reference": "urn:uuid:df0f2796-b264-459f-884f-0eb52b28ae1f"
        }
      }
    },
    {
      "fullUrl": "urn:uuid:308c3c8b-61e1-4155-a47b-3a2008bdfe2b",
      "resource": {
        "resourceType": "Observation",
        "id": "308c3c8b-61e1-4155-a47b-3a2008bdfe2b",
        "meta": {
          "profile": [
            "http://hl7.eu/fhir/laboratory/StructureDefinition/Observation-resultslab-eu-lab"
          ]
        },
        "performer": [
          {
            "display": "The Central European Lab"
          }
        ],
        "category": [
          {
            "coding": [
              {
                "system": "http://terminology.hl7.org/CodeSystem/observation-category",
                "code": "laboratory"
              }
            ]
          }
        ],
        "code": {
          "coding": [
            {
              "code": "5778-6",
              "system": "http://loinc.org",
              "display": "Color of Urine"
            }
          ],
          "text": "Color of Urine"
        },
        "text": {
          "status": "generated",
          "div": "<div xmlns=\"http://www.w3.org/1999/xhtml\"><table class=\"hl7__eu__lab__report\"><tr><th>Test</th><th>01-Feb-2017</th><th>Reference&#xA0;Range</th><th>Unit</th></tr><tr><td>Color of Urine</td></tr></table></div>"
        },
        "status": "final",
        "subject": {
          "reference": "urn:uuid:6ff2e5a3-501a-4300-a896-bed60849f708",
          "display": "Θεμιστοκλής Λιναρδάκη"
        },
        "effectiveDateTime": "2017-02-01T06:16:00Z",
        "specimen": {
          "reference": "urn:uuid:df0f2796-b264-459f-884f-0eb52b28ae1f"
        }
      }
    },
    {
      "fullUrl": "urn:uuid:4df757cb-abfa-4ec5-b8fb-b3ddedd7678b",
      "resource": {
        "resourceType": "Observation",
        "id": "4df757cb-abfa-4ec5-b8fb-b3ddedd7678b",
        "meta": {
          "profile": [
            "http://hl7.eu/fhir/laboratory/StructureDefinition/Observation-resultslab-eu-lab"
          ]
        },
        "performer": [
          {
            "display": "The Central European Lab"
          }
        ],
        "category": [
          {
            "coding": [
              {
                "system": "http://terminology.hl7.org/CodeSystem/observation-category",
                "code": "laboratory"
              }
            ]
          }
        ],
        "code": {
          "coding": [
            {
              "code": "5792-7",
              "system": "http://loinc.org",
              "display": "Glucose [Mass/volume] in Urine by Test strip"
            }
          ],
          "text": "Glucose [Mass/volume] in Urine by Test strip"
        },
        "valueQuantity": {
          "system": "http://unitsofmeasure.org",
          "value": 1.5,
          "unit": "mg/dL",
          "code": "mg/dL"
        },
        "referenceRange": [
          {
            "low": {
              "value": 0,
              "code": "mg/dL",
              "system": "http://unitsofmeasure.org"
            }
          },
          {
            "high": {
              "value": 0.8,
              "code": "mg/dL",
              "system": "http://unitsofmeasure.org"
            }
          }
        ],
        "interpretation": [
          {
            "coding": [
              {
                "code": "H",
                "system": "http://terminology.hl7.org/CodeSystem/v3-ObservationInterpretation",
                "display": "High"
              }
            ]
          }
        ],
        "text": {
          "status": "generated",
          "div": "<div xmlns=\"http://www.w3.org/1999/xhtml\"><table class=\"hl7__eu__lab__report\"><tr><th>Test</th><th>01-Feb-2017</th><th>Reference&#xA0;Range</th><th>Unit</th></tr><tr><td>Glucose [Mass/volume] in Urine by Test strip</td><td>1.5</td><td>0 - 0.8</td><td>H</td><td>mg/dL</td></tr></table></div>"
        },
        "status": "final",
        "subject": {
          "reference": "urn:uuid:6ff2e5a3-501a-4300-a896-bed60849f708",
          "display": "Θεμιστοκλής Λιναρδάκη"
        },
        "effectiveDateTime": "2017-02-01T06:16:00Z",
        "specimen": {
          "reference": "urn:uuid:df0f2796-b264-459f-884f-0eb52b28ae1f"
        }
      }
    },
    {
      "fullUrl": "urn:uuid:6991379b-d8e7-4c44-b9ff-aaf93e793d42",
      "resource": {
        "resourceType": "Observation",
        "id": "6991379b-d8e7-4c44-b9ff-aaf93e793d42",
        "meta": {
          "profile": [
            "http://hl7.eu/fhir/laboratory/StructureDefinition/Observation-resultslab-eu-lab"
          ]
        },
        "performer": [
          {
            "display": "The Central European Lab"
          }
        ],
        "category": [
          {
            "coding": [
              {
                "system": "http://terminology.hl7.org/CodeSystem/observation-category",
                "code": "laboratory"
              }
            ]
          }
        ],
        "code": {
          "coding": [
            {
              "code": "25428-4",
              "system": "http://loinc.org",
              "display": "Glucose [Presence] in Urine by Test strip"
            }
          ],
          "text": "Glucose [Presence] in Urine by Test strip"
        },
        "text": {
          "status": "generated",
          "div": "<div xmlns=\"http://www.w3.org/1999/xhtml\"><table class=\"hl7__eu__lab__report\"><tr><th>Test</th><th>01-Feb-2017</th><th>Reference&#xA0;Range</th><th>Unit</th></tr><tr><td>Glucose [Presence] in Urine by Test strip</td></tr></table></div>"
        },
        "status": "final",
        "subject": {
          "reference": "urn:uuid:6ff2e5a3-501a-4300-a896-bed60849f708",
          "display": "Θεμιστοκλής Λιναρδάκη"
        },
        "effectiveDateTime": "2017-02-01T06:16:00Z",
        "specimen": {
          "reference": "urn:uuid:df0f2796-b264-459f-884f-0eb52b28ae1f"
        }
      }
    },
    {
      "fullUrl": "urn:uuid:b1834c5c-7d89-4a51-ae52-f644979e2d9e",
      "resource": {
        "resourceType": "Observation",
        "id": "b1834c5c-7d89-4a51-ae52-f644979e2d9e",
        "meta": {
          "profile": [
            "http://hl7.eu/fhir/laboratory/StructureDefinition/Observation-resultslab-eu-lab"
          ]
        },
        "performer": [
          {
            "display": "The Central European Lab"
          }
        ],
        "category": [
          {
            "coding": [
              {
                "system": "http://terminology.hl7.org/CodeSystem/observation-category",
                "code": "laboratory"
              }
            ]
          }
        ],
        "code": {
          "coding": [
            {
              "code": "20505-4",
              "system": "http://loinc.org",
              "display": "Bilirubin.total [Mass/volume] in Urine by Test strip"
            }
          ],
          "text": "Bilirubin.total [Mass/volume] in Urine by Test strip"
        },
        "valueQuantity": {
          "system": "http://unitsofmeasure.org",
          "value": 0.5,
          "unit": "mg/dL",
          "code": "mg/dL"
        },
        "referenceRange": [
          {
            "low": {
              "value": 0.2,
              "code": "mg/dL",
              "system": "http://unitsofmeasure.org"
            }
          },
          {
            "high": {
              "value": 1,
              "code": "mg/dL",
              "system": "http://unitsofmeasure.org"
            }
          }
        ],
        "text": {
          "status": "generated",
          "div": "<div xmlns=\"http://www.w3.org/1999/xhtml\"><table class=\"hl7__eu__lab__report\"><tr><th>Test</th><th>01-Feb-2017</th><th>Reference&#xA0;Range</th><th>Unit</th></tr><tr><td>Bilirubin.total [Mass/volume] in Urine by Test strip</td><td>0.5</td><td>0.2 - 1</td><td></td><td>mg/dL</td></tr></table></div>"
        },
        "status": "final",
        "subject": {
          "reference": "urn:uuid:6ff2e5a3-501a-4300-a896-bed60849f708",
          "display": "Θεμιστοκλής Λιναρδάκη"
        },
        "effectiveDateTime": "2017-02-01T06:16:00Z",
        "specimen": {
          "reference": "urn:uuid:df0f2796-b264-459f-884f-0eb52b28ae1f"
        }
      }
    },
    {
      "fullUrl": "urn:uuid:d922ef73-9072-4ee9-ba2f-f9105c583103",
      "resource": {
        "resourceType": "Observation",
        "id": "d922ef73-9072-4ee9-ba2f-f9105c583103",
        "meta": {
          "profile": [
            "http://hl7.eu/fhir/laboratory/StructureDefinition/Observation-resultslab-eu-lab"
          ]
        },
        "performer": [
          {
            "display": "The Central European Lab"
          }
        ],
        "category": [
          {
            "coding": [
              {
                "system": "http://terminology.hl7.org/CodeSystem/observation-category",
                "code": "laboratory"
              }
            ]
          }
        ],
        "code": {
          "coding": [
            {
              "code": "5770-3",
              "system": "http://loinc.org",
              "display": "Bilirubin.total [Presence] in Urine by Test strip"
            }
          ],
          "text": "Bilirubin.total [Presence] in Urine by Test strip"
        },
        "text": {
          "status": "generated",
          "div": "<div xmlns=\"http://www.w3.org/1999/xhtml\"><table class=\"hl7__eu__lab__report\"><tr><th>Test</th><th>01-Feb-2017</th><th>Reference&#xA0;Range</th><th>Unit</th></tr><tr><td>Bilirubin.total [Presence] in Urine by Test strip</td></tr></table></div>"
        },
        "status": "final",
        "subject": {
          "reference": "urn:uuid:6ff2e5a3-501a-4300-a896-bed60849f708",
          "display": "Θεμιστοκλής Λιναρδάκη"
        },
        "effectiveDateTime": "2017-02-01T06:16:00Z",
        "specimen": {
          "reference": "urn:uuid:df0f2796-b264-459f-884f-0eb52b28ae1f"
        }
      }
    },
    {
      "fullUrl": "urn:uuid:a9b7eba4-001b-465a-acd5-82be456f43ae",
      "resource": {
        "resourceType": "Observation",
        "id": "a9b7eba4-001b-465a-acd5-82be456f43ae",
        "meta": {
          "profile": [
            "http://hl7.eu/fhir/laboratory/StructureDefinition/Observation-resultslab-eu-lab"
          ]
        },
        "performer": [
          {
            "display": "The Central European Lab"
          }
        ],
        "category": [
          {
            "coding": [
              {
                "system": "http://terminology.hl7.org/CodeSystem/observation-category",
                "code": "laboratory"
              }
            ]
          }
        ],
        "code": {
          "coding": [
            {
              "code": "5797-6",
              "system": "http://loinc.org",
              "display": "Ketones [Mass/volume] in Urine by Test strip"
            }
          ],
          "text": "Ketones [Mass/volume] in Urine by Test strip"
        },
        "valueQuantity": {
          "system": "http://unitsofmeasure.org",
          "value": 11.4,
          "unit": "mg/dL",
          "code": "mg/dL"
        },
        "referenceRange": [
          {
            "low": {
              "value": 0,
              "code": "mg/dL",
              "system": "http://unitsofmeasure.org"
            }
          },
          {
            "high": {
              "value": 5,
              "code": "mg/dL",
              "system": "http://unitsofmeasure.org"
            }
          }
        ],
        "interpretation": [
          {
            "coding": [
              {
                "code": "H",
                "system": "http://terminology.hl7.org/CodeSystem/v3-ObservationInterpretation",
                "display": "High"
              }
            ]
          }
        ],
        "text": {
          "status": "generated",
          "div": "<div xmlns=\"http://www.w3.org/1999/xhtml\"><table class=\"hl7__eu__lab__report\"><tr><th>Test</th><th>01-Feb-2017</th><th>Reference&#xA0;Range</th><th>Unit</th></tr><tr><td>Ketones [Mass/volume] in Urine by Test strip</td><td>11.4</td><td>0 - 5</td><td>H</td><td>mg/dL</td></tr></table></div>"
        },
        "status": "final",
        "subject": {
          "reference": "urn:uuid:6ff2e5a3-501a-4300-a896-bed60849f708",
          "display": "Θεμιστοκλής Λιναρδάκη"
        },
        "effectiveDateTime": "2017-02-01T06:16:00Z",
        "specimen": {
          "reference": "urn:uuid:df0f2796-b264-459f-884f-0eb52b28ae1f"
        }
      }
    },
    {
      "fullUrl": "urn:uuid:9210e5af-b87e-4de6-948f-4ec5a17bdbfa",
      "resource": {
        "resourceType": "Observation",
        "id": "9210e5af-b87e-4de6-948f-4ec5a17bdbfa",
        "meta": {
          "profile": [
            "http://hl7.eu/fhir/laboratory/StructureDefinition/Observation-resultslab-eu-lab"
          ]
        },
        "performer": [
          {
            "display": "The Central European Lab"
          }
        ],
        "category": [
          {
            "coding": [
              {
                "system": "http://terminology.hl7.org/CodeSystem/observation-category",
                "code": "laboratory"
              }
            ]
          }
        ],
        "code": {
          "coding": [
            {
              "code": "2514-8",
              "system": "http://loinc.org",
              "display": "Ketones [Presence] in Urine by Test strip"
            }
          ],
          "text": "Ketones [Presence] in Urine by Test strip"
        },
        "text": {
          "status": "generated",
          "div": "<div xmlns=\"http://www.w3.org/1999/xhtml\"><table class=\"hl7__eu__lab__report\"><tr><th>Test</th><th>01-Feb-2017</th><th>Reference&#xA0;Range</th><th>Unit</th></tr><tr><td>Ketones [Presence] in Urine by Test strip</td></tr></table></div>"
        },
        "status": "final",
        "subject": {
          "reference": "urn:uuid:6ff2e5a3-501a-4300-a896-bed60849f708",
          "display": "Θεμιστοκλής Λιναρδάκη"
        },
        "effectiveDateTime": "2017-02-01T06:16:00Z",
        "specimen": {
          "reference": "urn:uuid:df0f2796-b264-459f-884f-0eb52b28ae1f"
        }
      }
    },
    {
      "fullUrl": "urn:uuid:a10d12b1-7557-476d-aaa7-9566a5ce34e4",
      "resource": {
        "resourceType": "Observation",
        "id": "a10d12b1-7557-476d-aaa7-9566a5ce34e4",
        "meta": {
          "profile": [
            "http://hl7.eu/fhir/laboratory/StructureDefinition/Observation-resultslab-eu-lab"
          ]
        },
        "performer": [
          {
            "display": "The Central European Lab"
          }
        ],
        "category": [
          {
            "coding": [
              {
                "system": "http://terminology.hl7.org/CodeSystem/observation-category",
                "code": "laboratory"
              }
            ]
          }
        ],
        "code": {
          "coding": [
            {
              "code": "5811-5",
              "system": "http://loinc.org",
              "display": "Specific gravity of Urine by Test strip"
            }
          ],
          "text": "Specific gravity of Urine by Test strip"
        },
        "valueQuantity": {
          "system": "http://unitsofmeasure.org",
          "value": 1,
          "unit": "{nominal}",
          "code": "{nominal}"
        },
        "referenceRange": [
          {
            "low": {
              "value": 1.005,
              "code": "g/mL",
              "system": "http://unitsofmeasure.org"
            }
          },
          {
            "high": {
              "value": 1.03,
              "code": "g/mL",
              "system": "http://unitsofmeasure.org"
            }
          }
        ],
        "interpretation": [
          {
            "coding": [
              {
                "code": "L",
                "system": "http://terminology.hl7.org/CodeSystem/v3-ObservationInterpretation",
                "display": "Low"
              }
            ]
          }
        ],
        "text": {
          "status": "generated",
          "div": "<div xmlns=\"http://www.w3.org/1999/xhtml\"><table class=\"hl7__eu__lab__report\"><tr><th>Test</th><th>01-Feb-2017</th><th>Reference&#xA0;Range</th><th>Unit</th></tr><tr><td>Specific gravity of Urine by Test strip</td><td>1.0</td><td>1.005 - 1.03</td><td>L</td><td>{nominal}</td></tr></table></div>"
        },
        "status": "final",
        "subject": {
          "reference": "urn:uuid:6ff2e5a3-501a-4300-a896-bed60849f708",
          "display": "Θεμιστοκλής Λιναρδάκη"
        },
        "effectiveDateTime": "2017-02-01T06:16:00Z",
        "specimen": {
          "reference": "urn:uuid:df0f2796-b264-459f-884f-0eb52b28ae1f"
        }
      }
    },
    {
      "fullUrl": "urn:uuid:644a1d7a-8fa6-4c97-a0b3-d31c4119d3ab",
      "resource": {
        "resourceType": "Observation",
        "id": "644a1d7a-8fa6-4c97-a0b3-d31c4119d3ab",
        "meta": {
          "profile": [
            "http://hl7.eu/fhir/laboratory/StructureDefinition/Observation-resultslab-eu-lab"
          ]
        },
        "performer": [
          {
            "display": "The Central European Lab"
          }
        ],
        "category": [
          {
            "coding": [
              {
                "system": "http://terminology.hl7.org/CodeSystem/observation-category",
                "code": "laboratory"
              }
            ]
          }
        ],
        "code": {
          "coding": [
            {
              "code": "5803-2",
              "system": "http://loinc.org",
              "display": "pH of Urine by Test strip"
            }
          ],
          "text": "pH of Urine by Test strip"
        },
        "valueQuantity": {
          "system": "http://unitsofmeasure.org",
          "value": 7,
          "unit": "pH",
          "code": "pH"
        },
        "referenceRange": [
          {
            "low": {
              "value": 4.6,
              "code": "pH",
              "system": "http://unitsofmeasure.org"
            }
          },
          {
            "high": {
              "value": 7,
              "code": "pH",
              "system": "http://unitsofmeasure.org"
            }
          }
        ],
        "text": {
          "status": "generated",
          "div": "<div xmlns=\"http://www.w3.org/1999/xhtml\"><table class=\"hl7__eu__lab__report\"><tr><th>Test</th><th>01-Feb-2017</th><th>Reference&#xA0;Range</th><th>Unit</th></tr><tr><td>pH of Urine by Test strip</td><td>7.0</td><td>4.6 - 7</td><td></td><td>pH</td></tr></table></div>"
        },
        "status": "final",
        "subject": {
          "reference": "urn:uuid:6ff2e5a3-501a-4300-a896-bed60849f708",
          "display": "Θεμιστοκλής Λιναρδάκη"
        },
        "effectiveDateTime": "2017-02-01T06:16:00Z",
        "specimen": {
          "reference": "urn:uuid:df0f2796-b264-459f-884f-0eb52b28ae1f"
        }
      }
    },
    {
      "fullUrl": "urn:uuid:a96308d3-59ce-4d2b-84b6-34e87a72216a",
      "resource": {
        "resourceType": "Observation",
        "id": "a96308d3-59ce-4d2b-84b6-34e87a72216a",
        "meta": {
          "profile": [
            "http://hl7.eu/fhir/laboratory/StructureDefinition/Observation-resultslab-eu-lab"
          ]
        },
        "performer": [
          {
            "display": "The Central European Lab"
          }
        ],
        "category": [
          {
            "coding": [
              {
                "system": "http://terminology.hl7.org/CodeSystem/observation-category",
                "code": "laboratory"
              }
            ]
          }
        ],
        "code": {
          "coding": [
            {
              "code": "5804-0",
              "system": "http://loinc.org",
              "display": "Protein [Mass/volume] in Urine by Test strip"
            }
          ],
          "text": "Protein [Mass/volume] in Urine by Test strip"
        },
        "valueQuantity": {
          "system": "http://unitsofmeasure.org",
          "value": 299.4,
          "unit": "mg/dL",
          "code": "mg/dL"
        },
        "referenceRange": [
          {
            "low": {
              "value": 0,
              "code": "mg/dL",
              "system": "http://unitsofmeasure.org"
            }
          },
          {
            "high": {
              "value": 150,
              "code": "mg/dL",
              "system": "http://unitsofmeasure.org"
            }
          }
        ],
        "interpretation": [
          {
            "coding": [
              {
                "code": "H",
                "system": "http://terminology.hl7.org/CodeSystem/v3-ObservationInterpretation",
                "display": "High"
              }
            ]
          }
        ],
        "text": {
          "status": "generated",
          "div": "<div xmlns=\"http://www.w3.org/1999/xhtml\"><table class=\"hl7__eu__lab__report\"><tr><th>Test</th><th>01-Feb-2017</th><th>Reference&#xA0;Range</th><th>Unit</th></tr><tr><td>Protein [Mass/volume] in Urine by Test strip</td><td>299.4</td><td>0 - 150</td><td>H</td><td>mg/dL</td></tr></table></div>"
        },
        "status": "final",
        "subject": {
          "reference": "urn:uuid:6ff2e5a3-501a-4300-a896-bed60849f708",
          "display": "Θεμιστοκλής Λιναρδάκη"
        },
        "effectiveDateTime": "2017-02-01T06:16:00Z",
        "specimen": {
          "reference": "urn:uuid:df0f2796-b264-459f-884f-0eb52b28ae1f"
        }
      }
    },
    {
      "fullUrl": "urn:uuid:d3df83bf-cd2a-4e32-be96-2e3f74929b66",
      "resource": {
        "resourceType": "Observation",
        "id": "d3df83bf-cd2a-4e32-be96-2e3f74929b66",
        "meta": {
          "profile": [
            "http://hl7.eu/fhir/laboratory/StructureDefinition/Observation-resultslab-eu-lab"
          ]
        },
        "performer": [
          {
            "display": "The Central European Lab"
          }
        ],
        "category": [
          {
            "coding": [
              {
                "system": "http://terminology.hl7.org/CodeSystem/observation-category",
                "code": "laboratory"
              }
            ]
          }
        ],
        "code": {
          "coding": [
            {
              "code": "20454-5",
              "system": "http://loinc.org",
              "display": "Protein [Presence] in Urine by Test strip"
            }
          ],
          "text": "Protein [Presence] in Urine by Test strip"
        },
        "text": {
          "status": "generated",
          "div": "<div xmlns=\"http://www.w3.org/1999/xhtml\"><table class=\"hl7__eu__lab__report\"><tr><th>Test</th><th>01-Feb-2017</th><th>Reference&#xA0;Range</th><th>Unit</th></tr><tr><td>Protein [Presence] in Urine by Test strip</td></tr></table></div>"
        },
        "status": "final",
        "subject": {
          "reference": "urn:uuid:6ff2e5a3-501a-4300-a896-bed60849f708",
          "display": "Θεμιστοκλής Λιναρδάκη"
        },
        "effectiveDateTime": "2017-02-01T06:16:00Z",
        "specimen": {
          "reference": "urn:uuid:df0f2796-b264-459f-884f-0eb52b28ae1f"
        }
      }
    },
    {
      "fullUrl": "urn:uuid:36d03efd-10f4-4843-8b6e-3c2b584e5d3d",
      "resource": {
        "resourceType": "Observation",
        "id": "36d03efd-10f4-4843-8b6e-3c2b584e5d3d",
        "meta": {
          "profile": [
            "http://hl7.eu/fhir/laboratory/StructureDefinition/Observation-resultslab-eu-lab"
          ]
        },
        "performer": [
          {
            "display": "The Central European Lab"
          }
        ],
        "category": [
          {
            "coding": [
              {
                "system": "http://terminology.hl7.org/CodeSystem/observation-category",
                "code": "laboratory"
              }
            ]
          }
        ],
        "code": {
          "coding": [
            {
              "code": "5802-4",
              "system": "http://loinc.org",
              "display": "Nitrite [Presence] in Urine by Test strip"
            }
          ],
          "text": "Nitrite [Presence] in Urine by Test strip"
        },
        "text": {
          "status": "generated",
          "div": "<div xmlns=\"http://www.w3.org/1999/xhtml\"><table class=\"hl7__eu__lab__report\"><tr><th>Test</th><th>01-Feb-2017</th><th>Reference&#xA0;Range</th><th>Unit</th></tr><tr><td>Nitrite [Presence] in Urine by Test strip</td></tr></table></div>"
        },
        "status": "final",
        "subject": {
          "reference": "urn:uuid:6ff2e5a3-501a-4300-a896-bed60849f708",
          "display": "Θεμιστοκλής Λιναρδάκη"
        },
        "effectiveDateTime": "2017-02-01T06:16:00Z",
        "specimen": {
          "reference": "urn:uuid:df0f2796-b264-459f-884f-0eb52b28ae1f"
        }
      }
    },
    {
      "fullUrl": "urn:uuid:772f88f0-8460-4caf-9119-da5a1130b137",
      "resource": {
        "resourceType": "Observation",
        "id": "772f88f0-8460-4caf-9119-da5a1130b137",
        "meta": {
          "profile": [
            "http://hl7.eu/fhir/laboratory/StructureDefinition/Observation-resultslab-eu-lab"
          ]
        },
        "performer": [
          {
            "display": "The Central European Lab"
          }
        ],
        "category": [
          {
            "coding": [
              {
                "system": "http://terminology.hl7.org/CodeSystem/observation-category",
                "code": "laboratory"
              }
            ]
          }
        ],
        "code": {
          "coding": [
            {
              "code": "5794-3",
              "system": "http://loinc.org",
              "display": "Hemoglobin [Presence] in Urine by Test strip"
            }
          ],
          "text": "Hemoglobin [Presence] in Urine by Test strip"
        },
        "text": {
          "status": "generated",
          "div": "<div xmlns=\"http://www.w3.org/1999/xhtml\"><table class=\"hl7__eu__lab__report\"><tr><th>Test</th><th>01-Feb-2017</th><th>Reference&#xA0;Range</th><th>Unit</th></tr><tr><td>Hemoglobin [Presence] in Urine by Test strip</td></tr></table></div>"
        },
        "status": "final",
        "subject": {
          "reference": "urn:uuid:6ff2e5a3-501a-4300-a896-bed60849f708",
          "display": "Θεμιστοκλής Λιναρδάκη"
        },
        "effectiveDateTime": "2017-02-01T06:16:00Z",
        "specimen": {
          "reference": "urn:uuid:df0f2796-b264-459f-884f-0eb52b28ae1f"
        }
      }
    },
    {
      "fullUrl": "urn:uuid:2a457762-b25c-4f3c-aaf8-b661057068e0",
      "resource": {
        "resourceType": "Observation",
        "id": "2a457762-b25c-4f3c-aaf8-b661057068e0",
        "meta": {
          "profile": [
            "http://hl7.eu/fhir/laboratory/StructureDefinition/Observation-resultslab-eu-lab"
          ]
        },
        "performer": [
          {
            "display": "The Central European Lab"
          }
        ],
        "category": [
          {
            "coding": [
              {
                "system": "http://terminology.hl7.org/CodeSystem/observation-category",
                "code": "laboratory"
              }
            ]
          }
        ],
        "code": {
          "coding": [
            {
              "code": "5799-2",
              "system": "http://loinc.org",
              "display": "Leukocyte esterase [Presence] in Urine by Test strip"
            }
          ],
          "text": "Leukocyte esterase [Presence] in Urine by Test strip"
        },
        "text": {
          "status": "generated",
          "div": "<div xmlns=\"http://www.w3.org/1999/xhtml\"><table class=\"hl7__eu__lab__report\"><tr><th>Test</th><th>01-Feb-2017</th><th>Reference&#xA0;Range</th><th>Unit</th></tr><tr><td>Leukocyte esterase [Presence] in Urine by Test strip</td></tr></table></div>"
        },
        "status": "final",
        "subject": {
          "reference": "urn:uuid:6ff2e5a3-501a-4300-a896-bed60849f708",
          "display": "Θεμιστοκλής Λιναρδάκη"
        },
        "effectiveDateTime": "2017-02-01T06:16:00Z",
        "specimen": {
          "reference": "urn:uuid:df0f2796-b264-459f-884f-0eb52b28ae1f"
        }
      }
    },
    {
      "fullUrl": "urn:uuid:30957a97-3ed5-4d31-a60c-28db383c82b1",
      "resource": {
        "resourceType": "Observation",
        "id": "30957a97-3ed5-4d31-a60c-28db383c82b1",
        "meta": {
          "profile": [
            "http://hl7.eu/fhir/laboratory/StructureDefinition/Observation-resultslab-eu-lab"
          ]
        },
        "performer": [
          {
            "display": "The Central European Lab"
          }
        ],
        "category": [
          {
            "coding": [
              {
                "system": "http://terminology.hl7.org/CodeSystem/observation-category",
                "code": "laboratory"
              }
            ]
          }
        ],
        "code": {
          "coding": [
            {
              "code": "4548-4",
              "system": "http://loinc.org",
              "display": "Hemoglobin A1c/Hemoglobin.total in Blood"
            }
          ],
          "text": "Hemoglobin A1c/Hemoglobin.total in Blood"
        },
        "valueQuantity": {
          "system": "http://unitsofmeasure.org",
          "value": 3.2,
          "unit": "%",
          "code": "%"
        },
        "referenceRange": [
          {
            "low": {
              "value": 4.3,
              "code": "%",
              "system": "http://unitsofmeasure.org"
            }
          },
          {
            "high": {
              "value": 6.4,
              "code": "%",
              "system": "http://unitsofmeasure.org"
            }
          }
        ],
        "interpretation": [
          {
            "coding": [
              {
                "code": "L",
                "system": "http://terminology.hl7.org/CodeSystem/v3-ObservationInterpretation",
                "display": "Low"
              }
            ]
          }
        ],
        "text": {
          "status": "generated",
          "div": "<div xmlns=\"http://www.w3.org/1999/xhtml\"><table class=\"hl7__eu__lab__report\"><tr><th>Test</th><th>01-Feb-2017</th><th>Reference&#xA0;Range</th><th>Unit</th></tr><tr><td>Hemoglobin A1c/Hemoglobin.total in Blood</td><td>3.2</td><td>4.3 - 6.4</td><td>L</td><td>%</td></tr></table></div>"
        },
        "status": "final",
        "subject": {
          "reference": "urn:uuid:6ff2e5a3-501a-4300-a896-bed60849f708",
          "display": "Θεμιστοκλής Λιναρδάκη"
        },
        "effectiveDateTime": "2017-02-01T06:16:00Z",
        "specimen": {
          "reference": "urn:uuid:5854c47f-12e1-489a-a371-c805ade8ddbc"
        }
      }
    },
    {
      "fullUrl": "urn:uuid:5a45e292-b9b6-4971-ac82-339e398c7bc5",
      "resource": {
        "resourceType": "Observation",
        "id": "5a45e292-b9b6-4971-ac82-339e398c7bc5",
        "meta": {
          "profile": [
            "http://hl7.eu/fhir/laboratory/StructureDefinition/Observation-resultslab-eu-lab"
          ]
        },
        "performer": [
          {
            "display": "The Central European Lab"
          }
        ],
        "category": [
          {
            "coding": [
              {
                "system": "http://terminology.hl7.org/CodeSystem/observation-category",
                "code": "laboratory"
              }
            ]
          }
        ],
        "code": {
          "coding": [
            {
              "code": "2339-0",
              "system": "http://loinc.org",
              "display": "Glucose [Mass/volume] in Blood"
            }
          ],
          "text": "Glucose [Mass/volume] in Blood"
        },
        "valueQuantity": {
          "system": "http://unitsofmeasure.org",
          "value": 65.2,
          "unit": "mg/dL",
          "code": "mg/dL"
        },
        "referenceRange": [
          {
            "low": {
              "value": 70,
              "code": "mg/dL",
              "system": "http://unitsofmeasure.org"
            }
          },
          {
            "high": {
              "value": 140,
              "code": "mg/dL",
              "system": "http://unitsofmeasure.org"
            }
          }
        ],
        "interpretation": [
          {
            "coding": [
              {
                "code": "L",
                "system": "http://terminology.hl7.org/CodeSystem/v3-ObservationInterpretation",
                "display": "Low"
              }
            ]
          }
        ],
        "text": {
          "status": "generated",
          "div": "<div xmlns=\"http://www.w3.org/1999/xhtml\"><table class=\"hl7__eu__lab__report\"><tr><th>Test</th><th>01-Feb-2017</th><th>Reference&#xA0;Range</th><th>Unit</th></tr><tr><td>Glucose [Mass/volume] in Blood</td><td>65.2</td><td>70 - 140</td><td>L</td><td>mg/dL</td></tr></table></div>"
        },
        "status": "final",
        "subject": {
          "reference": "urn:uuid:6ff2e5a3-501a-4300-a896-bed60849f708",
          "display": "Θεμιστοκλής Λιναρδάκη"
        },
        "effectiveDateTime": "2017-02-01T06:16:00Z",
        "specimen": {
          "reference": "urn:uuid:5854c47f-12e1-489a-a371-c805ade8ddbc"
        }
      }
    },
    {
      "fullUrl": "urn:uuid:26ee61bd-c8ac-449c-b9de-1b1d337bbda0",
      "resource": {
        "resourceType": "Observation",
        "id": "26ee61bd-c8ac-449c-b9de-1b1d337bbda0",
        "meta": {
          "profile": [
            "http://hl7.eu/fhir/laboratory/StructureDefinition/Observation-resultslab-eu-lab"
          ]
        },
        "performer": [
          {
            "display": "The Central European Lab"
          }
        ],
        "category": [
          {
            "coding": [
              {
                "system": "http://terminology.hl7.org/CodeSystem/observation-category",
                "code": "laboratory"
              }
            ]
          }
        ],
        "code": {
          "coding": [
            {
              "code": "6299-2",
              "system": "http://loinc.org",
              "display": "Urea nitrogen [Mass/volume] in Blood"
            }
          ],
          "text": "Urea nitrogen [Mass/volume] in Blood"
        },
        "valueQuantity": {
          "system": "http://unitsofmeasure.org",
          "value": 11.1,
          "unit": "mg/dL",
          "code": "mg/dL"
        },
        "referenceRange": [
          {
            "low": {
              "value": 7,
              "code": "mg/dL",
              "system": "http://unitsofmeasure.org"
            }
          },
          {
            "high": {
              "value": 20,
              "code": "mg/dL",
              "system": "http://unitsofmeasure.org"
            }
          }
        ],
        "text": {
          "status": "generated",
          "div": "<div xmlns=\"http://www.w3.org/1999/xhtml\"><table class=\"hl7__eu__lab__report\"><tr><th>Test</th><th>01-Feb-2017</th><th>Reference&#xA0;Range</th><th>Unit</th></tr><tr><td>Urea nitrogen [Mass/volume] in Blood</td><td>11.1</td><td>7 - 20</td><td></td><td>mg/dL</td></tr></table></div>"
        },
        "status": "final",
        "subject": {
          "reference": "urn:uuid:6ff2e5a3-501a-4300-a896-bed60849f708",
          "display": "Θεμιστοκλής Λιναρδάκη"
        },
        "effectiveDateTime": "2017-02-01T06:16:00Z",
        "specimen": {
          "reference": "urn:uuid:5854c47f-12e1-489a-a371-c805ade8ddbc"
        }
      }
    },
    {
      "fullUrl": "urn:uuid:acd8c671-18aa-4a36-b82a-d87b8180b65a",
      "resource": {
        "resourceType": "Observation",
        "id": "acd8c671-18aa-4a36-b82a-d87b8180b65a",
        "meta": {
          "profile": [
            "http://hl7.eu/fhir/laboratory/StructureDefinition/Observation-resultslab-eu-lab"
          ]
        },
        "performer": [
          {
            "display": "The Central European Lab"
          }
        ],
        "category": [
          {
            "coding": [
              {
                "system": "http://terminology.hl7.org/CodeSystem/observation-category",
                "code": "laboratory"
              }
            ]
          }
        ],
        "code": {
          "coding": [
            {
              "code": "38483-4",
              "system": "http://loinc.org",
              "display": "Creatinine [Mass/volume] in Blood"
            }
          ],
          "text": "Creatinine [Mass/volume] in Blood"
        },
        "valueQuantity": {
          "system": "http://unitsofmeasure.org",
          "value": 7.1,
          "unit": "mg/dL",
          "code": "mg/dL"
        },
        "referenceRange": [
          {
            "low": {
              "value": 0.6,
              "code": "mg/dL",
              "system": "http://unitsofmeasure.org"
            }
          },
          {
            "high": {
              "value": 1.3,
              "code": "mg/dL",
              "system": "http://unitsofmeasure.org"
            }
          }
        ],
        "interpretation": [
          {
            "coding": [
              {
                "code": "H",
                "system": "http://terminology.hl7.org/CodeSystem/v3-ObservationInterpretation",
                "display": "High"
              }
            ]
          }
        ],
        "text": {
          "status": "generated",
          "div": "<div xmlns=\"http://www.w3.org/1999/xhtml\"><table class=\"hl7__eu__lab__report\"><tr><th>Test</th><th>01-Feb-2017</th><th>Reference&#xA0;Range</th><th>Unit</th></tr><tr><td>Creatinine [Mass/volume] in Blood</td><td>7.1</td><td>0.6 - 1.3</td><td>H</td><td>mg/dL</td></tr></table></div>"
        },
        "status": "final",
        "subject": {
          "reference": "urn:uuid:6ff2e5a3-501a-4300-a896-bed60849f708",
          "display": "Θεμιστοκλής Λιναρδάκη"
        },
        "effectiveDateTime": "2017-02-01T06:16:00Z",
        "specimen": {
          "reference": "urn:uuid:5854c47f-12e1-489a-a371-c805ade8ddbc"
        }
      }
    },
    {
      "fullUrl": "urn:uuid:0188c012-16f7-40e9-9c1e-3d882fb4bb5a",
      "resource": {
        "resourceType": "Observation",
        "id": "0188c012-16f7-40e9-9c1e-3d882fb4bb5a",
        "meta": {
          "profile": [
            "http://hl7.eu/fhir/laboratory/StructureDefinition/Observation-resultslab-eu-lab"
          ]
        },
        "performer": [
          {
            "display": "The Central European Lab"
          }
        ],
        "category": [
          {
            "coding": [
              {
                "system": "http://terminology.hl7.org/CodeSystem/observation-category",
                "code": "laboratory"
              }
            ]
          }
        ],
        "code": {
          "coding": [
            {
              "code": "49765-1",
              "system": "http://loinc.org",
              "display": "Calcium [Mass/volume] in Blood"
            }
          ],
          "text": "Calcium [Mass/volume] in Blood"
        },
        "valueQuantity": {
          "system": "http://unitsofmeasure.org",
          "value": 9.5,
          "unit": "mg/dL",
          "code": "mg/dL"
        },
        "referenceRange": [
          {
            "low": {
              "value": 8.5,
              "code": "mg/dL",
              "system": "http://unitsofmeasure.org"
            }
          },
          {
            "high": {
              "value": 10.5,
              "code": "mg/dL",
              "system": "http://unitsofmeasure.org"
            }
          }
        ],
        "text": {
          "status": "generated",
          "div": "<div xmlns=\"http://www.w3.org/1999/xhtml\"><table class=\"hl7__eu__lab__report\"><tr><th>Test</th><th>01-Feb-2017</th><th>Reference&#xA0;Range</th><th>Unit</th></tr><tr><td>Calcium [Mass/volume] in Blood</td><td>9.5</td><td>8.5 - 10.5</td><td></td><td>mg/dL</td></tr></table></div>"
        },
        "status": "final",
        "subject": {
          "reference": "urn:uuid:6ff2e5a3-501a-4300-a896-bed60849f708",
          "display": "Θεμιστοκλής Λιναρδάκη"
        },
        "effectiveDateTime": "2017-02-01T06:16:00Z",
        "specimen": {
          "reference": "urn:uuid:5854c47f-12e1-489a-a371-c805ade8ddbc"
        }
      }
    },
    {
      "fullUrl": "urn:uuid:3594f373-3165-4d0b-93e2-9352caea6d4a",
      "resource": {
        "resourceType": "Observation",
        "id": "3594f373-3165-4d0b-93e2-9352caea6d4a",
        "meta": {
          "profile": [
            "http://hl7.eu/fhir/laboratory/StructureDefinition/Observation-resultslab-eu-lab"
          ]
        },
        "performer": [
          {
            "display": "The Central European Lab"
          }
        ],
        "category": [
          {
            "coding": [
              {
                "system": "http://terminology.hl7.org/CodeSystem/observation-category",
                "code": "laboratory"
              }
            ]
          }
        ],
        "code": {
          "coding": [
            {
              "code": "2947-0",
              "system": "http://loinc.org",
              "display": "Sodium [Moles/volume] in Blood"
            }
          ],
          "text": "Sodium [Moles/volume] in Blood"
        },
        "valueQuantity": {
          "system": "http://unitsofmeasure.org",
          "value": 142.1,
          "unit": "mmol/L",
          "code": "mmol/L"
        },
        "referenceRange": [
          {
            "low": {
              "value": 135,
              "code": "mmol/L",
              "system": "http://unitsofmeasure.org"
            }
          },
          {
            "high": {
              "value": 145,
              "code": "mmol/L",
              "system": "http://unitsofmeasure.org"
            }
          }
        ],
        "text": {
          "status": "generated",
          "div": "<div xmlns=\"http://www.w3.org/1999/xhtml\"><table class=\"hl7__eu__lab__report\"><tr><th>Test</th><th>01-Feb-2017</th><th>Reference&#xA0;Range</th><th>Unit</th></tr><tr><td>Sodium [Moles/volume] in Blood</td><td>142.1</td><td>135 - 145</td><td></td><td>mmol/L</td></tr></table></div>"
        },
        "status": "final",
        "subject": {
          "reference": "urn:uuid:6ff2e5a3-501a-4300-a896-bed60849f708",
          "display": "Θεμιστοκλής Λιναρδάκη"
        },
        "effectiveDateTime": "2017-02-01T06:16:00Z",
        "specimen": {
          "reference": "urn:uuid:5854c47f-12e1-489a-a371-c805ade8ddbc"
        }
      }
    },
    {
      "fullUrl": "urn:uuid:e0b2bd08-1934-4626-b37d-559d66b0abd8",
      "resource": {
        "resourceType": "Observation",
        "id": "e0b2bd08-1934-4626-b37d-559d66b0abd8",
        "meta": {
          "profile": [
            "http://hl7.eu/fhir/laboratory/StructureDefinition/Observation-resultslab-eu-lab"
          ]
        },
        "performer": [
          {
            "display": "The Central European Lab"
          }
        ],
        "category": [
          {
            "coding": [
              {
                "system": "http://terminology.hl7.org/CodeSystem/observation-category",
                "code": "laboratory"
              }
            ]
          }
        ],
        "code": {
          "coding": [
            {
              "code": "6298-4",
              "system": "http://loinc.org",
              "display": "Potassium [Moles/volume] in Blood"
            }
          ],
          "text": "Potassium [Moles/volume] in Blood"
        },
        "valueQuantity": {
          "system": "http://unitsofmeasure.org",
          "value": 4.7,
          "unit": "mmol/L",
          "code": "mmol/L"
        },
        "referenceRange": [
          {
            "low": {
              "value": 3.5,
              "code": "mmol/L",
              "system": "http://unitsofmeasure.org"
            }
          },
          {
            "high": {
              "value": 5.3,
              "code": "mmol/L",
              "system": "http://unitsofmeasure.org"
            }
          }
        ],
        "text": {
          "status": "generated",
          "div": "<div xmlns=\"http://www.w3.org/1999/xhtml\"><table class=\"hl7__eu__lab__report\"><tr><th>Test</th><th>01-Feb-2017</th><th>Reference&#xA0;Range</th><th>Unit</th></tr><tr><td>Potassium [Moles/volume] in Blood</td><td>4.7</td><td>3.5 - 5.3</td><td></td><td>mmol/L</td></tr></table></div>"
        },
        "status": "final",
        "subject": {
          "reference": "urn:uuid:6ff2e5a3-501a-4300-a896-bed60849f708",
          "display": "Θεμιστοκλής Λιναρδάκη"
        },
        "effectiveDateTime": "2017-02-01T06:16:00Z",
        "specimen": {
          "reference": "urn:uuid:5854c47f-12e1-489a-a371-c805ade8ddbc"
        }
      }
    },
    {
      "fullUrl": "urn:uuid:ea55d3c4-6b43-4704-b689-3459c0188db9",
      "resource": {
        "resourceType": "Observation",
        "id": "ea55d3c4-6b43-4704-b689-3459c0188db9",
        "meta": {
          "profile": [
            "http://hl7.eu/fhir/laboratory/StructureDefinition/Observation-resultslab-eu-lab"
          ]
        },
        "performer": [
          {
            "display": "The Central European Lab"
          }
        ],
        "category": [
          {
            "coding": [
              {
                "system": "http://terminology.hl7.org/CodeSystem/observation-category",
                "code": "laboratory"
              }
            ]
          }
        ],
        "code": {
          "coding": [
            {
              "code": "2069-3",
              "system": "http://loinc.org",
              "display": "Chloride [Moles/volume] in Blood"
            }
          ],
          "text": "Chloride [Moles/volume] in Blood"
        },
        "valueQuantity": {
          "system": "http://unitsofmeasure.org",
          "value": 106.5,
          "unit": "mmol/L",
          "code": "mmol/L"
        },
        "referenceRange": [
          {
            "low": {
              "value": 98,
              "code": "mmol/L",
              "system": "http://unitsofmeasure.org"
            }
          },
          {
            "high": {
              "value": 110,
              "code": "mmol/L",
              "system": "http://unitsofmeasure.org"
            }
          }
        ],
        "text": {
          "status": "generated",
          "div": "<div xmlns=\"http://www.w3.org/1999/xhtml\"><table class=\"hl7__eu__lab__report\"><tr><th>Test</th><th>01-Feb-2017</th><th>Reference&#xA0;Range</th><th>Unit</th></tr><tr><td>Chloride [Moles/volume] in Blood</td><td>106.5</td><td>98 - 110</td><td></td><td>mmol/L</td></tr></table></div>"
        },
        "status": "final",
        "subject": {
          "reference": "urn:uuid:6ff2e5a3-501a-4300-a896-bed60849f708",
          "display": "Θεμιστοκλής Λιναρδάκη"
        },
        "effectiveDateTime": "2017-02-01T06:16:00Z",
        "specimen": {
          "reference": "urn:uuid:5854c47f-12e1-489a-a371-c805ade8ddbc"
        }
      }
    },
    {
      "fullUrl": "urn:uuid:4822ff67-a341-421d-9af6-bbeeb49de896",
      "resource": {
        "resourceType": "Observation",
        "id": "4822ff67-a341-421d-9af6-bbeeb49de896",
        "meta": {
          "profile": [
            "http://hl7.eu/fhir/laboratory/StructureDefinition/Observation-resultslab-eu-lab"
          ]
        },
        "performer": [
          {
            "display": "The Central European Lab"
          }
        ],
        "category": [
          {
            "coding": [
              {
                "system": "http://terminology.hl7.org/CodeSystem/observation-category",
                "code": "laboratory"
              }
            ]
          }
        ],
        "code": {
          "coding": [
            {
              "code": "20565-8",
              "system": "http://loinc.org",
              "display": "Carbon dioxide, total [Moles/volume] in Blood"
            }
          ],
          "text": "Carbon dioxide, total [Moles/volume] in Blood"
        },
        "valueQuantity": {
          "system": "http://unitsofmeasure.org",
          "value": 22.4,
          "unit": "mmol/L",
          "code": "mmol/L"
        },
        "referenceRange": [
          {
            "low": {
              "value": 22,
              "code": "mmol/L",
              "system": "http://unitsofmeasure.org"
            }
          },
          {
            "high": {
              "value": 29,
              "code": "mmol/L",
              "system": "http://unitsofmeasure.org"
            }
          }
        ],
        "text": {
          "status": "generated",
          "div": "<div xmlns=\"http://www.w3.org/1999/xhtml\"><table class=\"hl7__eu__lab__report\"><tr><th>Test</th><th>01-Feb-2017</th><th>Reference&#xA0;Range</th><th>Unit</th></tr><tr><td>Carbon dioxide, total [Moles/volume] in Blood</td><td>22.4</td><td>22 - 29</td><td></td><td>mmol/L</td></tr></table></div>"
        },
        "status": "final",
        "subject": {
          "reference": "urn:uuid:6ff2e5a3-501a-4300-a896-bed60849f708",
          "display": "Θεμιστοκλής Λιναρδάκη"
        },
        "effectiveDateTime": "2017-02-01T06:16:00Z",
        "specimen": {
          "reference": "urn:uuid:5854c47f-12e1-489a-a371-c805ade8ddbc"
        }
      }
    },
    {
      "fullUrl": "urn:uuid:5e46e690-bfc9-4872-bd4d-f435c49a9062",
      "resource": {
        "resourceType": "Device",
        "id": "5e46e690-bfc9-4872-bd4d-f435c49a9062",
        "deviceName": [
          {
            "name": "SYNDERAI Synthetic Generator",
            "type": "manufacturer-name"
          }
        ],
        "version": [
          {
            "value": "5.0"
          }
        ],
        "text": {
          "status": "generated",
          "div": "<div xmlns=\"http://www.w3.org/1999/xhtml\">SYNDERAI Synthetic Generator v5.0</div>"
        },
        "status": "active\"",
        "distinctIdentifier": "synderai-generator-50",
        "manufacturer": "SYNDERAI Project"
      }
    },
    {
      "fullUrl": "urn:uuid:51ed6f5d-f97d-4e89-8fdc-cb19592bc5b6",
      "resource": {
        "resourceType": "Provenance",
        "id": "51ed6f5d-f97d-4e89-8fdc-cb19592bc5b6",
        "target": [
          {
            "reference": "Patient/6ff2e5a3-501a-4300-a896-bed60849f708"
          },
          {
            "reference": "Bundle/776b8aea-e8a4-4fb6-b912-48c57d6e6a44"
          },
          {
            "reference": "Composition/cbf14684-92d8-4b78-8a88-8097ed0e3e40"
          },
          {
            "reference": "PractitionerRole/947b5ef8-6bff-4a25-ad5e-d1a5832ca184"
          },
          {
            "reference": "Practitioner/829da137-abc6-4678-9d90-6375621e00e1"
          },
          {
            "reference": "PractitionerRole/5e4e85d6-3f29-4d90-9c96-aa5a2ef784b9"
          },
          {
            "reference": "Organization/b1398122-d957-4f16-be0e-8df922842c7d"
          }
        ],
        "activity": {
          "text": "Synthetic Example Data Generation"
        },
        "policy": [
          "https://synderai.net/synderai-synthetic-data-policy"
        ],
        "agent": [
          {
            "type": {
              "text": "author"
            },
            "who": {
              "reference": "Device/5e46e690-bfc9-4872-bd4d-f435c49a9062"
            }
          }
        ],
        "reason": [
          {
            "text": "Interoperability Testing and Training (non-clinical use)"
          }
        ],
        "text": {
          "status": "generated",
          "div": "<div xmlns=\"http://www.w3.org/1999/xhtml\">Provenance for SYNDERAI Synthetic Example Data Resource</div>"
        },
        "recorded": "2017-02-01T07:16:00Z"
      }
    },
    {
      "fullUrl": "urn:uuid:947b5ef8-6bff-4a25-ad5e-d1a5832ca184",
      "resource": {
        "resourceType": "PractitionerRole",
        "id": "947b5ef8-6bff-4a25-ad5e-d1a5832ca184",
        "meta": {
          "profile": [
            "http://hl7.eu/fhir/base/StructureDefinition/practitionerRole-eu"
          ]
        },
        "text": {
          "status": "generated",
          "div": "<div xmlns=\"http://www.w3.org/1999/xhtml\">Laboratory Role Id: 947b5ef8-6bff-4a25-ad5e-d1a5832ca184</div>"
        },
        "practitioner": {
          "reference": "urn:uuid:829da137-abc6-4678-9d90-6375621e00e1"
        }
      }
    },
    {
      "fullUrl": "urn:uuid:829da137-abc6-4678-9d90-6375621e00e1",
      "resource": {
        "resourceType": "Practitioner",
        "id": "829da137-abc6-4678-9d90-6375621e00e1",
        "meta": {
          "profile": [
            "http://hl7.eu/fhir/base/StructureDefinition/practitioner-eu"
          ]
        },
        "identifier": [
          {
            "assigner": {
              "display": "HL7 Europe"
            },
            "system": "urn:oid:2.16.840.1.113883.2.51.999",
            "value": "fb11feb6-2416-4e81-8c0a-14bce5a416f2"
          }
        ],
        "name": [
          {
            "prefix": [
              "dr"
            ],
            "given": [
              "Ex"
            ],
            "family": "Ample"
          }
        ],
        "address": [
          {
            "line": [
              "Laboratoire Central Européenne",
              "Boulevard du Jardin Botanique 32"
            ],
            "postalCode": "1000",
            "city": "Brussels",
            "country": "Belgium"
          }
        ],
        "text": {
          "status": "generated",
          "div": "<div xmlns=\"http://www.w3.org/1999/xhtml\">Laboratory: Laboratoire Central Européenne, 1000 Brussels, Belgium</div>"
        }
      }
    }
  ],
  "type": "document",
  "timestamp": "2017-02-01T07:16:00Z"
}
