{
  "resourceType": "Bundle",
  "id": "9df1daba-c354-4f3f-ba26-9df6942f1f88",
  "meta": {
    "profile": [
      "http://hl7.eu/fhir/laboratory/StructureDefinition/Bundle-eu-lab"
    ]
  },
  "identifier": {
    "assigner": {
      "display": "HL7 Europe"
    },
    "system": "urn:oid:2.16.840.1.113883.2.51.999",
    "value": "4d0797b6-bc2c-41e7-aab8-953a7b122343"
  },
  "entry": [
    {
      "fullUrl": "urn:uuid:5359fe40-5fbf-4faf-a37b-39e061222576",
      "resource": {
        "resourceType": "Composition",
        "id": "5359fe40-5fbf-4faf-a37b-39e061222576",
        "meta": {
          "profile": [
            "http://hl7.eu/fhir/laboratory/StructureDefinition/Composition-eu-lab"
          ]
        },
        "identifier": {
          "assigner": {
            "display": "HL7 Europe"
          },
          "system": "urn:oid:2.16.840.1.113883.2.51.999",
          "value": "e76ef78d-5917-42f6-a9ea-636c23e12e65"
        },
        "author": [
          {
            "reference": "urn:uuid:cfe8b703-db36-4e78-be2f-6ed99668764e"
          }
        ],
        "category": [
          {
            "coding": [
              {
                "code": "26436-6",
                "system": "http://loinc.org",
                "display": "Laboratory studies (set)"
              }
            ]
          }
        ],
        "type": {
          "coding": [
            {
              "code": "11502-2",
              "system": "http://loinc.org",
              "display": "Laboratory report"
            }
          ],
          "text": "Laboratory Report"
        },
        "section": [
          {
            "code": {
              "coding": [
                {
                  "code": "26436-6",
                  "system": "http://loinc.org",
                  "display": "Laboratory studies (set)"
                }
              ],
              "text": "Laboratory studies"
            },
            "section": [
              {
                "code": {
                  "coding": [
                    {
                      "code": "$18719-5",
                      "system": "http://loinc.org",
                      "display": "Chemistry studies (set)"
                    }
                  ],
                  "text": "Chemistry"
                },
                "entry": [
                  {
                    "reference": "urn:uuid:dc9ffed8-aa31-4bae-b051-21ea144f96ce"
                  },
                  {
                    "reference": "urn:uuid:487a3eba-ae48-4116-926d-0b222ab4e867"
                  },
                  {
                    "reference": "urn:uuid:d7a45725-f468-434f-be54-ea0ec9a708c5"
                  },
                  {
                    "reference": "urn:uuid:9792b5fe-a10c-4683-90ab-0f808d52ef1e"
                  },
                  {
                    "reference": "urn:uuid:45f8d994-3128-4ba5-8ce8-2d7e556014bd"
                  },
                  {
                    "reference": "urn:uuid:a16c8be4-cf3e-407b-bd59-0f76556c3a1a"
                  },
                  {
                    "reference": "urn:uuid:4b788a15-6ac1-4acb-b0e8-19cb93ca0cdd"
                  },
                  {
                    "reference": "urn:uuid:afa9054c-08af-4910-a575-99c625826796"
                  },
                  {
                    "reference": "urn:uuid:f1615bb5-8ff1-4f9b-bc29-2b6f60204d79"
                  }
                ],
                "text": {
                  "status": "generated",
                  "div": "<div xmlns=\"http://www.w3.org/1999/xhtml\"><h3>Chemistry</h3><table class=\"hl7__eu__lab__report\"><thead><tr><th>Test</th><th>28-MAR-2021</th><th>Reference&#xA0;Range</th><th>Unit</th></tr></thead><tbody><tr><td>Hemoglobin A1c/Hemoglobin.total in Blood</td><td><strong>6.2 H</strong></td><td>4 - 6</td><td>%</td></tr><tr><td>Glucose [Mass/volume] in Blood</td><td>76.2</td><td>70 - 99</td><td>mg/dL</td></tr><tr><td>Urea nitrogen [Mass/volume] in Blood</td><td>11.8</td><td>7 - 20</td><td>mg/dL</td></tr><tr><td>Creatinine [Mass/volume] in Blood</td><td><strong>1.4 H</strong></td><td>0.6 - 1.3</td><td>mg/dL</td></tr><tr><td>Calcium [Mass/volume] in Blood</td><td>10.1</td><td>8.5 - 10.5</td><td>mg/dL</td></tr><tr><td>Sodium [Moles/volume] in Blood</td><td>142.0</td><td>135 - 145</td><td>mmol/L</td></tr><tr><td>Potassium [Moles/volume] in Blood</td><td>4.6</td><td>3.5 - 5.2</td><td>mmol/L</td></tr><tr><td>Chloride [Moles/volume] in Blood</td><td>106.0</td><td>98 - 114</td><td>mmol/L</td></tr><tr><td>Carbon dioxide, total [Moles/volume] in Blood</td><td>24.1</td><td>24 - 29</td><td>mmol/L</td></tr></tbody></table></div>"
                },
                "title": "Chemistry"
              }
            ],
            "title": "Laboratory Report"
          },
          {
            "text": {
              "status": "generated",
              "div": "<div xmlns=\"http://www.w3.org/1999/xhtml\"><h3>Annotation</h3><table class=\"hl7__eu__lab__report\"><tr><th>Conclusion and Recommendations based on this report and previous findings known to us</th></tr><tr><td>The patient shows mildly elevated HbA1c, suggesting impaired glucose metabolism or early diabetes, despite normal fasting glucose. Creatinine is slightly elevated, which may indicate reduced kidney function and warrants further assessment. All other parameters are within normal limits. Recommend follow-up for glycemic control and renal function.</td></tr></table></div>"
            },
            "code": {
              "coding": [
                {
                  "system": "http://loinc.org",
                  "code": "48767-8",
                  "display": "Annotation comment"
                }
              ]
            },
            "title": "Annotation comment"
          }
        ],
        "status": "final",
        "subject": {
          "reference": "urn:uuid:ec7c468b-ca8c-419c-b9b0-001e634fe28a",
          "display": "Benedetto Lombroso"
        },
        "date": "2021-03-28T09:22:02Z",
        "title": "Laboratory Report",
        "confidentiality": "N"
      }
    },
    {
      "fullUrl": "urn:uuid:0f373c2e-556d-465c-b9a4-19f76ab4670e",
      "resource": {
        "resourceType": "DiagnosticReport",
        "id": "0f373c2e-556d-465c-b9a4-19f76ab4670e",
        "meta": {
          "profile": [
            "http://hl7.eu/fhir/laboratory/StructureDefinition/DiagnosticReport-eu-lab"
          ]
        },
        "identifier": [
          {
            "assigner": {
              "display": "HL7 Europe"
            },
            "system": "urn:oid:2.16.840.1.113883.2.51.999",
            "value": "378b8385-894d-4e01-90d0-eff3b8cf4658"
          }
        ],
        "extension": [
          {
            "url": "http://hl7.org/fhir/5.0/StructureDefinition/extension-DiagnosticReport.composition",
            "valueReference": {
              "reference": "urn:uuid:e76ef78d-5917-42f6-a9ea-636c23e12e65"
            }
          }
        ],
        "category": [
          {
            "coding": [
              {
                "code": "26436-6",
                "system": "http://loinc.org",
                "display": "Laboratory studies (set)"
              }
            ]
          }
        ],
        "specimen": [
          {
            "reference": "urn:uuid:c95c08b9-7e7f-4c73-9458-81e2af2ae930"
          }
        ],
        "result": [
          {
            "reference": "urn:uuid:dc9ffed8-aa31-4bae-b051-21ea144f96ce"
          },
          {
            "reference": "urn:uuid:487a3eba-ae48-4116-926d-0b222ab4e867"
          },
          {
            "reference": "urn:uuid:d7a45725-f468-434f-be54-ea0ec9a708c5"
          },
          {
            "reference": "urn:uuid:9792b5fe-a10c-4683-90ab-0f808d52ef1e"
          },
          {
            "reference": "urn:uuid:45f8d994-3128-4ba5-8ce8-2d7e556014bd"
          },
          {
            "reference": "urn:uuid:a16c8be4-cf3e-407b-bd59-0f76556c3a1a"
          },
          {
            "reference": "urn:uuid:4b788a15-6ac1-4acb-b0e8-19cb93ca0cdd"
          },
          {
            "reference": "urn:uuid:afa9054c-08af-4910-a575-99c625826796"
          },
          {
            "reference": "urn:uuid:f1615bb5-8ff1-4f9b-bc29-2b6f60204d79"
          }
        ],
        "status": "registered",
        "code": {
          "coding": [
            {
              "code": "11502-2",
              "system": "http://loinc.org",
              "display": "Laboratory report"
            }
          ]
        },
        "subject": {
          "reference": "urn:uuid:ec7c468b-ca8c-419c-b9b0-001e634fe28a",
          "display": "Benedetto Lombroso"
        }
      }
    },
    {
      "fullUrl": "urn:uuid:ec7c468b-ca8c-419c-b9b0-001e634fe28a",
      "resource": {
        "resourceType": "Patient",
        "id": "ec7c468b-ca8c-419c-b9b0-001e634fe28a",
        "meta": {
          "security": [
            {
              "system": "http://terminology.hl7.org/CodeSystem/v3-ActReason",
              "code": "HTEST"
            },
            {
              "system": "http://terminology.hl7.org/CodeSystem/v3-ActReason",
              "code": "TRAIN"
            }
          ],
          "tag": [
            {
              "system": "https://synderai.net/fhir/CodeSystem/tags",
              "code": "synthetic",
              "display": "SYNDERAI Synthetic data"
            }
          ],
          "profile": [
            "http://hl7.eu/fhir/base/StructureDefinition/patient-eu-core"
          ]
        },
        "identifier": [
          {
            "type": {
              "coding": [
                {
                  "code": "PT",
                  "system": "http://terminology.hl7.org/CodeSystem/v2-0203"
                }
              ]
            },
            "system": "http://ec.europa.eu/identifier/eci",
            "value": "9244-804304-9"
          },
          {
            "type": {
              "coding": [
                {
                  "code": "MR",
                  "system": "http://terminology.hl7.org/CodeSystem/v2-0203"
                }
              ]
            },
            "system": "http://local.setting.eu/identifier",
            "value": "320c36e6-403e-bb27-4756-8ebdd21bc0e5"
          }
        ],
        "name": [
          {
            "family": "Lombroso"
          },
          {
            "given": [
              "Benedetto"
            ]
          },
          {
            "text": "Benedetto Lombroso"
          }
        ],
        "address": [
          {
            "line": [
              "Stretto Zaccagnini, 924"
            ],
            "use": "home",
            "type": "physical",
            "postalCode": "37121",
            "city": "Verona",
            "country": "Italy"
          }
        ],
        "telecom": [
          {
            "system": "phone",
            "value": "+39 016691228"
          }
        ],
        "extension": [
          {
            "url": "http://hl7.org/fhir/StructureDefinition/patient-nationality",
            "valueCodeableConcept": {
              "coding": [
                {
                  "code": "IT",
                  "system": "http://hl7.org/fhir/ValueSet/country"
                }
              ]
            }
          }
        ],
        "text": {
          "status": "generated",
          "div": "<div xmlns=\"http://www.w3.org/1999/xhtml\"><table class=\"hl7__ips\"><tr><td>Benedetto Lombroso</td><td>male</td><td>07-May-1989</td></tr></table></div>"
        },
        "gender": "male",
        "birthDate": "1989-05-07"
      }
    },
    {
      "fullUrl": "urn:uuid:e65ea59e-2990-46d6-bba0-46f8364ea00a",
      "resource": {
        "resourceType": "ServiceRequest",
        "id": "e65ea59e-2990-46d6-bba0-46f8364ea00a",
        "meta": {
          "profile": [
            "http://hl7.eu/fhir/laboratory/StructureDefinition/ServiceRequest-eu-lab"
          ]
        },
        "identifier": [
          {
            "system": "http://example.org",
            "value": "70a69251-96e2-478c-a08e-21aa0138e4be"
          }
        ],
        "specimen": [
          {
            "reference": "urn:uuid:c95c08b9-7e7f-4c73-9458-81e2af2ae930"
          }
        ],
        "reasonCode": [
          {
            "coding": [
              {
                "code": "15777000",
                "system": "http://snomed.info/sct",
                "display": "Prediabetes"
              }
            ]
          },
          {
            "coding": [
              {
                "code": "271737000",
                "system": "http://snomed.info/sct",
                "display": "Anemia"
              }
            ]
          }
        ],
        "status": "active",
        "intent": "order",
        "code": {
          "coding": [
            {
              "code": "108252007",
              "system": "http://snomed.info/sct",
              "display": "Laboratory procedure"
            }
          ]
        },
        "subject": {
          "reference": "urn:uuid:ec7c468b-ca8c-419c-b9b0-001e634fe28a",
          "display": "Benedetto Lombroso"
        },
        "requester": {
          "reference": "urn:uuid:f11c6370-a30d-46de-85f9-9a4ed3c83de7"
        }
      }
    },
    {
      "fullUrl": "urn:uuid:f11c6370-a30d-46de-85f9-9a4ed3c83de7",
      "resource": {
        "resourceType": "PractitionerRole",
        "id": "f11c6370-a30d-46de-85f9-9a4ed3c83de7",
        "meta": {
          "profile": [
            "http://hl7.eu/fhir/base/StructureDefinition/practitionerRole-eu"
          ]
        },
        "text": {
          "status": "generated",
          "div": "<div xmlns=\"http://www.w3.org/1999/xhtml\">Provider Role Id: f11c6370-a30d-46de-85f9-9a4ed3c83de7</div>"
        },
        "organization": {
          "reference": "urn:uuid:dccd4ad7-2414-486b-a025-dbb9b24b5d98"
        }
      }
    },
    {
      "fullUrl": "urn:uuid:dccd4ad7-2414-486b-a025-dbb9b24b5d98",
      "resource": {
        "resourceType": "Organization",
        "id": "dccd4ad7-2414-486b-a025-dbb9b24b5d98",
        "meta": {
          "profile": [
            "http://hl7.eu/fhir/base/StructureDefinition/organization-eu"
          ]
        },
        "identifier": [
          {
            "assigner": {
              "display": "HL7 Europe"
            },
            "system": "urn:oid:2.16.840.1.113883.2.51.999",
            "value": "77bb1e6e-f01c-49b2-8d92-849776883866"
          }
        ],
        "address": [
          {
            "line": [
              "Piazzale Aristide Stefani 1"
            ],
            "city": "Verona",
            "postalCode": "37124",
            "country": "Italy"
          }
        ],
        "text": {
          "status": "generated",
          "div": "<div xmlns=\"http://www.w3.org/1999/xhtml\">Provider Organization: Ospedale Civile Maggiore</div>"
        },
        "name": "Ospedale Civile Maggiore"
      }
    },
    {
      "fullUrl": "urn:uuid:c95c08b9-7e7f-4c73-9458-81e2af2ae930",
      "resource": {
        "resourceType": "Specimen",
        "id": "c95c08b9-7e7f-4c73-9458-81e2af2ae930",
        "meta": {
          "profile": [
            "http://hl7.eu/fhir/laboratory/StructureDefinition/Specimen-eu-lab"
          ]
        },
        "collection": {
          "collectedDateTime": "2021-03-28"
        },
        "text": {
          "status": "generated",
          "div": "<div xmlns=\"http://www.w3.org/1999/xhtml\"><table class=\"hl7__eu__lab__report\"><tr><th>Specimen</th><th>Collection Date</th></tr><tr><td>Whole blood specimen (specimen)</td><td><span class=\"nb\">28-Mar-2021</span></td></tr></table></div>"
        },
        "type": {
          "coding": [
            {
              "code": "258580003",
              "system": "http://snomed.info/sct",
              "display": "Whole blood specimen (specimen)"
            }
          ]
        }
      }
    },
    {
      "fullUrl": "urn:uuid:dc9ffed8-aa31-4bae-b051-21ea144f96ce",
      "resource": {
        "resourceType": "Observation",
        "id": "dc9ffed8-aa31-4bae-b051-21ea144f96ce",
        "meta": {
          "profile": [
            "http://hl7.eu/fhir/laboratory/StructureDefinition/Observation-resultslab-eu-lab"
          ]
        },
        "performer": [
          {
            "display": "The Central European Lab"
          }
        ],
        "category": [
          {
            "coding": [
              {
                "system": "http://terminology.hl7.org/CodeSystem/observation-category",
                "code": "laboratory"
              }
            ]
          }
        ],
        "code": {
          "coding": [
            {
              "code": "4548-4",
              "system": "http://loinc.org",
              "display": "Hemoglobin A1c/Hemoglobin.total in Blood"
            }
          ],
          "text": "Hemoglobin A1c/Hemoglobin.total in Blood"
        },
        "valueQuantity": {
          "system": "http://unitsofmeasure.org",
          "value": 6.2,
          "unit": "%",
          "code": "%"
        },
        "referenceRange": [
          {
            "low": {
              "value": 4,
              "code": "%",
              "system": "http://unitsofmeasure.org"
            }
          },
          {
            "high": {
              "value": 6,
              "code": "%",
              "system": "http://unitsofmeasure.org"
            }
          }
        ],
        "interpretation": [
          {
            "coding": [
              {
                "code": "H",
                "system": "http://terminology.hl7.org/CodeSystem/v3-ObservationInterpretation",
                "display": "High"
              }
            ]
          }
        ],
        "text": {
          "status": "generated",
          "div": "<div xmlns=\"http://www.w3.org/1999/xhtml\"><table class=\"hl7__eu__lab__report\"><tr><th>Test</th><th>28-Mar-2021</th><th>Reference&#xA0;Range</th><th>Unit</th></tr><tr><td>Hemoglobin A1c/Hemoglobin.total in Blood</td><td>6.2</td><td>4 - 6</td><td>H</td><td>%</td></tr></table></div>"
        },
        "status": "final",
        "subject": {
          "reference": "urn:uuid:ec7c468b-ca8c-419c-b9b0-001e634fe28a",
          "display": "Benedetto Lombroso"
        },
        "effectiveDateTime": "2021-03-28T07:22:02Z",
        "specimen": {
          "reference": "urn:uuid:c95c08b9-7e7f-4c73-9458-81e2af2ae930"
        }
      }
    },
    {
      "fullUrl": "urn:uuid:487a3eba-ae48-4116-926d-0b222ab4e867",
      "resource": {
        "resourceType": "Observation",
        "id": "487a3eba-ae48-4116-926d-0b222ab4e867",
        "meta": {
          "profile": [
            "http://hl7.eu/fhir/laboratory/StructureDefinition/Observation-resultslab-eu-lab"
          ]
        },
        "performer": [
          {
            "display": "The Central European Lab"
          }
        ],
        "category": [
          {
            "coding": [
              {
                "system": "http://terminology.hl7.org/CodeSystem/observation-category",
                "code": "laboratory"
              }
            ]
          }
        ],
        "code": {
          "coding": [
            {
              "code": "2339-0",
              "system": "http://loinc.org",
              "display": "Glucose [Mass/volume] in Blood"
            }
          ],
          "text": "Glucose [Mass/volume] in Blood"
        },
        "valueQuantity": {
          "system": "http://unitsofmeasure.org",
          "value": 76.2,
          "unit": "mg/dL",
          "code": "mg/dL"
        },
        "referenceRange": [
          {
            "low": {
              "value": 70,
              "code": "mg/dL",
              "system": "http://unitsofmeasure.org"
            }
          },
          {
            "high": {
              "value": 99,
              "code": "mg/dL",
              "system": "http://unitsofmeasure.org"
            }
          }
        ],
        "text": {
          "status": "generated",
          "div": "<div xmlns=\"http://www.w3.org/1999/xhtml\"><table class=\"hl7__eu__lab__report\"><tr><th>Test</th><th>28-Mar-2021</th><th>Reference&#xA0;Range</th><th>Unit</th></tr><tr><td>Glucose [Mass/volume] in Blood</td><td>76.2</td><td>70 - 99</td><td></td><td>mg/dL</td></tr></table></div>"
        },
        "status": "final",
        "subject": {
          "reference": "urn:uuid:ec7c468b-ca8c-419c-b9b0-001e634fe28a",
          "display": "Benedetto Lombroso"
        },
        "effectiveDateTime": "2021-03-28T07:22:02Z",
        "specimen": {
          "reference": "urn:uuid:c95c08b9-7e7f-4c73-9458-81e2af2ae930"
        }
      }
    },
    {
      "fullUrl": "urn:uuid:d7a45725-f468-434f-be54-ea0ec9a708c5",
      "resource": {
        "resourceType": "Observation",
        "id": "d7a45725-f468-434f-be54-ea0ec9a708c5",
        "meta": {
          "profile": [
            "http://hl7.eu/fhir/laboratory/StructureDefinition/Observation-resultslab-eu-lab"
          ]
        },
        "performer": [
          {
            "display": "The Central European Lab"
          }
        ],
        "category": [
          {
            "coding": [
              {
                "system": "http://terminology.hl7.org/CodeSystem/observation-category",
                "code": "laboratory"
              }
            ]
          }
        ],
        "code": {
          "coding": [
            {
              "code": "6299-2",
              "system": "http://loinc.org",
              "display": "Urea nitrogen [Mass/volume] in Blood"
            }
          ],
          "text": "Urea nitrogen [Mass/volume] in Blood"
        },
        "valueQuantity": {
          "system": "http://unitsofmeasure.org",
          "value": 11.8,
          "unit": "mg/dL",
          "code": "mg/dL"
        },
        "referenceRange": [
          {
            "low": {
              "value": 7,
              "code": "mg/dL",
              "system": "http://unitsofmeasure.org"
            }
          },
          {
            "high": {
              "value": 20,
              "code": "mg/dL",
              "system": "http://unitsofmeasure.org"
            }
          }
        ],
        "text": {
          "status": "generated",
          "div": "<div xmlns=\"http://www.w3.org/1999/xhtml\"><table class=\"hl7__eu__lab__report\"><tr><th>Test</th><th>28-Mar-2021</th><th>Reference&#xA0;Range</th><th>Unit</th></tr><tr><td>Urea nitrogen [Mass/volume] in Blood</td><td>11.8</td><td>7 - 20</td><td></td><td>mg/dL</td></tr></table></div>"
        },
        "status": "final",
        "subject": {
          "reference": "urn:uuid:ec7c468b-ca8c-419c-b9b0-001e634fe28a",
          "display": "Benedetto Lombroso"
        },
        "effectiveDateTime": "2021-03-28T07:22:02Z",
        "specimen": {
          "reference": "urn:uuid:c95c08b9-7e7f-4c73-9458-81e2af2ae930"
        }
      }
    },
    {
      "fullUrl": "urn:uuid:9792b5fe-a10c-4683-90ab-0f808d52ef1e",
      "resource": {
        "resourceType": "Observation",
        "id": "9792b5fe-a10c-4683-90ab-0f808d52ef1e",
        "meta": {
          "profile": [
            "http://hl7.eu/fhir/laboratory/StructureDefinition/Observation-resultslab-eu-lab"
          ]
        },
        "performer": [
          {
            "display": "The Central European Lab"
          }
        ],
        "category": [
          {
            "coding": [
              {
                "system": "http://terminology.hl7.org/CodeSystem/observation-category",
                "code": "laboratory"
              }
            ]
          }
        ],
        "code": {
          "coding": [
            {
              "code": "38483-4",
              "system": "http://loinc.org",
              "display": "Creatinine [Mass/volume] in Blood"
            }
          ],
          "text": "Creatinine [Mass/volume] in Blood"
        },
        "valueQuantity": {
          "system": "http://unitsofmeasure.org",
          "value": 1.4,
          "unit": "mg/dL",
          "code": "mg/dL"
        },
        "referenceRange": [
          {
            "low": {
              "value": 0.6,
              "code": "mg/dL",
              "system": "http://unitsofmeasure.org"
            }
          },
          {
            "high": {
              "value": 1.3,
              "code": "mg/dL",
              "system": "http://unitsofmeasure.org"
            }
          }
        ],
        "interpretation": [
          {
            "coding": [
              {
                "code": "H",
                "system": "http://terminology.hl7.org/CodeSystem/v3-ObservationInterpretation",
                "display": "High"
              }
            ]
          }
        ],
        "text": {
          "status": "generated",
          "div": "<div xmlns=\"http://www.w3.org/1999/xhtml\"><table class=\"hl7__eu__lab__report\"><tr><th>Test</th><th>28-Mar-2021</th><th>Reference&#xA0;Range</th><th>Unit</th></tr><tr><td>Creatinine [Mass/volume] in Blood</td><td>1.4</td><td>0.6 - 1.3</td><td>H</td><td>mg/dL</td></tr></table></div>"
        },
        "status": "final",
        "subject": {
          "reference": "urn:uuid:ec7c468b-ca8c-419c-b9b0-001e634fe28a",
          "display": "Benedetto Lombroso"
        },
        "effectiveDateTime": "2021-03-28T07:22:02Z",
        "specimen": {
          "reference": "urn:uuid:c95c08b9-7e7f-4c73-9458-81e2af2ae930"
        }
      }
    },
    {
      "fullUrl": "urn:uuid:45f8d994-3128-4ba5-8ce8-2d7e556014bd",
      "resource": {
        "resourceType": "Observation",
        "id": "45f8d994-3128-4ba5-8ce8-2d7e556014bd",
        "meta": {
          "profile": [
            "http://hl7.eu/fhir/laboratory/StructureDefinition/Observation-resultslab-eu-lab"
          ]
        },
        "performer": [
          {
            "display": "The Central European Lab"
          }
        ],
        "category": [
          {
            "coding": [
              {
                "system": "http://terminology.hl7.org/CodeSystem/observation-category",
                "code": "laboratory"
              }
            ]
          }
        ],
        "code": {
          "coding": [
            {
              "code": "49765-1",
              "system": "http://loinc.org",
              "display": "Calcium [Mass/volume] in Blood"
            }
          ],
          "text": "Calcium [Mass/volume] in Blood"
        },
        "valueQuantity": {
          "system": "http://unitsofmeasure.org",
          "value": 10.1,
          "unit": "mg/dL",
          "code": "mg/dL"
        },
        "referenceRange": [
          {
            "low": {
              "value": 8.5,
              "code": "mg/dL",
              "system": "http://unitsofmeasure.org"
            }
          },
          {
            "high": {
              "value": 10.5,
              "code": "mg/dL",
              "system": "http://unitsofmeasure.org"
            }
          }
        ],
        "text": {
          "status": "generated",
          "div": "<div xmlns=\"http://www.w3.org/1999/xhtml\"><table class=\"hl7__eu__lab__report\"><tr><th>Test</th><th>28-Mar-2021</th><th>Reference&#xA0;Range</th><th>Unit</th></tr><tr><td>Calcium [Mass/volume] in Blood</td><td>10.1</td><td>8.5 - 10.5</td><td></td><td>mg/dL</td></tr></table></div>"
        },
        "status": "final",
        "subject": {
          "reference": "urn:uuid:ec7c468b-ca8c-419c-b9b0-001e634fe28a",
          "display": "Benedetto Lombroso"
        },
        "effectiveDateTime": "2021-03-28T07:22:02Z",
        "specimen": {
          "reference": "urn:uuid:c95c08b9-7e7f-4c73-9458-81e2af2ae930"
        }
      }
    },
    {
      "fullUrl": "urn:uuid:a16c8be4-cf3e-407b-bd59-0f76556c3a1a",
      "resource": {
        "resourceType": "Observation",
        "id": "a16c8be4-cf3e-407b-bd59-0f76556c3a1a",
        "meta": {
          "profile": [
            "http://hl7.eu/fhir/laboratory/StructureDefinition/Observation-resultslab-eu-lab"
          ]
        },
        "performer": [
          {
            "display": "The Central European Lab"
          }
        ],
        "category": [
          {
            "coding": [
              {
                "system": "http://terminology.hl7.org/CodeSystem/observation-category",
                "code": "laboratory"
              }
            ]
          }
        ],
        "code": {
          "coding": [
            {
              "code": "2947-0",
              "system": "http://loinc.org",
              "display": "Sodium [Moles/volume] in Blood"
            }
          ],
          "text": "Sodium [Moles/volume] in Blood"
        },
        "valueQuantity": {
          "system": "http://unitsofmeasure.org",
          "value": 142,
          "unit": "mmol/L",
          "code": "mmol/L"
        },
        "referenceRange": [
          {
            "low": {
              "value": 135,
              "code": "mmol/L",
              "system": "http://unitsofmeasure.org"
            }
          },
          {
            "high": {
              "value": 145,
              "code": "mmol/L",
              "system": "http://unitsofmeasure.org"
            }
          }
        ],
        "text": {
          "status": "generated",
          "div": "<div xmlns=\"http://www.w3.org/1999/xhtml\"><table class=\"hl7__eu__lab__report\"><tr><th>Test</th><th>28-Mar-2021</th><th>Reference&#xA0;Range</th><th>Unit</th></tr><tr><td>Sodium [Moles/volume] in Blood</td><td>142.0</td><td>135 - 145</td><td></td><td>mmol/L</td></tr></table></div>"
        },
        "status": "final",
        "subject": {
          "reference": "urn:uuid:ec7c468b-ca8c-419c-b9b0-001e634fe28a",
          "display": "Benedetto Lombroso"
        },
        "effectiveDateTime": "2021-03-28T07:22:02Z",
        "specimen": {
          "reference": "urn:uuid:c95c08b9-7e7f-4c73-9458-81e2af2ae930"
        }
      }
    },
    {
      "fullUrl": "urn:uuid:4b788a15-6ac1-4acb-b0e8-19cb93ca0cdd",
      "resource": {
        "resourceType": "Observation",
        "id": "4b788a15-6ac1-4acb-b0e8-19cb93ca0cdd",
        "meta": {
          "profile": [
            "http://hl7.eu/fhir/laboratory/StructureDefinition/Observation-resultslab-eu-lab"
          ]
        },
        "performer": [
          {
            "display": "The Central European Lab"
          }
        ],
        "category": [
          {
            "coding": [
              {
                "system": "http://terminology.hl7.org/CodeSystem/observation-category",
                "code": "laboratory"
              }
            ]
          }
        ],
        "code": {
          "coding": [
            {
              "code": "6298-4",
              "system": "http://loinc.org",
              "display": "Potassium [Moles/volume] in Blood"
            }
          ],
          "text": "Potassium [Moles/volume] in Blood"
        },
        "valueQuantity": {
          "system": "http://unitsofmeasure.org",
          "value": 4.6,
          "unit": "mmol/L",
          "code": "mmol/L"
        },
        "referenceRange": [
          {
            "low": {
              "value": 3.5,
              "code": "mmol/L",
              "system": "http://unitsofmeasure.org"
            }
          },
          {
            "high": {
              "value": 5.2,
              "code": "mmol/L",
              "system": "http://unitsofmeasure.org"
            }
          }
        ],
        "text": {
          "status": "generated",
          "div": "<div xmlns=\"http://www.w3.org/1999/xhtml\"><table class=\"hl7__eu__lab__report\"><tr><th>Test</th><th>28-Mar-2021</th><th>Reference&#xA0;Range</th><th>Unit</th></tr><tr><td>Potassium [Moles/volume] in Blood</td><td>4.6</td><td>3.5 - 5.2</td><td></td><td>mmol/L</td></tr></table></div>"
        },
        "status": "final",
        "subject": {
          "reference": "urn:uuid:ec7c468b-ca8c-419c-b9b0-001e634fe28a",
          "display": "Benedetto Lombroso"
        },
        "effectiveDateTime": "2021-03-28T07:22:02Z",
        "specimen": {
          "reference": "urn:uuid:c95c08b9-7e7f-4c73-9458-81e2af2ae930"
        }
      }
    },
    {
      "fullUrl": "urn:uuid:afa9054c-08af-4910-a575-99c625826796",
      "resource": {
        "resourceType": "Observation",
        "id": "afa9054c-08af-4910-a575-99c625826796",
        "meta": {
          "profile": [
            "http://hl7.eu/fhir/laboratory/StructureDefinition/Observation-resultslab-eu-lab"
          ]
        },
        "performer": [
          {
            "display": "The Central European Lab"
          }
        ],
        "category": [
          {
            "coding": [
              {
                "system": "http://terminology.hl7.org/CodeSystem/observation-category",
                "code": "laboratory"
              }
            ]
          }
        ],
        "code": {
          "coding": [
            {
              "code": "2069-3",
              "system": "http://loinc.org",
              "display": "Chloride [Moles/volume] in Blood"
            }
          ],
          "text": "Chloride [Moles/volume] in Blood"
        },
        "valueQuantity": {
          "system": "http://unitsofmeasure.org",
          "value": 106,
          "unit": "mmol/L",
          "code": "mmol/L"
        },
        "referenceRange": [
          {
            "low": {
              "value": 98,
              "code": "mmol/L",
              "system": "http://unitsofmeasure.org"
            }
          },
          {
            "high": {
              "value": 114,
              "code": "mmol/L",
              "system": "http://unitsofmeasure.org"
            }
          }
        ],
        "text": {
          "status": "generated",
          "div": "<div xmlns=\"http://www.w3.org/1999/xhtml\"><table class=\"hl7__eu__lab__report\"><tr><th>Test</th><th>28-Mar-2021</th><th>Reference&#xA0;Range</th><th>Unit</th></tr><tr><td>Chloride [Moles/volume] in Blood</td><td>106.0</td><td>98 - 114</td><td></td><td>mmol/L</td></tr></table></div>"
        },
        "status": "final",
        "subject": {
          "reference": "urn:uuid:ec7c468b-ca8c-419c-b9b0-001e634fe28a",
          "display": "Benedetto Lombroso"
        },
        "effectiveDateTime": "2021-03-28T07:22:02Z",
        "specimen": {
          "reference": "urn:uuid:c95c08b9-7e7f-4c73-9458-81e2af2ae930"
        }
      }
    },
    {
      "fullUrl": "urn:uuid:f1615bb5-8ff1-4f9b-bc29-2b6f60204d79",
      "resource": {
        "resourceType": "Observation",
        "id": "f1615bb5-8ff1-4f9b-bc29-2b6f60204d79",
        "meta": {
          "profile": [
            "http://hl7.eu/fhir/laboratory/StructureDefinition/Observation-resultslab-eu-lab"
          ]
        },
        "performer": [
          {
            "display": "The Central European Lab"
          }
        ],
        "category": [
          {
            "coding": [
              {
                "system": "http://terminology.hl7.org/CodeSystem/observation-category",
                "code": "laboratory"
              }
            ]
          }
        ],
        "code": {
          "coding": [
            {
              "code": "20565-8",
              "system": "http://loinc.org",
              "display": "Carbon dioxide, total [Moles/volume] in Blood"
            }
          ],
          "text": "Carbon dioxide, total [Moles/volume] in Blood"
        },
        "valueQuantity": {
          "system": "http://unitsofmeasure.org",
          "value": 24.1,
          "unit": "mmol/L",
          "code": "mmol/L"
        },
        "referenceRange": [
          {
            "low": {
              "value": 24,
              "code": "mmol/L",
              "system": "http://unitsofmeasure.org"
            }
          },
          {
            "high": {
              "value": 29,
              "code": "mmol/L",
              "system": "http://unitsofmeasure.org"
            }
          }
        ],
        "text": {
          "status": "generated",
          "div": "<div xmlns=\"http://www.w3.org/1999/xhtml\"><table class=\"hl7__eu__lab__report\"><tr><th>Test</th><th>28-Mar-2021</th><th>Reference&#xA0;Range</th><th>Unit</th></tr><tr><td>Carbon dioxide, total [Moles/volume] in Blood</td><td>24.1</td><td>24 - 29</td><td></td><td>mmol/L</td></tr></table></div>"
        },
        "status": "final",
        "subject": {
          "reference": "urn:uuid:ec7c468b-ca8c-419c-b9b0-001e634fe28a",
          "display": "Benedetto Lombroso"
        },
        "effectiveDateTime": "2021-03-28T07:22:02Z",
        "specimen": {
          "reference": "urn:uuid:c95c08b9-7e7f-4c73-9458-81e2af2ae930"
        }
      }
    },
    {
      "fullUrl": "urn:uuid:949e4fc7-8c37-4836-b0f3-c6706de947b4",
      "resource": {
        "resourceType": "Device",
        "id": "949e4fc7-8c37-4836-b0f3-c6706de947b4",
        "deviceName": [
          {
            "name": "SYNDERAI Synthetic Generator",
            "type": "manufacturer-name"
          }
        ],
        "version": [
          {
            "value": "5.0"
          }
        ],
        "text": {
          "status": "generated",
          "div": "<div xmlns=\"http://www.w3.org/1999/xhtml\">SYNDERAI Synthetic Generator v5.0</div>"
        },
        "status": "active\"",
        "distinctIdentifier": "synderai-generator-50",
        "manufacturer": "SYNDERAI Project"
      }
    },
    {
      "fullUrl": "urn:uuid:4cab0efa-0e2e-42c6-ba7c-e1e4d05b6eca",
      "resource": {
        "resourceType": "Provenance",
        "id": "4cab0efa-0e2e-42c6-ba7c-e1e4d05b6eca",
        "target": [
          {
            "reference": "Patient/ec7c468b-ca8c-419c-b9b0-001e634fe28a"
          },
          {
            "reference": "Bundle/9df1daba-c354-4f3f-ba26-9df6942f1f88"
          },
          {
            "reference": "Composition/5359fe40-5fbf-4faf-a37b-39e061222576"
          },
          {
            "reference": "PractitionerRole/cfe8b703-db36-4e78-be2f-6ed99668764e"
          },
          {
            "reference": "Practitioner/93e2f486-0fda-4d06-8cd7-56b8b4bea078"
          },
          {
            "reference": "PractitionerRole/f11c6370-a30d-46de-85f9-9a4ed3c83de7"
          },
          {
            "reference": "Organization/dccd4ad7-2414-486b-a025-dbb9b24b5d98"
          }
        ],
        "activity": {
          "text": "Synthetic Example Data Generation"
        },
        "policy": [
          "https://synderai.net/synderai-synthetic-data-policy"
        ],
        "agent": [
          {
            "type": {
              "text": "author"
            },
            "who": {
              "reference": "Device/949e4fc7-8c37-4836-b0f3-c6706de947b4"
            }
          }
        ],
        "reason": [
          {
            "text": "Interoperability Testing and Training (non-clinical use)"
          }
        ],
        "text": {
          "status": "generated",
          "div": "<div xmlns=\"http://www.w3.org/1999/xhtml\">Provenance for SYNDERAI Synthetic Example Data Resource</div>"
        },
        "recorded": "2021-03-28T09:22:02Z"
      }
    },
    {
      "fullUrl": "urn:uuid:cfe8b703-db36-4e78-be2f-6ed99668764e",
      "resource": {
        "resourceType": "PractitionerRole",
        "id": "cfe8b703-db36-4e78-be2f-6ed99668764e",
        "meta": {
          "profile": [
            "http://hl7.eu/fhir/base/StructureDefinition/practitionerRole-eu"
          ]
        },
        "text": {
          "status": "generated",
          "div": "<div xmlns=\"http://www.w3.org/1999/xhtml\">Laboratory Role Id: cfe8b703-db36-4e78-be2f-6ed99668764e</div>"
        },
        "practitioner": {
          "reference": "urn:uuid:93e2f486-0fda-4d06-8cd7-56b8b4bea078"
        }
      }
    },
    {
      "fullUrl": "urn:uuid:93e2f486-0fda-4d06-8cd7-56b8b4bea078",
      "resource": {
        "resourceType": "Practitioner",
        "id": "93e2f486-0fda-4d06-8cd7-56b8b4bea078",
        "meta": {
          "profile": [
            "http://hl7.eu/fhir/base/StructureDefinition/practitioner-eu"
          ]
        },
        "identifier": [
          {
            "assigner": {
              "display": "HL7 Europe"
            },
            "system": "urn:oid:2.16.840.1.113883.2.51.999",
            "value": "464a97c0-64e3-4683-a0a1-314fd7835cd2"
          }
        ],
        "name": [
          {
            "prefix": [
              "dr"
            ],
            "given": [
              "Ex"
            ],
            "family": "Ample"
          }
        ],
        "address": [
          {
            "line": [
              "Laboratoire Central Européenne",
              "Boulevard du Jardin Botanique 32"
            ],
            "postalCode": "1000",
            "city": "Brussels",
            "country": "Belgium"
          }
        ],
        "text": {
          "status": "generated",
          "div": "<div xmlns=\"http://www.w3.org/1999/xhtml\">Laboratory: Laboratoire Central Européenne, 1000 Brussels, Belgium</div>"
        }
      }
    }
  ],
  "type": "document",
  "timestamp": "2021-03-28T09:22:02Z"
}
