{
  "resourceType": "Bundle",
  "id": "70521cb7-8a1c-4865-a6fa-6c4c476f6ccc",
  "meta": {
    "profile": [
      "http://hl7.eu/fhir/laboratory/StructureDefinition/Bundle-eu-lab"
    ]
  },
  "identifier": {
    "assigner": {
      "display": "HL7 Europe"
    },
    "system": "urn:oid:2.16.840.1.113883.2.51.999",
    "value": "177703c3-53a7-4d7d-aad3-a55d1b4a0bef"
  },
  "entry": [
    {
      "fullUrl": "urn:uuid:35ca6b3f-e742-4293-afed-5777b595918d",
      "resource": {
        "resourceType": "Composition",
        "id": "35ca6b3f-e742-4293-afed-5777b595918d",
        "meta": {
          "profile": [
            "http://hl7.eu/fhir/laboratory/StructureDefinition/Composition-eu-lab"
          ]
        },
        "identifier": {
          "assigner": {
            "display": "HL7 Europe"
          },
          "system": "urn:oid:2.16.840.1.113883.2.51.999",
          "value": "fffc1471-ece4-4560-ab6f-6f81026dd16a"
        },
        "author": [
          {
            "reference": "urn:uuid:5fdcf8ed-d0e4-4cc8-9d29-6b009bdd7bb5"
          }
        ],
        "category": [
          {
            "coding": [
              {
                "code": "26436-6",
                "system": "http://loinc.org",
                "display": "Laboratory studies (set)"
              }
            ]
          }
        ],
        "type": {
          "coding": [
            {
              "code": "11502-2",
              "system": "http://loinc.org",
              "display": "Laboratory report"
            }
          ],
          "text": "Laboratory Report"
        },
        "section": [
          {
            "code": {
              "coding": [
                {
                  "code": "26436-6",
                  "system": "http://loinc.org",
                  "display": "Laboratory studies (set)"
                }
              ],
              "text": "Laboratory studies"
            },
            "section": [
              {
                "code": {
                  "coding": [
                    {
                      "code": "$18723-7",
                      "system": "http://loinc.org",
                      "display": "Hematology studies (set)"
                    }
                  ],
                  "text": "Hematology"
                },
                "entry": [
                  {
                    "reference": "urn:uuid:e2992ae1-3e98-42cc-8a3a-045cffc77d78"
                  },
                  {
                    "reference": "urn:uuid:e0ff1df4-52ff-43fa-869f-f228c8cbf5f9"
                  },
                  {
                    "reference": "urn:uuid:1b1d89d8-3140-4e5f-a433-ed8eab6e2a75"
                  },
                  {
                    "reference": "urn:uuid:6d610974-3ba2-4220-9d59-5582fba162e9"
                  },
                  {
                    "reference": "urn:uuid:04b82a8a-8b48-454d-b21f-930cb5d7e776"
                  },
                  {
                    "reference": "urn:uuid:0cb99364-13fc-4914-b8ab-425fefc0bf72"
                  },
                  {
                    "reference": "urn:uuid:c429448a-4f99-4f0a-a8e8-b1932b6d5108"
                  },
                  {
                    "reference": "urn:uuid:1c1a06c9-dea5-403a-b794-436d7db0e739"
                  },
                  {
                    "reference": "urn:uuid:3dcf3e9e-0ef0-43f6-9424-fee4a9a38dd1"
                  },
                  {
                    "reference": "urn:uuid:c687ac0d-829a-4d27-9229-9138af8ddab1"
                  },
                  {
                    "reference": "urn:uuid:16526b3a-eadb-42e7-9856-d7ae06024b65"
                  }
                ],
                "text": {
                  "status": "generated",
                  "div": "<div xmlns=\"http://www.w3.org/1999/xhtml\"><h3>Hematology</h3><table class=\"hl7__eu__lab__report\"><thead><tr><th>Test</th><th>06-NOV-2016</th><th>Reference&#xA0;Range</th><th>Unit</th></tr></thead><tbody><tr><td>Leukocytes [#/volume] in Blood by Automated count</td><td>4.5</td><td>4.5 - 10.5</td><td>10*3/uL</td></tr><tr><td>Erythrocytes [#/volume] in Blood by Automated count</td><td>4.9</td><td>4.5 - 6.2</td><td>10*6/uL</td></tr><tr><td>Hemoglobin [Mass/volume] in Blood</td><td>15.8</td><td>13.5 - 17.5</td><td>g/dL</td></tr><tr><td>Hematocrit [Volume Fraction] of Blood by Automated count</td><td><strong>35.8 L</strong></td><td>38 - 50</td><td>%</td></tr><tr><td>MCV [Entitic volume] by Automated count</td><td>86.0</td><td>76 - 98</td><td>fL</td></tr><tr><td>MCH [Entitic mass] by Automated count</td><td>33.0</td><td>27 - 34.5</td><td>pg</td></tr><tr><td>MCHC [Mass/volume] by Automated count</td><td>35.7</td><td>31 - 37</td><td>g/dL</td></tr><tr><td>Erythrocyte distribution width [Entitic volume] by Automated count</td><td>40.3</td><td>36 - 55</td><td>fL</td></tr><tr><td>Platelets [#/volume] in Blood by Automated count</td><td>310.8</td><td>150 - 350</td><td>10*3/uL</td></tr><tr><td>Platelet distribution width [Entitic volume] in Blood by Automated count</td><td><strong>363.2 H</strong></td><td>13.4 - 17.4</td><td>fL</td></tr><tr><td>Platelet mean volume [Entitic volume] in Blood by Automated count</td><td>11.4</td><td>9.4 - 12</td><td>fL</td></tr></tbody></table></div>"
                },
                "title": "Hematology"
              }
            ],
            "title": "Laboratory Report"
          },
          {
            "text": {
              "status": "generated",
              "div": "<div xmlns=\"http://www.w3.org/1999/xhtml\"><h3>Annotation</h3><table class=\"hl7__eu__lab__report\"><tr><th>Conclusion and Recommendations based on this report and previous findings known to us</th></tr><tr><td>All parameters are within normal limits except for a mildly decreased hematocrit and a markedly elevated platelet distribution width (PDW). The low hematocrit with normal RBC indices and hemoglobin may suggest mild dilution or early anemia. The high PDW may indicate increased platelet size variability, possibly due to platelet activation or recent production. Clinical correlation is recommended.</td></tr></table></div>"
            },
            "code": {
              "coding": [
                {
                  "system": "http://loinc.org",
                  "code": "48767-8",
                  "display": "Annotation comment"
                }
              ]
            },
            "title": "Annotation comment"
          }
        ],
        "status": "final",
        "subject": {
          "reference": "urn:uuid:10d16392-05a9-4c13-8fae-a47ebc5c28e3",
          "display": "Amadeo Andreozzi"
        },
        "date": "2016-11-06T19:42:51Z",
        "title": "Laboratory Report",
        "confidentiality": "N"
      }
    },
    {
      "fullUrl": "urn:uuid:7d3c2265-fdd9-457f-8c56-e9a69b62b218",
      "resource": {
        "resourceType": "DiagnosticReport",
        "id": "7d3c2265-fdd9-457f-8c56-e9a69b62b218",
        "meta": {
          "profile": [
            "http://hl7.eu/fhir/laboratory/StructureDefinition/DiagnosticReport-eu-lab"
          ]
        },
        "identifier": [
          {
            "assigner": {
              "display": "HL7 Europe"
            },
            "system": "urn:oid:2.16.840.1.113883.2.51.999",
            "value": "df4e79e3-7f62-4044-a608-cb7629382f33"
          }
        ],
        "extension": [
          {
            "url": "http://hl7.org/fhir/5.0/StructureDefinition/extension-DiagnosticReport.composition",
            "valueReference": {
              "reference": "urn:uuid:fffc1471-ece4-4560-ab6f-6f81026dd16a"
            }
          }
        ],
        "category": [
          {
            "coding": [
              {
                "code": "26436-6",
                "system": "http://loinc.org",
                "display": "Laboratory studies (set)"
              }
            ]
          }
        ],
        "specimen": [
          {
            "reference": "urn:uuid:eb35b3a2-bd9c-4c15-a999-bdb9ff5f1531"
          },
          {
            "reference": "urn:uuid:eb35b3a2-bd9c-4c15-a999-bdb9ff5f1531"
          }
        ],
        "result": [
          {
            "reference": "urn:uuid:e2992ae1-3e98-42cc-8a3a-045cffc77d78"
          },
          {
            "reference": "urn:uuid:e0ff1df4-52ff-43fa-869f-f228c8cbf5f9"
          },
          {
            "reference": "urn:uuid:1b1d89d8-3140-4e5f-a433-ed8eab6e2a75"
          },
          {
            "reference": "urn:uuid:6d610974-3ba2-4220-9d59-5582fba162e9"
          },
          {
            "reference": "urn:uuid:04b82a8a-8b48-454d-b21f-930cb5d7e776"
          },
          {
            "reference": "urn:uuid:0cb99364-13fc-4914-b8ab-425fefc0bf72"
          },
          {
            "reference": "urn:uuid:c429448a-4f99-4f0a-a8e8-b1932b6d5108"
          },
          {
            "reference": "urn:uuid:1c1a06c9-dea5-403a-b794-436d7db0e739"
          },
          {
            "reference": "urn:uuid:3dcf3e9e-0ef0-43f6-9424-fee4a9a38dd1"
          },
          {
            "reference": "urn:uuid:c687ac0d-829a-4d27-9229-9138af8ddab1"
          },
          {
            "reference": "urn:uuid:16526b3a-eadb-42e7-9856-d7ae06024b65"
          }
        ],
        "status": "registered",
        "code": {
          "coding": [
            {
              "code": "11502-2",
              "system": "http://loinc.org",
              "display": "Laboratory report"
            }
          ]
        },
        "subject": {
          "reference": "urn:uuid:10d16392-05a9-4c13-8fae-a47ebc5c28e3",
          "display": "Amadeo Andreozzi"
        }
      }
    },
    {
      "fullUrl": "urn:uuid:10d16392-05a9-4c13-8fae-a47ebc5c28e3",
      "resource": {
        "resourceType": "Patient",
        "id": "10d16392-05a9-4c13-8fae-a47ebc5c28e3",
        "meta": {
          "security": [
            {
              "system": "http://terminology.hl7.org/CodeSystem/v3-ActReason",
              "code": "HTEST"
            },
            {
              "system": "http://terminology.hl7.org/CodeSystem/v3-ActReason",
              "code": "TRAIN"
            }
          ],
          "tag": [
            {
              "system": "https://synderai.net/fhir/CodeSystem/tags",
              "code": "synthetic",
              "display": "SYNDERAI Synthetic data"
            }
          ],
          "profile": [
            "http://hl7.eu/fhir/base/StructureDefinition/patient-eu-core"
          ]
        },
        "identifier": [
          {
            "type": {
              "coding": [
                {
                  "code": "PT",
                  "system": "http://terminology.hl7.org/CodeSystem/v2-0203"
                }
              ]
            },
            "system": "http://ec.europa.eu/identifier/eci",
            "value": "9798-276056-9"
          },
          {
            "type": {
              "coding": [
                {
                  "code": "MR",
                  "system": "http://terminology.hl7.org/CodeSystem/v2-0203"
                }
              ]
            },
            "system": "http://local.setting.eu/identifier",
            "value": "67df392d-f7bc-1bdd-7268-bc75454231cd"
          }
        ],
        "name": [
          {
            "family": "Andreozzi"
          },
          {
            "given": [
              "Amadeo"
            ]
          },
          {
            "text": "Amadeo Andreozzi"
          }
        ],
        "address": [
          {
            "line": [
              "Canale Riccardo, 887 Appartamento 1"
            ],
            "use": "home",
            "type": "physical",
            "postalCode": "23887",
            "city": "Valle San Nicolao",
            "country": "Italy"
          }
        ],
        "telecom": [
          {
            "system": "phone",
            "value": "+39 08231278688"
          }
        ],
        "extension": [
          {
            "url": "http://hl7.org/fhir/StructureDefinition/patient-nationality",
            "valueCodeableConcept": {
              "coding": [
                {
                  "code": "IT",
                  "system": "http://hl7.org/fhir/ValueSet/country"
                }
              ]
            }
          }
        ],
        "text": {
          "status": "generated",
          "div": "<div xmlns=\"http://www.w3.org/1999/xhtml\"><table class=\"hl7__ips\"><tr><td>Amadeo Andreozzi</td><td>male</td><td>09-Apr-2007</td></tr></table></div>"
        },
        "gender": "male",
        "birthDate": "2007-04-09"
      }
    },
    {
      "fullUrl": "urn:uuid:cec76ac5-a6df-43c0-a110-b360b491e736",
      "resource": {
        "resourceType": "ServiceRequest",
        "id": "cec76ac5-a6df-43c0-a110-b360b491e736",
        "meta": {
          "profile": [
            "http://hl7.eu/fhir/laboratory/StructureDefinition/ServiceRequest-eu-lab"
          ]
        },
        "identifier": [
          {
            "system": "http://example.org",
            "value": "20f62e37-1b91-41f1-9a55-f4b1e70864ab"
          }
        ],
        "specimen": [
          {
            "reference": "urn:uuid:eb35b3a2-bd9c-4c15-a999-bdb9ff5f1531"
          }
        ],
        "status": "active",
        "intent": "order",
        "code": {
          "coding": [
            {
              "code": "108252007",
              "system": "http://snomed.info/sct",
              "display": "Laboratory procedure"
            }
          ]
        },
        "subject": {
          "reference": "urn:uuid:10d16392-05a9-4c13-8fae-a47ebc5c28e3",
          "display": "Amadeo Andreozzi"
        },
        "requester": {
          "reference": "urn:uuid:9739d153-6689-4008-9194-30ba7cbed095"
        }
      }
    },
    {
      "fullUrl": "urn:uuid:9739d153-6689-4008-9194-30ba7cbed095",
      "resource": {
        "resourceType": "PractitionerRole",
        "id": "9739d153-6689-4008-9194-30ba7cbed095",
        "meta": {
          "profile": [
            "http://hl7.eu/fhir/base/StructureDefinition/practitionerRole-eu"
          ]
        },
        "text": {
          "status": "generated",
          "div": "<div xmlns=\"http://www.w3.org/1999/xhtml\">Provider Role Id: 9739d153-6689-4008-9194-30ba7cbed095</div>"
        },
        "organization": {
          "reference": "urn:uuid:814609f4-b089-417e-9d1e-d2595dd3e9c8"
        }
      }
    },
    {
      "fullUrl": "urn:uuid:814609f4-b089-417e-9d1e-d2595dd3e9c8",
      "resource": {
        "resourceType": "Organization",
        "id": "814609f4-b089-417e-9d1e-d2595dd3e9c8",
        "meta": {
          "profile": [
            "http://hl7.eu/fhir/base/StructureDefinition/organization-eu"
          ]
        },
        "identifier": [
          {
            "assigner": {
              "display": "HL7 Europe"
            },
            "system": "urn:oid:2.16.840.1.113883.2.51.999",
            "value": "e5c9c546-155a-4962-87b1-3ffebdcddf21"
          }
        ],
        "address": [
          {
            "line": [
              "Largo Beato Leopoldo Mandic 1"
            ],
            "city": "Merate",
            "postalCode": "23807",
            "country": "Italy"
          }
        ],
        "text": {
          "status": "generated",
          "div": "<div xmlns=\"http://www.w3.org/1999/xhtml\">Provider Organization: Ospedale San Leopoldo Mandic</div>"
        },
        "name": "Ospedale San Leopoldo Mandic"
      }
    },
    {
      "fullUrl": "urn:uuid:eb35b3a2-bd9c-4c15-a999-bdb9ff5f1531",
      "resource": {
        "resourceType": "Specimen",
        "id": "eb35b3a2-bd9c-4c15-a999-bdb9ff5f1531",
        "meta": {
          "profile": [
            "http://hl7.eu/fhir/laboratory/StructureDefinition/Specimen-eu-lab"
          ]
        },
        "collection": {
          "collectedDateTime": "2016-11-06"
        },
        "text": {
          "status": "generated",
          "div": "<div xmlns=\"http://www.w3.org/1999/xhtml\"><table class=\"hl7__eu__lab__report\"><tr><th>Specimen</th><th>Collection Date</th></tr><tr><td>Whole blood specimen (specimen)</td><td><span class=\"nb\">06-Nov-2016</span></td></tr></table></div>"
        },
        "type": {
          "coding": [
            {
              "code": "258580003",
              "system": "http://snomed.info/sct",
              "display": "Whole blood specimen (specimen)"
            }
          ]
        }
      }
    },
    {
      "fullUrl": "urn:uuid:eb35b3a2-bd9c-4c15-a999-bdb9ff5f1531",
      "resource": {
        "resourceType": "Specimen",
        "id": "eb35b3a2-bd9c-4c15-a999-bdb9ff5f1531",
        "meta": {
          "profile": [
            "http://hl7.eu/fhir/laboratory/StructureDefinition/Specimen-eu-lab"
          ]
        },
        "collection": {
          "collectedDateTime": "2016-11-06"
        },
        "text": {
          "status": "generated",
          "div": "<div xmlns=\"http://www.w3.org/1999/xhtml\"><table class=\"hl7__eu__lab__report\"><tr><th>Specimen</th><th>Collection Date</th></tr><tr><td>Whole blood specimen (specimen)</td><td><span class=\"nb\">06-Nov-2016</span></td></tr></table></div>"
        },
        "type": {
          "coding": [
            {
              "code": "258580003",
              "system": "http://snomed.info/sct",
              "display": "Whole blood specimen (specimen)"
            }
          ]
        }
      }
    },
    {
      "fullUrl": "urn:uuid:e2992ae1-3e98-42cc-8a3a-045cffc77d78",
      "resource": {
        "resourceType": "Observation",
        "id": "e2992ae1-3e98-42cc-8a3a-045cffc77d78",
        "meta": {
          "profile": [
            "http://hl7.eu/fhir/laboratory/StructureDefinition/Observation-resultslab-eu-lab"
          ]
        },
        "performer": [
          {
            "display": "The Central European Lab"
          }
        ],
        "category": [
          {
            "coding": [
              {
                "system": "http://terminology.hl7.org/CodeSystem/observation-category",
                "code": "laboratory"
              }
            ]
          }
        ],
        "code": {
          "coding": [
            {
              "code": "6690-2",
              "system": "http://loinc.org",
              "display": "Leukocytes [#/volume] in Blood by Automated count"
            }
          ],
          "text": "Leukocytes [#/volume] in Blood by Automated count"
        },
        "valueQuantity": {
          "system": "http://unitsofmeasure.org",
          "value": 4.5,
          "unit": "10*3/uL",
          "code": "10*3/uL"
        },
        "referenceRange": [
          {
            "low": {
              "value": 4.5,
              "code": "10*3/uL",
              "system": "http://unitsofmeasure.org"
            }
          },
          {
            "high": {
              "value": 10.5,
              "code": "10*3/uL",
              "system": "http://unitsofmeasure.org"
            }
          }
        ],
        "text": {
          "status": "generated",
          "div": "<div xmlns=\"http://www.w3.org/1999/xhtml\"><table class=\"hl7__eu__lab__report\"><tr><th>Test</th><th>06-Nov-2016</th><th>Reference&#xA0;Range</th><th>Unit</th></tr><tr><td>Leukocytes [#/volume] in Blood by Automated count</td><td>4.5</td><td>4.5 - 10.5</td><td></td><td>10*3/uL</td></tr></table></div>"
        },
        "status": "final",
        "subject": {
          "reference": "urn:uuid:10d16392-05a9-4c13-8fae-a47ebc5c28e3",
          "display": "Amadeo Andreozzi"
        },
        "effectiveDateTime": "2016-11-06T18:42:51Z",
        "specimen": {
          "reference": "urn:uuid:eb35b3a2-bd9c-4c15-a999-bdb9ff5f1531"
        }
      }
    },
    {
      "fullUrl": "urn:uuid:e0ff1df4-52ff-43fa-869f-f228c8cbf5f9",
      "resource": {
        "resourceType": "Observation",
        "id": "e0ff1df4-52ff-43fa-869f-f228c8cbf5f9",
        "meta": {
          "profile": [
            "http://hl7.eu/fhir/laboratory/StructureDefinition/Observation-resultslab-eu-lab"
          ]
        },
        "performer": [
          {
            "display": "The Central European Lab"
          }
        ],
        "category": [
          {
            "coding": [
              {
                "system": "http://terminology.hl7.org/CodeSystem/observation-category",
                "code": "laboratory"
              }
            ]
          }
        ],
        "code": {
          "coding": [
            {
              "code": "789-8",
              "system": "http://loinc.org",
              "display": "Erythrocytes [#/volume] in Blood by Automated count"
            }
          ],
          "text": "Erythrocytes [#/volume] in Blood by Automated count"
        },
        "valueQuantity": {
          "system": "http://unitsofmeasure.org",
          "value": 4.9,
          "unit": "10*6/uL",
          "code": "10*6/uL"
        },
        "referenceRange": [
          {
            "low": {
              "value": 4.5,
              "code": "10*6/uL",
              "system": "http://unitsofmeasure.org"
            }
          },
          {
            "high": {
              "value": 6.2,
              "code": "10*6/uL",
              "system": "http://unitsofmeasure.org"
            }
          }
        ],
        "text": {
          "status": "generated",
          "div": "<div xmlns=\"http://www.w3.org/1999/xhtml\"><table class=\"hl7__eu__lab__report\"><tr><th>Test</th><th>06-Nov-2016</th><th>Reference&#xA0;Range</th><th>Unit</th></tr><tr><td>Erythrocytes [#/volume] in Blood by Automated count</td><td>4.9</td><td>4.5 - 6.2</td><td></td><td>10*6/uL</td></tr></table></div>"
        },
        "status": "final",
        "subject": {
          "reference": "urn:uuid:10d16392-05a9-4c13-8fae-a47ebc5c28e3",
          "display": "Amadeo Andreozzi"
        },
        "effectiveDateTime": "2016-11-06T18:42:51Z",
        "specimen": {
          "reference": "urn:uuid:eb35b3a2-bd9c-4c15-a999-bdb9ff5f1531"
        }
      }
    },
    {
      "fullUrl": "urn:uuid:1b1d89d8-3140-4e5f-a433-ed8eab6e2a75",
      "resource": {
        "resourceType": "Observation",
        "id": "1b1d89d8-3140-4e5f-a433-ed8eab6e2a75",
        "meta": {
          "profile": [
            "http://hl7.eu/fhir/laboratory/StructureDefinition/Observation-resultslab-eu-lab"
          ]
        },
        "performer": [
          {
            "display": "The Central European Lab"
          }
        ],
        "category": [
          {
            "coding": [
              {
                "system": "http://terminology.hl7.org/CodeSystem/observation-category",
                "code": "laboratory"
              }
            ]
          }
        ],
        "code": {
          "coding": [
            {
              "code": "718-7",
              "system": "http://loinc.org",
              "display": "Hemoglobin [Mass/volume] in Blood"
            }
          ],
          "text": "Hemoglobin [Mass/volume] in Blood"
        },
        "valueQuantity": {
          "system": "http://unitsofmeasure.org",
          "value": 15.8,
          "unit": "g/dL",
          "code": "g/dL"
        },
        "referenceRange": [
          {
            "low": {
              "value": 13.5,
              "code": "g/dL",
              "system": "http://unitsofmeasure.org"
            }
          },
          {
            "high": {
              "value": 17.5,
              "code": "g/dL",
              "system": "http://unitsofmeasure.org"
            }
          }
        ],
        "text": {
          "status": "generated",
          "div": "<div xmlns=\"http://www.w3.org/1999/xhtml\"><table class=\"hl7__eu__lab__report\"><tr><th>Test</th><th>06-Nov-2016</th><th>Reference&#xA0;Range</th><th>Unit</th></tr><tr><td>Hemoglobin [Mass/volume] in Blood</td><td>15.8</td><td>13.5 - 17.5</td><td></td><td>g/dL</td></tr></table></div>"
        },
        "status": "final",
        "subject": {
          "reference": "urn:uuid:10d16392-05a9-4c13-8fae-a47ebc5c28e3",
          "display": "Amadeo Andreozzi"
        },
        "effectiveDateTime": "2016-11-06T18:42:51Z",
        "specimen": {
          "reference": "urn:uuid:eb35b3a2-bd9c-4c15-a999-bdb9ff5f1531"
        }
      }
    },
    {
      "fullUrl": "urn:uuid:6d610974-3ba2-4220-9d59-5582fba162e9",
      "resource": {
        "resourceType": "Observation",
        "id": "6d610974-3ba2-4220-9d59-5582fba162e9",
        "meta": {
          "profile": [
            "http://hl7.eu/fhir/laboratory/StructureDefinition/Observation-resultslab-eu-lab"
          ]
        },
        "performer": [
          {
            "display": "The Central European Lab"
          }
        ],
        "category": [
          {
            "coding": [
              {
                "system": "http://terminology.hl7.org/CodeSystem/observation-category",
                "code": "laboratory"
              }
            ]
          }
        ],
        "code": {
          "coding": [
            {
              "code": "4544-3",
              "system": "http://loinc.org",
              "display": "Hematocrit [Volume Fraction] of Blood by Automated count"
            }
          ],
          "text": "Hematocrit [Volume Fraction] of Blood by Automated count"
        },
        "valueQuantity": {
          "system": "http://unitsofmeasure.org",
          "value": 35.8,
          "unit": "%",
          "code": "%"
        },
        "referenceRange": [
          {
            "low": {
              "value": 38,
              "code": "%",
              "system": "http://unitsofmeasure.org"
            }
          },
          {
            "high": {
              "value": 50,
              "code": "%",
              "system": "http://unitsofmeasure.org"
            }
          }
        ],
        "interpretation": [
          {
            "coding": [
              {
                "code": "L",
                "system": "http://terminology.hl7.org/CodeSystem/v3-ObservationInterpretation",
                "display": "Low"
              }
            ]
          }
        ],
        "text": {
          "status": "generated",
          "div": "<div xmlns=\"http://www.w3.org/1999/xhtml\"><table class=\"hl7__eu__lab__report\"><tr><th>Test</th><th>06-Nov-2016</th><th>Reference&#xA0;Range</th><th>Unit</th></tr><tr><td>Hematocrit [Volume Fraction] of Blood by Automated count</td><td>35.8</td><td>38 - 50</td><td>L</td><td>%</td></tr></table></div>"
        },
        "status": "final",
        "subject": {
          "reference": "urn:uuid:10d16392-05a9-4c13-8fae-a47ebc5c28e3",
          "display": "Amadeo Andreozzi"
        },
        "effectiveDateTime": "2016-11-06T18:42:51Z",
        "specimen": {
          "reference": "urn:uuid:eb35b3a2-bd9c-4c15-a999-bdb9ff5f1531"
        }
      }
    },
    {
      "fullUrl": "urn:uuid:04b82a8a-8b48-454d-b21f-930cb5d7e776",
      "resource": {
        "resourceType": "Observation",
        "id": "04b82a8a-8b48-454d-b21f-930cb5d7e776",
        "meta": {
          "profile": [
            "http://hl7.eu/fhir/laboratory/StructureDefinition/Observation-resultslab-eu-lab"
          ]
        },
        "performer": [
          {
            "display": "The Central European Lab"
          }
        ],
        "category": [
          {
            "coding": [
              {
                "system": "http://terminology.hl7.org/CodeSystem/observation-category",
                "code": "laboratory"
              }
            ]
          }
        ],
        "code": {
          "coding": [
            {
              "code": "787-2",
              "system": "http://loinc.org",
              "display": "MCV [Entitic volume] by Automated count"
            }
          ],
          "text": "MCV [Entitic volume] by Automated count"
        },
        "valueQuantity": {
          "system": "http://unitsofmeasure.org",
          "value": 86,
          "unit": "fL",
          "code": "fL"
        },
        "referenceRange": [
          {
            "low": {
              "value": 76,
              "code": "fL",
              "system": "http://unitsofmeasure.org"
            }
          },
          {
            "high": {
              "value": 98,
              "code": "fL",
              "system": "http://unitsofmeasure.org"
            }
          }
        ],
        "text": {
          "status": "generated",
          "div": "<div xmlns=\"http://www.w3.org/1999/xhtml\"><table class=\"hl7__eu__lab__report\"><tr><th>Test</th><th>06-Nov-2016</th><th>Reference&#xA0;Range</th><th>Unit</th></tr><tr><td>MCV [Entitic volume] by Automated count</td><td>86.0</td><td>76 - 98</td><td></td><td>fL</td></tr></table></div>"
        },
        "status": "final",
        "subject": {
          "reference": "urn:uuid:10d16392-05a9-4c13-8fae-a47ebc5c28e3",
          "display": "Amadeo Andreozzi"
        },
        "effectiveDateTime": "2016-11-06T18:42:51Z",
        "specimen": {
          "reference": "urn:uuid:eb35b3a2-bd9c-4c15-a999-bdb9ff5f1531"
        }
      }
    },
    {
      "fullUrl": "urn:uuid:0cb99364-13fc-4914-b8ab-425fefc0bf72",
      "resource": {
        "resourceType": "Observation",
        "id": "0cb99364-13fc-4914-b8ab-425fefc0bf72",
        "meta": {
          "profile": [
            "http://hl7.eu/fhir/laboratory/StructureDefinition/Observation-resultslab-eu-lab"
          ]
        },
        "performer": [
          {
            "display": "The Central European Lab"
          }
        ],
        "category": [
          {
            "coding": [
              {
                "system": "http://terminology.hl7.org/CodeSystem/observation-category",
                "code": "laboratory"
              }
            ]
          }
        ],
        "code": {
          "coding": [
            {
              "code": "785-6",
              "system": "http://loinc.org",
              "display": "MCH [Entitic mass] by Automated count"
            }
          ],
          "text": "MCH [Entitic mass] by Automated count"
        },
        "valueQuantity": {
          "system": "http://unitsofmeasure.org",
          "value": 33,
          "unit": "pg",
          "code": "pg"
        },
        "referenceRange": [
          {
            "low": {
              "value": 27,
              "code": "pg",
              "system": "http://unitsofmeasure.org"
            }
          },
          {
            "high": {
              "value": 34.5,
              "code": "pg",
              "system": "http://unitsofmeasure.org"
            }
          }
        ],
        "text": {
          "status": "generated",
          "div": "<div xmlns=\"http://www.w3.org/1999/xhtml\"><table class=\"hl7__eu__lab__report\"><tr><th>Test</th><th>06-Nov-2016</th><th>Reference&#xA0;Range</th><th>Unit</th></tr><tr><td>MCH [Entitic mass] by Automated count</td><td>33.0</td><td>27 - 34.5</td><td></td><td>pg</td></tr></table></div>"
        },
        "status": "final",
        "subject": {
          "reference": "urn:uuid:10d16392-05a9-4c13-8fae-a47ebc5c28e3",
          "display": "Amadeo Andreozzi"
        },
        "effectiveDateTime": "2016-11-06T18:42:51Z",
        "specimen": {
          "reference": "urn:uuid:eb35b3a2-bd9c-4c15-a999-bdb9ff5f1531"
        }
      }
    },
    {
      "fullUrl": "urn:uuid:c429448a-4f99-4f0a-a8e8-b1932b6d5108",
      "resource": {
        "resourceType": "Observation",
        "id": "c429448a-4f99-4f0a-a8e8-b1932b6d5108",
        "meta": {
          "profile": [
            "http://hl7.eu/fhir/laboratory/StructureDefinition/Observation-resultslab-eu-lab"
          ]
        },
        "performer": [
          {
            "display": "The Central European Lab"
          }
        ],
        "category": [
          {
            "coding": [
              {
                "system": "http://terminology.hl7.org/CodeSystem/observation-category",
                "code": "laboratory"
              }
            ]
          }
        ],
        "code": {
          "coding": [
            {
              "code": "786-4",
              "system": "http://loinc.org",
              "display": "MCHC [Mass/volume] by Automated count"
            }
          ],
          "text": "MCHC [Mass/volume] by Automated count"
        },
        "valueQuantity": {
          "system": "http://unitsofmeasure.org",
          "value": 35.7,
          "unit": "g/dL",
          "code": "g/dL"
        },
        "referenceRange": [
          {
            "low": {
              "value": 31,
              "code": "g/dL",
              "system": "http://unitsofmeasure.org"
            }
          },
          {
            "high": {
              "value": 37,
              "code": "g/dL",
              "system": "http://unitsofmeasure.org"
            }
          }
        ],
        "text": {
          "status": "generated",
          "div": "<div xmlns=\"http://www.w3.org/1999/xhtml\"><table class=\"hl7__eu__lab__report\"><tr><th>Test</th><th>06-Nov-2016</th><th>Reference&#xA0;Range</th><th>Unit</th></tr><tr><td>MCHC [Mass/volume] by Automated count</td><td>35.7</td><td>31 - 37</td><td></td><td>g/dL</td></tr></table></div>"
        },
        "status": "final",
        "subject": {
          "reference": "urn:uuid:10d16392-05a9-4c13-8fae-a47ebc5c28e3",
          "display": "Amadeo Andreozzi"
        },
        "effectiveDateTime": "2016-11-06T18:42:51Z",
        "specimen": {
          "reference": "urn:uuid:eb35b3a2-bd9c-4c15-a999-bdb9ff5f1531"
        }
      }
    },
    {
      "fullUrl": "urn:uuid:1c1a06c9-dea5-403a-b794-436d7db0e739",
      "resource": {
        "resourceType": "Observation",
        "id": "1c1a06c9-dea5-403a-b794-436d7db0e739",
        "meta": {
          "profile": [
            "http://hl7.eu/fhir/laboratory/StructureDefinition/Observation-resultslab-eu-lab"
          ]
        },
        "performer": [
          {
            "display": "The Central European Lab"
          }
        ],
        "category": [
          {
            "coding": [
              {
                "system": "http://terminology.hl7.org/CodeSystem/observation-category",
                "code": "laboratory"
              }
            ]
          }
        ],
        "code": {
          "coding": [
            {
              "code": "21000-5",
              "system": "http://loinc.org",
              "display": "Erythrocyte distribution width [Entitic volume] by Automated count"
            }
          ],
          "text": "Erythrocyte distribution width [Entitic volume] by Automated count"
        },
        "valueQuantity": {
          "system": "http://unitsofmeasure.org",
          "value": 40.3,
          "unit": "fL",
          "code": "fL"
        },
        "referenceRange": [
          {
            "low": {
              "value": 36,
              "code": "fL",
              "system": "http://unitsofmeasure.org"
            }
          },
          {
            "high": {
              "value": 55,
              "code": "fL",
              "system": "http://unitsofmeasure.org"
            }
          }
        ],
        "text": {
          "status": "generated",
          "div": "<div xmlns=\"http://www.w3.org/1999/xhtml\"><table class=\"hl7__eu__lab__report\"><tr><th>Test</th><th>06-Nov-2016</th><th>Reference&#xA0;Range</th><th>Unit</th></tr><tr><td>Erythrocyte distribution width [Entitic volume] by Automated count</td><td>40.3</td><td>36 - 55</td><td></td><td>fL</td></tr></table></div>"
        },
        "status": "final",
        "subject": {
          "reference": "urn:uuid:10d16392-05a9-4c13-8fae-a47ebc5c28e3",
          "display": "Amadeo Andreozzi"
        },
        "effectiveDateTime": "2016-11-06T18:42:51Z",
        "specimen": {
          "reference": "urn:uuid:eb35b3a2-bd9c-4c15-a999-bdb9ff5f1531"
        }
      }
    },
    {
      "fullUrl": "urn:uuid:3dcf3e9e-0ef0-43f6-9424-fee4a9a38dd1",
      "resource": {
        "resourceType": "Observation",
        "id": "3dcf3e9e-0ef0-43f6-9424-fee4a9a38dd1",
        "meta": {
          "profile": [
            "http://hl7.eu/fhir/laboratory/StructureDefinition/Observation-resultslab-eu-lab"
          ]
        },
        "performer": [
          {
            "display": "The Central European Lab"
          }
        ],
        "category": [
          {
            "coding": [
              {
                "system": "http://terminology.hl7.org/CodeSystem/observation-category",
                "code": "laboratory"
              }
            ]
          }
        ],
        "code": {
          "coding": [
            {
              "code": "777-3",
              "system": "http://loinc.org",
              "display": "Platelets [#/volume] in Blood by Automated count"
            }
          ],
          "text": "Platelets [#/volume] in Blood by Automated count"
        },
        "valueQuantity": {
          "system": "http://unitsofmeasure.org",
          "value": 310.8,
          "unit": "10*3/uL",
          "code": "10*3/uL"
        },
        "referenceRange": [
          {
            "low": {
              "value": 150,
              "code": "10*3/uL",
              "system": "http://unitsofmeasure.org"
            }
          },
          {
            "high": {
              "value": 350,
              "code": "10*3/uL",
              "system": "http://unitsofmeasure.org"
            }
          }
        ],
        "text": {
          "status": "generated",
          "div": "<div xmlns=\"http://www.w3.org/1999/xhtml\"><table class=\"hl7__eu__lab__report\"><tr><th>Test</th><th>06-Nov-2016</th><th>Reference&#xA0;Range</th><th>Unit</th></tr><tr><td>Platelets [#/volume] in Blood by Automated count</td><td>310.8</td><td>150 - 350</td><td></td><td>10*3/uL</td></tr></table></div>"
        },
        "status": "final",
        "subject": {
          "reference": "urn:uuid:10d16392-05a9-4c13-8fae-a47ebc5c28e3",
          "display": "Amadeo Andreozzi"
        },
        "effectiveDateTime": "2016-11-06T18:42:51Z",
        "specimen": {
          "reference": "urn:uuid:eb35b3a2-bd9c-4c15-a999-bdb9ff5f1531"
        }
      }
    },
    {
      "fullUrl": "urn:uuid:c687ac0d-829a-4d27-9229-9138af8ddab1",
      "resource": {
        "resourceType": "Observation",
        "id": "c687ac0d-829a-4d27-9229-9138af8ddab1",
        "meta": {
          "profile": [
            "http://hl7.eu/fhir/laboratory/StructureDefinition/Observation-resultslab-eu-lab"
          ]
        },
        "performer": [
          {
            "display": "The Central European Lab"
          }
        ],
        "category": [
          {
            "coding": [
              {
                "system": "http://terminology.hl7.org/CodeSystem/observation-category",
                "code": "laboratory"
              }
            ]
          }
        ],
        "code": {
          "coding": [
            {
              "code": "32207-3",
              "system": "http://loinc.org",
              "display": "Platelet distribution width [Entitic volume] in Blood by Automated count"
            }
          ],
          "text": "Platelet distribution width [Entitic volume] in Blood by Automated count"
        },
        "valueQuantity": {
          "system": "http://unitsofmeasure.org",
          "value": 363.2,
          "unit": "fL",
          "code": "fL"
        },
        "referenceRange": [
          {
            "low": {
              "value": 13.4,
              "code": "fL",
              "system": "http://unitsofmeasure.org"
            }
          },
          {
            "high": {
              "value": 17.4,
              "code": "fL",
              "system": "http://unitsofmeasure.org"
            }
          }
        ],
        "interpretation": [
          {
            "coding": [
              {
                "code": "H",
                "system": "http://terminology.hl7.org/CodeSystem/v3-ObservationInterpretation",
                "display": "High"
              }
            ]
          }
        ],
        "text": {
          "status": "generated",
          "div": "<div xmlns=\"http://www.w3.org/1999/xhtml\"><table class=\"hl7__eu__lab__report\"><tr><th>Test</th><th>06-Nov-2016</th><th>Reference&#xA0;Range</th><th>Unit</th></tr><tr><td>Platelet distribution width [Entitic volume] in Blood by Automated count</td><td>363.2</td><td>13.4 - 17.4</td><td>H</td><td>fL</td></tr></table></div>"
        },
        "status": "final",
        "subject": {
          "reference": "urn:uuid:10d16392-05a9-4c13-8fae-a47ebc5c28e3",
          "display": "Amadeo Andreozzi"
        },
        "effectiveDateTime": "2016-11-06T18:42:51Z",
        "specimen": {
          "reference": "urn:uuid:eb35b3a2-bd9c-4c15-a999-bdb9ff5f1531"
        }
      }
    },
    {
      "fullUrl": "urn:uuid:16526b3a-eadb-42e7-9856-d7ae06024b65",
      "resource": {
        "resourceType": "Observation",
        "id": "16526b3a-eadb-42e7-9856-d7ae06024b65",
        "meta": {
          "profile": [
            "http://hl7.eu/fhir/laboratory/StructureDefinition/Observation-resultslab-eu-lab"
          ]
        },
        "performer": [
          {
            "display": "The Central European Lab"
          }
        ],
        "category": [
          {
            "coding": [
              {
                "system": "http://terminology.hl7.org/CodeSystem/observation-category",
                "code": "laboratory"
              }
            ]
          }
        ],
        "code": {
          "coding": [
            {
              "code": "32623-1",
              "system": "http://loinc.org",
              "display": "Platelet mean volume [Entitic volume] in Blood by Automated count"
            }
          ],
          "text": "Platelet mean volume [Entitic volume] in Blood by Automated count"
        },
        "valueQuantity": {
          "system": "http://unitsofmeasure.org",
          "value": 11.4,
          "unit": "fL",
          "code": "fL"
        },
        "referenceRange": [
          {
            "low": {
              "value": 9.4,
              "code": "fL",
              "system": "http://unitsofmeasure.org"
            }
          },
          {
            "high": {
              "value": 12,
              "code": "fL",
              "system": "http://unitsofmeasure.org"
            }
          }
        ],
        "text": {
          "status": "generated",
          "div": "<div xmlns=\"http://www.w3.org/1999/xhtml\"><table class=\"hl7__eu__lab__report\"><tr><th>Test</th><th>06-Nov-2016</th><th>Reference&#xA0;Range</th><th>Unit</th></tr><tr><td>Platelet mean volume [Entitic volume] in Blood by Automated count</td><td>11.4</td><td>9.4 - 12</td><td></td><td>fL</td></tr></table></div>"
        },
        "status": "final",
        "subject": {
          "reference": "urn:uuid:10d16392-05a9-4c13-8fae-a47ebc5c28e3",
          "display": "Amadeo Andreozzi"
        },
        "effectiveDateTime": "2016-11-06T18:42:51Z",
        "specimen": {
          "reference": "urn:uuid:eb35b3a2-bd9c-4c15-a999-bdb9ff5f1531"
        }
      }
    },
    {
      "fullUrl": "urn:uuid:b1f79d2f-8ee1-458f-afc1-fd8b161699eb",
      "resource": {
        "resourceType": "Device",
        "id": "b1f79d2f-8ee1-458f-afc1-fd8b161699eb",
        "deviceName": [
          {
            "name": "SYNDERAI Synthetic Generator",
            "type": "manufacturer-name"
          }
        ],
        "version": [
          {
            "value": "5.0"
          }
        ],
        "text": {
          "status": "generated",
          "div": "<div xmlns=\"http://www.w3.org/1999/xhtml\">SYNDERAI Synthetic Generator v5.0</div>"
        },
        "status": "active\"",
        "distinctIdentifier": "synderai-generator-50",
        "manufacturer": "SYNDERAI Project"
      }
    },
    {
      "fullUrl": "urn:uuid:133bc7a0-7cd0-4d61-b4e5-4f4a44590205",
      "resource": {
        "resourceType": "Provenance",
        "id": "133bc7a0-7cd0-4d61-b4e5-4f4a44590205",
        "target": [
          {
            "reference": "Patient/10d16392-05a9-4c13-8fae-a47ebc5c28e3"
          },
          {
            "reference": "Bundle/70521cb7-8a1c-4865-a6fa-6c4c476f6ccc"
          },
          {
            "reference": "Composition/35ca6b3f-e742-4293-afed-5777b595918d"
          },
          {
            "reference": "PractitionerRole/5fdcf8ed-d0e4-4cc8-9d29-6b009bdd7bb5"
          },
          {
            "reference": "Practitioner/c17d0cb3-cf62-49dd-be7b-76786df451bf"
          },
          {
            "reference": "PractitionerRole/9739d153-6689-4008-9194-30ba7cbed095"
          },
          {
            "reference": "Organization/814609f4-b089-417e-9d1e-d2595dd3e9c8"
          }
        ],
        "activity": {
          "text": "Synthetic Example Data Generation"
        },
        "policy": [
          "https://synderai.net/synderai-synthetic-data-policy"
        ],
        "agent": [
          {
            "type": {
              "text": "author"
            },
            "who": {
              "reference": "Device/b1f79d2f-8ee1-458f-afc1-fd8b161699eb"
            }
          }
        ],
        "reason": [
          {
            "text": "Interoperability Testing and Training (non-clinical use)"
          }
        ],
        "text": {
          "status": "generated",
          "div": "<div xmlns=\"http://www.w3.org/1999/xhtml\">Provenance for SYNDERAI Synthetic Example Data Resource</div>"
        },
        "recorded": "2016-11-06T19:42:51Z"
      }
    },
    {
      "fullUrl": "urn:uuid:5fdcf8ed-d0e4-4cc8-9d29-6b009bdd7bb5",
      "resource": {
        "resourceType": "PractitionerRole",
        "id": "5fdcf8ed-d0e4-4cc8-9d29-6b009bdd7bb5",
        "meta": {
          "profile": [
            "http://hl7.eu/fhir/base/StructureDefinition/practitionerRole-eu"
          ]
        },
        "text": {
          "status": "generated",
          "div": "<div xmlns=\"http://www.w3.org/1999/xhtml\">Laboratory Role Id: 5fdcf8ed-d0e4-4cc8-9d29-6b009bdd7bb5</div>"
        },
        "practitioner": {
          "reference": "urn:uuid:c17d0cb3-cf62-49dd-be7b-76786df451bf"
        }
      }
    },
    {
      "fullUrl": "urn:uuid:c17d0cb3-cf62-49dd-be7b-76786df451bf",
      "resource": {
        "resourceType": "Practitioner",
        "id": "c17d0cb3-cf62-49dd-be7b-76786df451bf",
        "meta": {
          "profile": [
            "http://hl7.eu/fhir/base/StructureDefinition/practitioner-eu"
          ]
        },
        "identifier": [
          {
            "assigner": {
              "display": "HL7 Europe"
            },
            "system": "urn:oid:2.16.840.1.113883.2.51.999",
            "value": "50f186bd-5ea6-4694-bedc-36c89f56534c"
          }
        ],
        "name": [
          {
            "prefix": [
              "dr"
            ],
            "given": [
              "Ex"
            ],
            "family": "Ample"
          }
        ],
        "address": [
          {
            "line": [
              "Laboratoire Central Européenne",
              "Boulevard du Jardin Botanique 32"
            ],
            "postalCode": "1000",
            "city": "Brussels",
            "country": "Belgium"
          }
        ],
        "text": {
          "status": "generated",
          "div": "<div xmlns=\"http://www.w3.org/1999/xhtml\">Laboratory: Laboratoire Central Européenne, 1000 Brussels, Belgium</div>"
        }
      }
    }
  ],
  "type": "document",
  "timestamp": "2016-11-06T19:42:51Z"
}
