{
  "resourceType": "Bundle",
  "id": "cb3296d5-d5ad-46e9-a4c7-e6b4de0ff70b",
  "meta": {
    "profile": [
      "http://hl7.eu/fhir/laboratory/StructureDefinition/Bundle-eu-lab"
    ]
  },
  "identifier": {
    "assigner": {
      "display": "HL7 Europe"
    },
    "system": "urn:oid:2.16.840.1.113883.2.51.999",
    "value": "87370630-c6cb-470e-baf8-6d028e1426a3"
  },
  "entry": [
    {
      "fullUrl": "urn:uuid:927f723c-6246-485d-98e8-9b6bcf6eed4e",
      "resource": {
        "resourceType": "Composition",
        "id": "927f723c-6246-485d-98e8-9b6bcf6eed4e",
        "meta": {
          "profile": [
            "http://hl7.eu/fhir/laboratory/StructureDefinition/Composition-eu-lab"
          ]
        },
        "identifier": {
          "assigner": {
            "display": "HL7 Europe"
          },
          "system": "urn:oid:2.16.840.1.113883.2.51.999",
          "value": "f64d2452-c090-465e-8fc3-ee2e33f50cc8"
        },
        "author": [
          {
            "reference": "urn:uuid:0b540caa-d2a0-44c7-b598-2f19e9d460f8"
          }
        ],
        "category": [
          {
            "coding": [
              {
                "code": "26436-6",
                "system": "http://loinc.org",
                "display": "Laboratory studies (set)"
              }
            ]
          }
        ],
        "type": {
          "coding": [
            {
              "code": "11502-2",
              "system": "http://loinc.org",
              "display": "Laboratory report"
            }
          ],
          "text": "Laboratory Report"
        },
        "section": [
          {
            "code": {
              "coding": [
                {
                  "code": "26436-6",
                  "system": "http://loinc.org",
                  "display": "Laboratory studies (set)"
                }
              ],
              "text": "Laboratory studies"
            },
            "section": [
              {
                "code": {
                  "coding": [
                    {
                      "code": "$18719-5",
                      "system": "http://loinc.org",
                      "display": "Chemistry studies (set)"
                    }
                  ],
                  "text": "Chemistry"
                },
                "entry": [
                  {
                    "reference": "urn:uuid:5d411c2d-9cb3-4293-9101-4396e92af690"
                  },
                  {
                    "reference": "urn:uuid:557c0cfb-bbb5-4f0d-9b44-fb1a056c9f27"
                  },
                  {
                    "reference": "urn:uuid:d08ad6d1-0a9f-4d51-96b0-dfc7f14a7675"
                  },
                  {
                    "reference": "urn:uuid:5d76828f-e413-45fa-bc4d-2b961adc9622"
                  },
                  {
                    "reference": "urn:uuid:3a274318-e5f6-4a59-aacf-29db127713a3"
                  },
                  {
                    "reference": "urn:uuid:9ec48070-a091-4ae1-bec7-e066aa89d9d4"
                  },
                  {
                    "reference": "urn:uuid:f524f86f-193f-4834-8c79-674165019b5e"
                  },
                  {
                    "reference": "urn:uuid:168e59e9-6f76-4ceb-8152-31e707dfd470"
                  },
                  {
                    "reference": "urn:uuid:52f46dde-4d08-4331-8179-b54842be16ae"
                  },
                  {
                    "reference": "urn:uuid:4f196564-47e7-4ac8-8fe6-59ca8ab2dd56"
                  },
                  {
                    "reference": "urn:uuid:d8172295-712f-4cc1-a694-c66a2c466d6e"
                  },
                  {
                    "reference": "urn:uuid:2cb52519-0743-4199-b1e8-066d3f477ba4"
                  },
                  {
                    "reference": "urn:uuid:679ebac2-4c5f-41a8-91ef-2922a97438d9"
                  },
                  {
                    "reference": "urn:uuid:f62e4e90-6955-42d8-a8d9-66af4dc2107c"
                  },
                  {
                    "reference": "urn:uuid:8205c9fd-cf76-4376-aa1a-a1576e6352f9"
                  },
                  {
                    "reference": "urn:uuid:52903638-5cff-4b88-9c4a-7fd13002a653"
                  },
                  {
                    "reference": "urn:uuid:13e18efb-d481-459f-ba25-d965db0409de"
                  },
                  {
                    "reference": "urn:uuid:b6c2f55a-99c9-4392-bbc3-92d4e4fe1ed4"
                  },
                  {
                    "reference": "urn:uuid:e3b4ce8f-130e-460f-ac9a-ab1647afbbcf"
                  }
                ],
                "text": {
                  "status": "generated",
                  "div": "<div xmlns=\"http://www.w3.org/1999/xhtml\"><h3>Chemistry</h3><table class=\"hl7__eu__lab__report\"><thead><tr><th>Test</th><th>02-NOV-2018</th><th>Reference&#xA0;Range</th><th>Unit</th></tr></thead><tbody><tr><td>Glucose [Mass/volume] in Blood</td><td>75.1</td><td>70 - 140</td><td>mg/dL</td></tr><tr><td>Urea nitrogen [Mass/volume] in Blood</td><td>16.6</td><td>7 - 25</td><td>mg/dL</td></tr><tr><td>Creatinine [Mass/volume] in Blood</td><td><strong>3.3 H</strong></td><td>0.6 - 1.1</td><td>mg/dL</td></tr><tr><td>Calcium [Mass/volume] in Blood</td><td>9.0</td><td>8.6 - 10.4</td><td>mg/dL</td></tr><tr><td>Sodium [Moles/volume] in Blood</td><td>141.2</td><td>135 - 145</td><td>mmol/L</td></tr><tr><td>Potassium [Moles/volume] in Blood</td><td>4.0</td><td>3.5 - 5.3</td><td>mmol/L</td></tr><tr><td>Chloride [Moles/volume] in Blood</td><td>103.3</td><td>98 - 108</td><td>mmol/L</td></tr><tr><td>Carbon dioxide, total [Moles/volume] in Blood</td><td>23.9</td><td>22 - 32</td><td>mmol/L</td></tr><tr><td>Protein [Mass/volume] in Serum or Plasma</td><td>8.0</td><td>6.6 - 8.3</td><td>g/dL</td></tr><tr><td>Albumin [Mass/volume] in Serum or Plasma</td><td>5.1</td><td>3.5 - 5.5</td><td>g/dL</td></tr><tr><td>Globulin [Mass/volume] in Serum by calculation</td><td>3.1</td><td>2.2 - 3.7</td><td>g/L</td></tr><tr><td>Bilirubin.total [Mass/volume] in Serum or Plasma</td><td>0.9</td><td>0.3 - 1.2</td><td>mg/dL</td></tr><tr><td>Alkaline phosphatase [Enzymatic activity/volume] in Serum or Plasma</td><td>78.4</td><td>40 - 130</td><td>U/L</td></tr><tr><td>Alanine aminotransferase [Enzymatic activity/volume] in Serum or Plasma</td><td>50.3</td><td>7 - 55</td><td>U/L</td></tr><tr><td>Aspartate aminotransferase [Enzymatic activity/volume] in Serum or Plasma</td><td>21.1</td><td>10 - 40</td><td>U/L</td></tr><tr><td>Cholesterol [Mass/volume] in Serum or Plasma</td><td>194.9</td><td>125 - 200</td><td>mg/dL</td></tr><tr><td>Triglyceride [Mass/volume] in Serum or Plasma</td><td>110.1</td><td>10 - 175</td><td>mg/dL</td></tr><tr><td>Cholesterol in LDL [Mass/volume] in Serum or Plasma by Direct assay</td><td>114.4</td><td>0 - 130</td><td>mg/dL</td></tr><tr><td>Cholesterol in HDL [Mass/volume] in Serum or Plasma</td><td><strong>30.7 L</strong></td><td>50 - 100</td><td>mg/dL</td></tr></tbody></table></div>"
                },
                "title": "Chemistry"
              }
            ],
            "title": "Laboratory Report"
          },
          {
            "text": {
              "status": "generated",
              "div": "<div xmlns=\"http://www.w3.org/1999/xhtml\"><h3>Annotation</h3><table class=\"hl7__eu__lab__report\"><tr><th>Conclusion and Recommendations based on this report and previous findings known to us</th></tr><tr><td>Renal function is impaired as indicated by elevated creatinine. All other parameters, including electrolytes, liver enzymes, and glucose, are within normal limits. Lipid profile shows low HDL cholesterol, which increases cardiovascular risk, while total cholesterol and LDL are at the upper end of normal. No acute metabolic derangements detected. Recommend further evaluation of renal function and cardiovascular risk management.</td></tr></table></div>"
            },
            "code": {
              "coding": [
                {
                  "system": "http://loinc.org",
                  "code": "48767-8",
                  "display": "Annotation comment"
                }
              ]
            },
            "title": "Annotation comment"
          }
        ],
        "status": "final",
        "subject": {
          "reference": "urn:uuid:1fff2c34-de71-469c-ad4c-dd9606d0a56f",
          "display": "Ludmila Vávrová"
        },
        "date": "2018-11-02T04:51:38Z",
        "title": "Laboratory Report",
        "confidentiality": "N"
      }
    },
    {
      "fullUrl": "urn:uuid:ab1e111f-0f1e-41af-a5bd-6b4cdc44a214",
      "resource": {
        "resourceType": "DiagnosticReport",
        "id": "ab1e111f-0f1e-41af-a5bd-6b4cdc44a214",
        "meta": {
          "profile": [
            "http://hl7.eu/fhir/laboratory/StructureDefinition/DiagnosticReport-eu-lab"
          ]
        },
        "identifier": [
          {
            "assigner": {
              "display": "HL7 Europe"
            },
            "system": "urn:oid:2.16.840.1.113883.2.51.999",
            "value": "0b12ea8d-b11c-4ccc-9c57-dae42a8f4194"
          }
        ],
        "extension": [
          {
            "url": "http://hl7.org/fhir/5.0/StructureDefinition/extension-DiagnosticReport.composition",
            "valueReference": {
              "reference": "urn:uuid:f64d2452-c090-465e-8fc3-ee2e33f50cc8"
            }
          }
        ],
        "category": [
          {
            "coding": [
              {
                "code": "26436-6",
                "system": "http://loinc.org",
                "display": "Laboratory studies (set)"
              }
            ]
          }
        ],
        "specimen": [
          {
            "reference": "urn:uuid:929a8188-f106-4f00-aadb-4ebc0dca32fe"
          },
          {
            "reference": "urn:uuid:ef450fd9-cc3b-4592-bdb6-02400aedcf6b"
          },
          {
            "reference": "urn:uuid:a63cb8b8-a96d-4816-8cae-c7984823fe1c"
          }
        ],
        "result": [
          {
            "reference": "urn:uuid:5d411c2d-9cb3-4293-9101-4396e92af690"
          },
          {
            "reference": "urn:uuid:557c0cfb-bbb5-4f0d-9b44-fb1a056c9f27"
          },
          {
            "reference": "urn:uuid:d08ad6d1-0a9f-4d51-96b0-dfc7f14a7675"
          },
          {
            "reference": "urn:uuid:5d76828f-e413-45fa-bc4d-2b961adc9622"
          },
          {
            "reference": "urn:uuid:3a274318-e5f6-4a59-aacf-29db127713a3"
          },
          {
            "reference": "urn:uuid:9ec48070-a091-4ae1-bec7-e066aa89d9d4"
          },
          {
            "reference": "urn:uuid:f524f86f-193f-4834-8c79-674165019b5e"
          },
          {
            "reference": "urn:uuid:168e59e9-6f76-4ceb-8152-31e707dfd470"
          },
          {
            "reference": "urn:uuid:52f46dde-4d08-4331-8179-b54842be16ae"
          },
          {
            "reference": "urn:uuid:4f196564-47e7-4ac8-8fe6-59ca8ab2dd56"
          },
          {
            "reference": "urn:uuid:d8172295-712f-4cc1-a694-c66a2c466d6e"
          },
          {
            "reference": "urn:uuid:2cb52519-0743-4199-b1e8-066d3f477ba4"
          },
          {
            "reference": "urn:uuid:679ebac2-4c5f-41a8-91ef-2922a97438d9"
          },
          {
            "reference": "urn:uuid:f62e4e90-6955-42d8-a8d9-66af4dc2107c"
          },
          {
            "reference": "urn:uuid:8205c9fd-cf76-4376-aa1a-a1576e6352f9"
          },
          {
            "reference": "urn:uuid:52903638-5cff-4b88-9c4a-7fd13002a653"
          },
          {
            "reference": "urn:uuid:13e18efb-d481-459f-ba25-d965db0409de"
          },
          {
            "reference": "urn:uuid:b6c2f55a-99c9-4392-bbc3-92d4e4fe1ed4"
          },
          {
            "reference": "urn:uuid:e3b4ce8f-130e-460f-ac9a-ab1647afbbcf"
          }
        ],
        "status": "registered",
        "code": {
          "coding": [
            {
              "code": "11502-2",
              "system": "http://loinc.org",
              "display": "Laboratory report"
            }
          ]
        },
        "subject": {
          "reference": "urn:uuid:1fff2c34-de71-469c-ad4c-dd9606d0a56f",
          "display": "Ludmila Vávrová"
        }
      }
    },
    {
      "fullUrl": "urn:uuid:1fff2c34-de71-469c-ad4c-dd9606d0a56f",
      "resource": {
        "resourceType": "Patient",
        "id": "1fff2c34-de71-469c-ad4c-dd9606d0a56f",
        "meta": {
          "security": [
            {
              "system": "http://terminology.hl7.org/CodeSystem/v3-ActReason",
              "code": "HTEST"
            },
            {
              "system": "http://terminology.hl7.org/CodeSystem/v3-ActReason",
              "code": "TRAIN"
            }
          ],
          "tag": [
            {
              "system": "https://synderai.net/fhir/CodeSystem/tags",
              "code": "synthetic",
              "display": "SYNDERAI Synthetic data"
            }
          ],
          "profile": [
            "http://hl7.eu/fhir/base/StructureDefinition/patient-eu-core"
          ]
        },
        "identifier": [
          {
            "type": {
              "coding": [
                {
                  "code": "PT",
                  "system": "http://terminology.hl7.org/CodeSystem/v2-0203"
                }
              ]
            },
            "system": "http://ec.europa.eu/identifier/eci",
            "value": "1992-540676-1"
          },
          {
            "type": {
              "coding": [
                {
                  "code": "MR",
                  "system": "http://terminology.hl7.org/CodeSystem/v2-0203"
                }
              ]
            },
            "system": "http://local.setting.eu/identifier",
            "value": "7c533aae-6e7f-89aa-dfdc-8ff900a5990b"
          }
        ],
        "name": [
          {
            "family": "Vávrová"
          },
          {
            "given": [
              "Ludmila"
            ]
          },
          {
            "text": "Ludmila Vávrová"
          }
        ],
        "address": [
          {
            "line": [
              "Šárovo Kolo 116"
            ],
            "use": "home",
            "type": "physical",
            "postalCode": "29471",
            "city": "Bakov nad Jizerou",
            "country": "Czechia"
          }
        ],
        "telecom": [
          {
            "system": "phone",
            "value": "00420 607 610 889"
          }
        ],
        "extension": [
          {
            "url": "http://hl7.org/fhir/StructureDefinition/patient-nationality",
            "valueCodeableConcept": {
              "coding": [
                {
                  "code": "CZ",
                  "system": "http://hl7.org/fhir/ValueSet/country"
                }
              ]
            }
          }
        ],
        "text": {
          "status": "generated",
          "div": "<div xmlns=\"http://www.w3.org/1999/xhtml\"><table class=\"hl7__ips\"><tr><td>Ludmila Vávrová</td><td>female</td><td>08-Aug-1940</td></tr></table></div>"
        },
        "gender": "female",
        "birthDate": "1940-08-08"
      }
    },
    {
      "fullUrl": "urn:uuid:0910b7dd-6612-4452-b43d-983d41d0b4f0",
      "resource": {
        "resourceType": "ServiceRequest",
        "id": "0910b7dd-6612-4452-b43d-983d41d0b4f0",
        "meta": {
          "profile": [
            "http://hl7.eu/fhir/laboratory/StructureDefinition/ServiceRequest-eu-lab"
          ]
        },
        "identifier": [
          {
            "system": "http://example.org",
            "value": "e2c8ca5b-777a-49a1-99fa-4d23abe51c84"
          }
        ],
        "specimen": [
          {
            "reference": "urn:uuid:929a8188-f106-4f00-aadb-4ebc0dca32fe"
          },
          {
            "reference": "urn:uuid:ef450fd9-cc3b-4592-bdb6-02400aedcf6b"
          },
          {
            "reference": "urn:uuid:a63cb8b8-a96d-4816-8cae-c7984823fe1c"
          }
        ],
        "reasonCode": [
          {
            "coding": [
              {
                "code": "414545008",
                "system": "http://snomed.info/sct",
                "display": "Ischemic heart disease"
              }
            ]
          },
          {
            "coding": [
              {
                "code": "64859006",
                "system": "http://snomed.info/sct",
                "display": "Osteoporosis"
              }
            ]
          },
          {
            "coding": [
              {
                "code": "6525002",
                "system": "http://snomed.info/sct",
                "display": "Dependent drug abuse"
              }
            ]
          },
          {
            "coding": [
              {
                "code": "55822004",
                "system": "http://snomed.info/sct",
                "display": "Hyperlipidemia"
              }
            ]
          },
          {
            "coding": [
              {
                "code": "124171000119105",
                "system": "http://snomed.info/sct",
                "display": "Chronic intractable migraine without aura"
              }
            ]
          },
          {
            "coding": [
              {
                "code": "196416002",
                "system": "http://snomed.info/sct",
                "display": "Impacted molars"
              }
            ]
          },
          {
            "coding": [
              {
                "code": "239872002",
                "system": "http://snomed.info/sct",
                "display": "Osteoarthritis of hip"
              }
            ]
          },
          {
            "coding": [
              {
                "code": "40055000",
                "system": "http://snomed.info/sct",
                "display": "Chronic sinusitis"
              }
            ]
          }
        ],
        "status": "active",
        "intent": "order",
        "code": {
          "coding": [
            {
              "code": "108252007",
              "system": "http://snomed.info/sct",
              "display": "Laboratory procedure"
            }
          ]
        },
        "subject": {
          "reference": "urn:uuid:1fff2c34-de71-469c-ad4c-dd9606d0a56f",
          "display": "Ludmila Vávrová"
        },
        "requester": {
          "reference": "urn:uuid:efa324d7-743e-48ed-97a8-08156520b200"
        }
      }
    },
    {
      "fullUrl": "urn:uuid:efa324d7-743e-48ed-97a8-08156520b200",
      "resource": {
        "resourceType": "PractitionerRole",
        "id": "efa324d7-743e-48ed-97a8-08156520b200",
        "meta": {
          "profile": [
            "http://hl7.eu/fhir/base/StructureDefinition/practitionerRole-eu"
          ]
        },
        "text": {
          "status": "generated",
          "div": "<div xmlns=\"http://www.w3.org/1999/xhtml\">Provider Role Id: efa324d7-743e-48ed-97a8-08156520b200</div>"
        },
        "organization": {
          "reference": "urn:uuid:b231900f-903f-401a-9cf5-f2e72fbbf0b8"
        }
      }
    },
    {
      "fullUrl": "urn:uuid:b231900f-903f-401a-9cf5-f2e72fbbf0b8",
      "resource": {
        "resourceType": "Organization",
        "id": "b231900f-903f-401a-9cf5-f2e72fbbf0b8",
        "meta": {
          "profile": [
            "http://hl7.eu/fhir/base/StructureDefinition/organization-eu"
          ]
        },
        "identifier": [
          {
            "assigner": {
              "display": "HL7 Europe"
            },
            "system": "urn:oid:2.16.840.1.113883.2.51.999",
            "value": "e9adb243-930c-4975-93dc-6d88f0b3f086"
          }
        ],
        "address": [
          {
            "city": "Kosmonosy",
            "postalCode": "293 06",
            "country": "Czechia"
          }
        ],
        "text": {
          "status": "generated",
          "div": "<div xmlns=\"http://www.w3.org/1999/xhtml\">Provider Organization: Psychiatrická nemocnice Kosmonosy</div>"
        },
        "name": "Psychiatrická nemocnice Kosmonosy"
      }
    },
    {
      "fullUrl": "urn:uuid:929a8188-f106-4f00-aadb-4ebc0dca32fe",
      "resource": {
        "resourceType": "Specimen",
        "id": "929a8188-f106-4f00-aadb-4ebc0dca32fe",
        "meta": {
          "profile": [
            "http://hl7.eu/fhir/laboratory/StructureDefinition/Specimen-eu-lab"
          ]
        },
        "collection": {
          "collectedDateTime": "2018-11-02"
        },
        "text": {
          "status": "generated",
          "div": "<div xmlns=\"http://www.w3.org/1999/xhtml\"><table class=\"hl7__eu__lab__report\"><tr><th>Specimen</th><th>Collection Date</th></tr><tr><td>Whole blood specimen (specimen)</td><td><span class=\"nb\">02-Nov-2018</span></td></tr></table></div>"
        },
        "type": {
          "coding": [
            {
              "code": "258580003",
              "system": "http://snomed.info/sct",
              "display": "Whole blood specimen (specimen)"
            }
          ]
        }
      }
    },
    {
      "fullUrl": "urn:uuid:ef450fd9-cc3b-4592-bdb6-02400aedcf6b",
      "resource": {
        "resourceType": "Specimen",
        "id": "ef450fd9-cc3b-4592-bdb6-02400aedcf6b",
        "meta": {
          "profile": [
            "http://hl7.eu/fhir/laboratory/StructureDefinition/Specimen-eu-lab"
          ]
        },
        "collection": {
          "collectedDateTime": "2018-11-02"
        },
        "text": {
          "status": "generated",
          "div": "<div xmlns=\"http://www.w3.org/1999/xhtml\"><table class=\"hl7__eu__lab__report\"><tr><th>Specimen</th><th>Collection Date</th></tr><tr><td>Acellular blood (serum or plasma) specimen</td><td><span class=\"nb\">02-Nov-2018</span></td></tr></table></div>"
        },
        "type": {
          "coding": [
            {
              "code": "122592007",
              "system": "http://snomed.info/sct",
              "display": "Acellular blood (serum or plasma) specimen"
            }
          ]
        }
      }
    },
    {
      "fullUrl": "urn:uuid:a63cb8b8-a96d-4816-8cae-c7984823fe1c",
      "resource": {
        "resourceType": "Specimen",
        "id": "a63cb8b8-a96d-4816-8cae-c7984823fe1c",
        "meta": {
          "profile": [
            "http://hl7.eu/fhir/laboratory/StructureDefinition/Specimen-eu-lab"
          ]
        },
        "collection": {
          "collectedDateTime": "2018-11-02"
        },
        "text": {
          "status": "generated",
          "div": "<div xmlns=\"http://www.w3.org/1999/xhtml\"><table class=\"hl7__eu__lab__report\"><tr><th>Specimen</th><th>Collection Date</th></tr><tr><td>Serum specimen</td><td><span class=\"nb\">02-Nov-2018</span></td></tr></table></div>"
        },
        "type": {
          "coding": [
            {
              "code": "119364003",
              "system": "http://snomed.info/sct",
              "display": "Serum specimen"
            }
          ]
        }
      }
    },
    {
      "fullUrl": "urn:uuid:5d411c2d-9cb3-4293-9101-4396e92af690",
      "resource": {
        "resourceType": "Observation",
        "id": "5d411c2d-9cb3-4293-9101-4396e92af690",
        "meta": {
          "profile": [
            "http://hl7.eu/fhir/laboratory/StructureDefinition/Observation-resultslab-eu-lab"
          ]
        },
        "performer": [
          {
            "display": "The Central European Lab"
          }
        ],
        "category": [
          {
            "coding": [
              {
                "system": "http://terminology.hl7.org/CodeSystem/observation-category",
                "code": "laboratory"
              }
            ]
          }
        ],
        "code": {
          "coding": [
            {
              "code": "2339-0",
              "system": "http://loinc.org",
              "display": "Glucose [Mass/volume] in Blood"
            }
          ],
          "text": "Glucose [Mass/volume] in Blood"
        },
        "valueQuantity": {
          "system": "http://unitsofmeasure.org",
          "value": 75.1,
          "unit": "mg/dL",
          "code": "mg/dL"
        },
        "referenceRange": [
          {
            "low": {
              "value": 70,
              "code": "mg/dL",
              "system": "http://unitsofmeasure.org"
            }
          },
          {
            "high": {
              "value": 140,
              "code": "mg/dL",
              "system": "http://unitsofmeasure.org"
            }
          }
        ],
        "text": {
          "status": "generated",
          "div": "<div xmlns=\"http://www.w3.org/1999/xhtml\"><table class=\"hl7__eu__lab__report\"><tr><th>Test</th><th>02-Nov-2018</th><th>Reference&#xA0;Range</th><th>Unit</th></tr><tr><td>Glucose [Mass/volume] in Blood</td><td>75.1</td><td>70 - 140</td><td></td><td>mg/dL</td></tr></table></div>"
        },
        "status": "final",
        "subject": {
          "reference": "urn:uuid:1fff2c34-de71-469c-ad4c-dd9606d0a56f",
          "display": "Ludmila Vávrová"
        },
        "effectiveDateTime": "2018-11-02T03:51:38Z",
        "specimen": {
          "reference": "urn:uuid:929a8188-f106-4f00-aadb-4ebc0dca32fe"
        }
      }
    },
    {
      "fullUrl": "urn:uuid:557c0cfb-bbb5-4f0d-9b44-fb1a056c9f27",
      "resource": {
        "resourceType": "Observation",
        "id": "557c0cfb-bbb5-4f0d-9b44-fb1a056c9f27",
        "meta": {
          "profile": [
            "http://hl7.eu/fhir/laboratory/StructureDefinition/Observation-resultslab-eu-lab"
          ]
        },
        "performer": [
          {
            "display": "The Central European Lab"
          }
        ],
        "category": [
          {
            "coding": [
              {
                "system": "http://terminology.hl7.org/CodeSystem/observation-category",
                "code": "laboratory"
              }
            ]
          }
        ],
        "code": {
          "coding": [
            {
              "code": "6299-2",
              "system": "http://loinc.org",
              "display": "Urea nitrogen [Mass/volume] in Blood"
            }
          ],
          "text": "Urea nitrogen [Mass/volume] in Blood"
        },
        "valueQuantity": {
          "system": "http://unitsofmeasure.org",
          "value": 16.6,
          "unit": "mg/dL",
          "code": "mg/dL"
        },
        "referenceRange": [
          {
            "low": {
              "value": 7,
              "code": "mg/dL",
              "system": "http://unitsofmeasure.org"
            }
          },
          {
            "high": {
              "value": 25,
              "code": "mg/dL",
              "system": "http://unitsofmeasure.org"
            }
          }
        ],
        "text": {
          "status": "generated",
          "div": "<div xmlns=\"http://www.w3.org/1999/xhtml\"><table class=\"hl7__eu__lab__report\"><tr><th>Test</th><th>02-Nov-2018</th><th>Reference&#xA0;Range</th><th>Unit</th></tr><tr><td>Urea nitrogen [Mass/volume] in Blood</td><td>16.6</td><td>7 - 25</td><td></td><td>mg/dL</td></tr></table></div>"
        },
        "status": "final",
        "subject": {
          "reference": "urn:uuid:1fff2c34-de71-469c-ad4c-dd9606d0a56f",
          "display": "Ludmila Vávrová"
        },
        "effectiveDateTime": "2018-11-02T03:51:38Z",
        "specimen": {
          "reference": "urn:uuid:929a8188-f106-4f00-aadb-4ebc0dca32fe"
        }
      }
    },
    {
      "fullUrl": "urn:uuid:d08ad6d1-0a9f-4d51-96b0-dfc7f14a7675",
      "resource": {
        "resourceType": "Observation",
        "id": "d08ad6d1-0a9f-4d51-96b0-dfc7f14a7675",
        "meta": {
          "profile": [
            "http://hl7.eu/fhir/laboratory/StructureDefinition/Observation-resultslab-eu-lab"
          ]
        },
        "performer": [
          {
            "display": "The Central European Lab"
          }
        ],
        "category": [
          {
            "coding": [
              {
                "system": "http://terminology.hl7.org/CodeSystem/observation-category",
                "code": "laboratory"
              }
            ]
          }
        ],
        "code": {
          "coding": [
            {
              "code": "38483-4",
              "system": "http://loinc.org",
              "display": "Creatinine [Mass/volume] in Blood"
            }
          ],
          "text": "Creatinine [Mass/volume] in Blood"
        },
        "valueQuantity": {
          "system": "http://unitsofmeasure.org",
          "value": 3.3,
          "unit": "mg/dL",
          "code": "mg/dL"
        },
        "referenceRange": [
          {
            "low": {
              "value": 0.6,
              "code": "mg/dL",
              "system": "http://unitsofmeasure.org"
            }
          },
          {
            "high": {
              "value": 1.1,
              "code": "mg/dL",
              "system": "http://unitsofmeasure.org"
            }
          }
        ],
        "interpretation": [
          {
            "coding": [
              {
                "code": "H",
                "system": "http://terminology.hl7.org/CodeSystem/v3-ObservationInterpretation",
                "display": "High"
              }
            ]
          }
        ],
        "text": {
          "status": "generated",
          "div": "<div xmlns=\"http://www.w3.org/1999/xhtml\"><table class=\"hl7__eu__lab__report\"><tr><th>Test</th><th>02-Nov-2018</th><th>Reference&#xA0;Range</th><th>Unit</th></tr><tr><td>Creatinine [Mass/volume] in Blood</td><td>3.3</td><td>0.6 - 1.1</td><td>H</td><td>mg/dL</td></tr></table></div>"
        },
        "status": "final",
        "subject": {
          "reference": "urn:uuid:1fff2c34-de71-469c-ad4c-dd9606d0a56f",
          "display": "Ludmila Vávrová"
        },
        "effectiveDateTime": "2018-11-02T03:51:38Z",
        "specimen": {
          "reference": "urn:uuid:929a8188-f106-4f00-aadb-4ebc0dca32fe"
        }
      }
    },
    {
      "fullUrl": "urn:uuid:5d76828f-e413-45fa-bc4d-2b961adc9622",
      "resource": {
        "resourceType": "Observation",
        "id": "5d76828f-e413-45fa-bc4d-2b961adc9622",
        "meta": {
          "profile": [
            "http://hl7.eu/fhir/laboratory/StructureDefinition/Observation-resultslab-eu-lab"
          ]
        },
        "performer": [
          {
            "display": "The Central European Lab"
          }
        ],
        "category": [
          {
            "coding": [
              {
                "system": "http://terminology.hl7.org/CodeSystem/observation-category",
                "code": "laboratory"
              }
            ]
          }
        ],
        "code": {
          "coding": [
            {
              "code": "49765-1",
              "system": "http://loinc.org",
              "display": "Calcium [Mass/volume] in Blood"
            }
          ],
          "text": "Calcium [Mass/volume] in Blood"
        },
        "valueQuantity": {
          "system": "http://unitsofmeasure.org",
          "value": 9,
          "unit": "mg/dL",
          "code": "mg/dL"
        },
        "referenceRange": [
          {
            "low": {
              "value": 8.6,
              "code": "mg/dL",
              "system": "http://unitsofmeasure.org"
            }
          },
          {
            "high": {
              "value": 10.4,
              "code": "mg/dL",
              "system": "http://unitsofmeasure.org"
            }
          }
        ],
        "text": {
          "status": "generated",
          "div": "<div xmlns=\"http://www.w3.org/1999/xhtml\"><table class=\"hl7__eu__lab__report\"><tr><th>Test</th><th>02-Nov-2018</th><th>Reference&#xA0;Range</th><th>Unit</th></tr><tr><td>Calcium [Mass/volume] in Blood</td><td>9.0</td><td>8.6 - 10.4</td><td></td><td>mg/dL</td></tr></table></div>"
        },
        "status": "final",
        "subject": {
          "reference": "urn:uuid:1fff2c34-de71-469c-ad4c-dd9606d0a56f",
          "display": "Ludmila Vávrová"
        },
        "effectiveDateTime": "2018-11-02T03:51:38Z",
        "specimen": {
          "reference": "urn:uuid:929a8188-f106-4f00-aadb-4ebc0dca32fe"
        }
      }
    },
    {
      "fullUrl": "urn:uuid:3a274318-e5f6-4a59-aacf-29db127713a3",
      "resource": {
        "resourceType": "Observation",
        "id": "3a274318-e5f6-4a59-aacf-29db127713a3",
        "meta": {
          "profile": [
            "http://hl7.eu/fhir/laboratory/StructureDefinition/Observation-resultslab-eu-lab"
          ]
        },
        "performer": [
          {
            "display": "The Central European Lab"
          }
        ],
        "category": [
          {
            "coding": [
              {
                "system": "http://terminology.hl7.org/CodeSystem/observation-category",
                "code": "laboratory"
              }
            ]
          }
        ],
        "code": {
          "coding": [
            {
              "code": "2947-0",
              "system": "http://loinc.org",
              "display": "Sodium [Moles/volume] in Blood"
            }
          ],
          "text": "Sodium [Moles/volume] in Blood"
        },
        "valueQuantity": {
          "system": "http://unitsofmeasure.org",
          "value": 141.2,
          "unit": "mmol/L",
          "code": "mmol/L"
        },
        "referenceRange": [
          {
            "low": {
              "value": 135,
              "code": "mmol/L",
              "system": "http://unitsofmeasure.org"
            }
          },
          {
            "high": {
              "value": 145,
              "code": "mmol/L",
              "system": "http://unitsofmeasure.org"
            }
          }
        ],
        "text": {
          "status": "generated",
          "div": "<div xmlns=\"http://www.w3.org/1999/xhtml\"><table class=\"hl7__eu__lab__report\"><tr><th>Test</th><th>02-Nov-2018</th><th>Reference&#xA0;Range</th><th>Unit</th></tr><tr><td>Sodium [Moles/volume] in Blood</td><td>141.2</td><td>135 - 145</td><td></td><td>mmol/L</td></tr></table></div>"
        },
        "status": "final",
        "subject": {
          "reference": "urn:uuid:1fff2c34-de71-469c-ad4c-dd9606d0a56f",
          "display": "Ludmila Vávrová"
        },
        "effectiveDateTime": "2018-11-02T03:51:38Z",
        "specimen": {
          "reference": "urn:uuid:929a8188-f106-4f00-aadb-4ebc0dca32fe"
        }
      }
    },
    {
      "fullUrl": "urn:uuid:9ec48070-a091-4ae1-bec7-e066aa89d9d4",
      "resource": {
        "resourceType": "Observation",
        "id": "9ec48070-a091-4ae1-bec7-e066aa89d9d4",
        "meta": {
          "profile": [
            "http://hl7.eu/fhir/laboratory/StructureDefinition/Observation-resultslab-eu-lab"
          ]
        },
        "performer": [
          {
            "display": "The Central European Lab"
          }
        ],
        "category": [
          {
            "coding": [
              {
                "system": "http://terminology.hl7.org/CodeSystem/observation-category",
                "code": "laboratory"
              }
            ]
          }
        ],
        "code": {
          "coding": [
            {
              "code": "6298-4",
              "system": "http://loinc.org",
              "display": "Potassium [Moles/volume] in Blood"
            }
          ],
          "text": "Potassium [Moles/volume] in Blood"
        },
        "valueQuantity": {
          "system": "http://unitsofmeasure.org",
          "value": 4,
          "unit": "mmol/L",
          "code": "mmol/L"
        },
        "referenceRange": [
          {
            "low": {
              "value": 3.5,
              "code": "mmol/L",
              "system": "http://unitsofmeasure.org"
            }
          },
          {
            "high": {
              "value": 5.3,
              "code": "mmol/L",
              "system": "http://unitsofmeasure.org"
            }
          }
        ],
        "text": {
          "status": "generated",
          "div": "<div xmlns=\"http://www.w3.org/1999/xhtml\"><table class=\"hl7__eu__lab__report\"><tr><th>Test</th><th>02-Nov-2018</th><th>Reference&#xA0;Range</th><th>Unit</th></tr><tr><td>Potassium [Moles/volume] in Blood</td><td>4.0</td><td>3.5 - 5.3</td><td></td><td>mmol/L</td></tr></table></div>"
        },
        "status": "final",
        "subject": {
          "reference": "urn:uuid:1fff2c34-de71-469c-ad4c-dd9606d0a56f",
          "display": "Ludmila Vávrová"
        },
        "effectiveDateTime": "2018-11-02T03:51:38Z",
        "specimen": {
          "reference": "urn:uuid:929a8188-f106-4f00-aadb-4ebc0dca32fe"
        }
      }
    },
    {
      "fullUrl": "urn:uuid:f524f86f-193f-4834-8c79-674165019b5e",
      "resource": {
        "resourceType": "Observation",
        "id": "f524f86f-193f-4834-8c79-674165019b5e",
        "meta": {
          "profile": [
            "http://hl7.eu/fhir/laboratory/StructureDefinition/Observation-resultslab-eu-lab"
          ]
        },
        "performer": [
          {
            "display": "The Central European Lab"
          }
        ],
        "category": [
          {
            "coding": [
              {
                "system": "http://terminology.hl7.org/CodeSystem/observation-category",
                "code": "laboratory"
              }
            ]
          }
        ],
        "code": {
          "coding": [
            {
              "code": "2069-3",
              "system": "http://loinc.org",
              "display": "Chloride [Moles/volume] in Blood"
            }
          ],
          "text": "Chloride [Moles/volume] in Blood"
        },
        "valueQuantity": {
          "system": "http://unitsofmeasure.org",
          "value": 103.3,
          "unit": "mmol/L",
          "code": "mmol/L"
        },
        "referenceRange": [
          {
            "low": {
              "value": 98,
              "code": "mmol/L",
              "system": "http://unitsofmeasure.org"
            }
          },
          {
            "high": {
              "value": 108,
              "code": "mmol/L",
              "system": "http://unitsofmeasure.org"
            }
          }
        ],
        "text": {
          "status": "generated",
          "div": "<div xmlns=\"http://www.w3.org/1999/xhtml\"><table class=\"hl7__eu__lab__report\"><tr><th>Test</th><th>02-Nov-2018</th><th>Reference&#xA0;Range</th><th>Unit</th></tr><tr><td>Chloride [Moles/volume] in Blood</td><td>103.3</td><td>98 - 108</td><td></td><td>mmol/L</td></tr></table></div>"
        },
        "status": "final",
        "subject": {
          "reference": "urn:uuid:1fff2c34-de71-469c-ad4c-dd9606d0a56f",
          "display": "Ludmila Vávrová"
        },
        "effectiveDateTime": "2018-11-02T03:51:38Z",
        "specimen": {
          "reference": "urn:uuid:929a8188-f106-4f00-aadb-4ebc0dca32fe"
        }
      }
    },
    {
      "fullUrl": "urn:uuid:168e59e9-6f76-4ceb-8152-31e707dfd470",
      "resource": {
        "resourceType": "Observation",
        "id": "168e59e9-6f76-4ceb-8152-31e707dfd470",
        "meta": {
          "profile": [
            "http://hl7.eu/fhir/laboratory/StructureDefinition/Observation-resultslab-eu-lab"
          ]
        },
        "performer": [
          {
            "display": "The Central European Lab"
          }
        ],
        "category": [
          {
            "coding": [
              {
                "system": "http://terminology.hl7.org/CodeSystem/observation-category",
                "code": "laboratory"
              }
            ]
          }
        ],
        "code": {
          "coding": [
            {
              "code": "20565-8",
              "system": "http://loinc.org",
              "display": "Carbon dioxide, total [Moles/volume] in Blood"
            }
          ],
          "text": "Carbon dioxide, total [Moles/volume] in Blood"
        },
        "valueQuantity": {
          "system": "http://unitsofmeasure.org",
          "value": 23.9,
          "unit": "mmol/L",
          "code": "mmol/L"
        },
        "referenceRange": [
          {
            "low": {
              "value": 22,
              "code": "mmol/L",
              "system": "http://unitsofmeasure.org"
            }
          },
          {
            "high": {
              "value": 32,
              "code": "mmol/L",
              "system": "http://unitsofmeasure.org"
            }
          }
        ],
        "text": {
          "status": "generated",
          "div": "<div xmlns=\"http://www.w3.org/1999/xhtml\"><table class=\"hl7__eu__lab__report\"><tr><th>Test</th><th>02-Nov-2018</th><th>Reference&#xA0;Range</th><th>Unit</th></tr><tr><td>Carbon dioxide, total [Moles/volume] in Blood</td><td>23.9</td><td>22 - 32</td><td></td><td>mmol/L</td></tr></table></div>"
        },
        "status": "final",
        "subject": {
          "reference": "urn:uuid:1fff2c34-de71-469c-ad4c-dd9606d0a56f",
          "display": "Ludmila Vávrová"
        },
        "effectiveDateTime": "2018-11-02T03:51:38Z",
        "specimen": {
          "reference": "urn:uuid:929a8188-f106-4f00-aadb-4ebc0dca32fe"
        }
      }
    },
    {
      "fullUrl": "urn:uuid:52f46dde-4d08-4331-8179-b54842be16ae",
      "resource": {
        "resourceType": "Observation",
        "id": "52f46dde-4d08-4331-8179-b54842be16ae",
        "meta": {
          "profile": [
            "http://hl7.eu/fhir/laboratory/StructureDefinition/Observation-resultslab-eu-lab"
          ]
        },
        "performer": [
          {
            "display": "The Central European Lab"
          }
        ],
        "category": [
          {
            "coding": [
              {
                "system": "http://terminology.hl7.org/CodeSystem/observation-category",
                "code": "laboratory"
              }
            ]
          }
        ],
        "code": {
          "coding": [
            {
              "code": "2885-2",
              "system": "http://loinc.org",
              "display": "Protein [Mass/volume] in Serum or Plasma"
            }
          ],
          "text": "Protein [Mass/volume] in Serum or Plasma"
        },
        "valueQuantity": {
          "system": "http://unitsofmeasure.org",
          "value": 8,
          "unit": "g/dL",
          "code": "g/dL"
        },
        "referenceRange": [
          {
            "low": {
              "value": 6.6,
              "code": "g/dL",
              "system": "http://unitsofmeasure.org"
            }
          },
          {
            "high": {
              "value": 8.3,
              "code": "g/dL",
              "system": "http://unitsofmeasure.org"
            }
          }
        ],
        "text": {
          "status": "generated",
          "div": "<div xmlns=\"http://www.w3.org/1999/xhtml\"><table class=\"hl7__eu__lab__report\"><tr><th>Test</th><th>02-Nov-2018</th><th>Reference&#xA0;Range</th><th>Unit</th></tr><tr><td>Protein [Mass/volume] in Serum or Plasma</td><td>8.0</td><td>6.6 - 8.3</td><td></td><td>g/dL</td></tr></table></div>"
        },
        "status": "final",
        "subject": {
          "reference": "urn:uuid:1fff2c34-de71-469c-ad4c-dd9606d0a56f",
          "display": "Ludmila Vávrová"
        },
        "effectiveDateTime": "2018-11-02T03:51:38Z",
        "specimen": {
          "reference": "urn:uuid:ef450fd9-cc3b-4592-bdb6-02400aedcf6b"
        }
      }
    },
    {
      "fullUrl": "urn:uuid:4f196564-47e7-4ac8-8fe6-59ca8ab2dd56",
      "resource": {
        "resourceType": "Observation",
        "id": "4f196564-47e7-4ac8-8fe6-59ca8ab2dd56",
        "meta": {
          "profile": [
            "http://hl7.eu/fhir/laboratory/StructureDefinition/Observation-resultslab-eu-lab"
          ]
        },
        "performer": [
          {
            "display": "The Central European Lab"
          }
        ],
        "category": [
          {
            "coding": [
              {
                "system": "http://terminology.hl7.org/CodeSystem/observation-category",
                "code": "laboratory"
              }
            ]
          }
        ],
        "code": {
          "coding": [
            {
              "code": "1751-7",
              "system": "http://loinc.org",
              "display": "Albumin [Mass/volume] in Serum or Plasma"
            }
          ],
          "text": "Albumin [Mass/volume] in Serum or Plasma"
        },
        "valueQuantity": {
          "system": "http://unitsofmeasure.org",
          "value": 5.1,
          "unit": "g/dL",
          "code": "g/dL"
        },
        "referenceRange": [
          {
            "low": {
              "value": 3.5,
              "code": "g/dL",
              "system": "http://unitsofmeasure.org"
            }
          },
          {
            "high": {
              "value": 5.5,
              "code": "g/dL",
              "system": "http://unitsofmeasure.org"
            }
          }
        ],
        "text": {
          "status": "generated",
          "div": "<div xmlns=\"http://www.w3.org/1999/xhtml\"><table class=\"hl7__eu__lab__report\"><tr><th>Test</th><th>02-Nov-2018</th><th>Reference&#xA0;Range</th><th>Unit</th></tr><tr><td>Albumin [Mass/volume] in Serum or Plasma</td><td>5.1</td><td>3.5 - 5.5</td><td></td><td>g/dL</td></tr></table></div>"
        },
        "status": "final",
        "subject": {
          "reference": "urn:uuid:1fff2c34-de71-469c-ad4c-dd9606d0a56f",
          "display": "Ludmila Vávrová"
        },
        "effectiveDateTime": "2018-11-02T03:51:38Z",
        "specimen": {
          "reference": "urn:uuid:ef450fd9-cc3b-4592-bdb6-02400aedcf6b"
        }
      }
    },
    {
      "fullUrl": "urn:uuid:d8172295-712f-4cc1-a694-c66a2c466d6e",
      "resource": {
        "resourceType": "Observation",
        "id": "d8172295-712f-4cc1-a694-c66a2c466d6e",
        "meta": {
          "profile": [
            "http://hl7.eu/fhir/laboratory/StructureDefinition/Observation-resultslab-eu-lab"
          ]
        },
        "performer": [
          {
            "display": "The Central European Lab"
          }
        ],
        "category": [
          {
            "coding": [
              {
                "system": "http://terminology.hl7.org/CodeSystem/observation-category",
                "code": "laboratory"
              }
            ]
          }
        ],
        "code": {
          "coding": [
            {
              "code": "10834-0",
              "system": "http://loinc.org",
              "display": "Globulin [Mass/volume] in Serum by calculation"
            }
          ],
          "text": "Globulin [Mass/volume] in Serum by calculation"
        },
        "valueQuantity": {
          "system": "http://unitsofmeasure.org",
          "value": 3.1,
          "unit": "g/L",
          "code": "g/L"
        },
        "referenceRange": [
          {
            "low": {
              "value": 2.2,
              "code": "g/L",
              "system": "http://unitsofmeasure.org"
            }
          },
          {
            "high": {
              "value": 3.7,
              "code": "g/L",
              "system": "http://unitsofmeasure.org"
            }
          }
        ],
        "text": {
          "status": "generated",
          "div": "<div xmlns=\"http://www.w3.org/1999/xhtml\"><table class=\"hl7__eu__lab__report\"><tr><th>Test</th><th>02-Nov-2018</th><th>Reference&#xA0;Range</th><th>Unit</th></tr><tr><td>Globulin [Mass/volume] in Serum by calculation</td><td>3.1</td><td>2.2 - 3.7</td><td></td><td>g/L</td></tr></table></div>"
        },
        "status": "final",
        "subject": {
          "reference": "urn:uuid:1fff2c34-de71-469c-ad4c-dd9606d0a56f",
          "display": "Ludmila Vávrová"
        },
        "effectiveDateTime": "2018-11-02T03:51:38Z",
        "specimen": {
          "reference": "urn:uuid:a63cb8b8-a96d-4816-8cae-c7984823fe1c"
        }
      }
    },
    {
      "fullUrl": "urn:uuid:2cb52519-0743-4199-b1e8-066d3f477ba4",
      "resource": {
        "resourceType": "Observation",
        "id": "2cb52519-0743-4199-b1e8-066d3f477ba4",
        "meta": {
          "profile": [
            "http://hl7.eu/fhir/laboratory/StructureDefinition/Observation-resultslab-eu-lab"
          ]
        },
        "performer": [
          {
            "display": "The Central European Lab"
          }
        ],
        "category": [
          {
            "coding": [
              {
                "system": "http://terminology.hl7.org/CodeSystem/observation-category",
                "code": "laboratory"
              }
            ]
          }
        ],
        "code": {
          "coding": [
            {
              "code": "1975-2",
              "system": "http://loinc.org",
              "display": "Bilirubin.total [Mass/volume] in Serum or Plasma"
            }
          ],
          "text": "Bilirubin.total [Mass/volume] in Serum or Plasma"
        },
        "valueQuantity": {
          "system": "http://unitsofmeasure.org",
          "value": 0.9,
          "unit": "mg/dL",
          "code": "mg/dL"
        },
        "referenceRange": [
          {
            "low": {
              "value": 0.3,
              "code": "mg/dL",
              "system": "http://unitsofmeasure.org"
            }
          },
          {
            "high": {
              "value": 1.2,
              "code": "mg/dL",
              "system": "http://unitsofmeasure.org"
            }
          }
        ],
        "text": {
          "status": "generated",
          "div": "<div xmlns=\"http://www.w3.org/1999/xhtml\"><table class=\"hl7__eu__lab__report\"><tr><th>Test</th><th>02-Nov-2018</th><th>Reference&#xA0;Range</th><th>Unit</th></tr><tr><td>Bilirubin.total [Mass/volume] in Serum or Plasma</td><td>0.9</td><td>0.3 - 1.2</td><td></td><td>mg/dL</td></tr></table></div>"
        },
        "status": "final",
        "subject": {
          "reference": "urn:uuid:1fff2c34-de71-469c-ad4c-dd9606d0a56f",
          "display": "Ludmila Vávrová"
        },
        "effectiveDateTime": "2018-11-02T03:51:38Z",
        "specimen": {
          "reference": "urn:uuid:ef450fd9-cc3b-4592-bdb6-02400aedcf6b"
        }
      }
    },
    {
      "fullUrl": "urn:uuid:679ebac2-4c5f-41a8-91ef-2922a97438d9",
      "resource": {
        "resourceType": "Observation",
        "id": "679ebac2-4c5f-41a8-91ef-2922a97438d9",
        "meta": {
          "profile": [
            "http://hl7.eu/fhir/laboratory/StructureDefinition/Observation-resultslab-eu-lab"
          ]
        },
        "performer": [
          {
            "display": "The Central European Lab"
          }
        ],
        "category": [
          {
            "coding": [
              {
                "system": "http://terminology.hl7.org/CodeSystem/observation-category",
                "code": "laboratory"
              }
            ]
          }
        ],
        "code": {
          "coding": [
            {
              "code": "6768-6",
              "system": "http://loinc.org",
              "display": "Alkaline phosphatase [Enzymatic activity/volume] in Serum or Plasma"
            }
          ],
          "text": "Alkaline phosphatase [Enzymatic activity/volume] in Serum or Plasma"
        },
        "valueQuantity": {
          "system": "http://unitsofmeasure.org",
          "value": 78.4,
          "unit": "U/L",
          "code": "U/L"
        },
        "referenceRange": [
          {
            "low": {
              "value": 40,
              "code": "U/L",
              "system": "http://unitsofmeasure.org"
            }
          },
          {
            "high": {
              "value": 130,
              "code": "U/L",
              "system": "http://unitsofmeasure.org"
            }
          }
        ],
        "text": {
          "status": "generated",
          "div": "<div xmlns=\"http://www.w3.org/1999/xhtml\"><table class=\"hl7__eu__lab__report\"><tr><th>Test</th><th>02-Nov-2018</th><th>Reference&#xA0;Range</th><th>Unit</th></tr><tr><td>Alkaline phosphatase [Enzymatic activity/volume] in Serum or Plasma</td><td>78.4</td><td>40 - 130</td><td></td><td>U/L</td></tr></table></div>"
        },
        "status": "final",
        "subject": {
          "reference": "urn:uuid:1fff2c34-de71-469c-ad4c-dd9606d0a56f",
          "display": "Ludmila Vávrová"
        },
        "effectiveDateTime": "2018-11-02T03:51:38Z",
        "specimen": {
          "reference": "urn:uuid:ef450fd9-cc3b-4592-bdb6-02400aedcf6b"
        }
      }
    },
    {
      "fullUrl": "urn:uuid:f62e4e90-6955-42d8-a8d9-66af4dc2107c",
      "resource": {
        "resourceType": "Observation",
        "id": "f62e4e90-6955-42d8-a8d9-66af4dc2107c",
        "meta": {
          "profile": [
            "http://hl7.eu/fhir/laboratory/StructureDefinition/Observation-resultslab-eu-lab"
          ]
        },
        "performer": [
          {
            "display": "The Central European Lab"
          }
        ],
        "category": [
          {
            "coding": [
              {
                "system": "http://terminology.hl7.org/CodeSystem/observation-category",
                "code": "laboratory"
              }
            ]
          }
        ],
        "code": {
          "coding": [
            {
              "code": "1742-6",
              "system": "http://loinc.org",
              "display": "Alanine aminotransferase [Enzymatic activity/volume] in Serum or Plasma"
            }
          ],
          "text": "Alanine aminotransferase [Enzymatic activity/volume] in Serum or Plasma"
        },
        "valueQuantity": {
          "system": "http://unitsofmeasure.org",
          "value": 50.3,
          "unit": "U/L",
          "code": "U/L"
        },
        "referenceRange": [
          {
            "low": {
              "value": 7,
              "code": "U/L",
              "system": "http://unitsofmeasure.org"
            }
          },
          {
            "high": {
              "value": 55,
              "code": "U/L",
              "system": "http://unitsofmeasure.org"
            }
          }
        ],
        "text": {
          "status": "generated",
          "div": "<div xmlns=\"http://www.w3.org/1999/xhtml\"><table class=\"hl7__eu__lab__report\"><tr><th>Test</th><th>02-Nov-2018</th><th>Reference&#xA0;Range</th><th>Unit</th></tr><tr><td>Alanine aminotransferase [Enzymatic activity/volume] in Serum or Plasma</td><td>50.3</td><td>7 - 55</td><td></td><td>U/L</td></tr></table></div>"
        },
        "status": "final",
        "subject": {
          "reference": "urn:uuid:1fff2c34-de71-469c-ad4c-dd9606d0a56f",
          "display": "Ludmila Vávrová"
        },
        "effectiveDateTime": "2018-11-02T03:51:38Z",
        "specimen": {
          "reference": "urn:uuid:ef450fd9-cc3b-4592-bdb6-02400aedcf6b"
        }
      }
    },
    {
      "fullUrl": "urn:uuid:8205c9fd-cf76-4376-aa1a-a1576e6352f9",
      "resource": {
        "resourceType": "Observation",
        "id": "8205c9fd-cf76-4376-aa1a-a1576e6352f9",
        "meta": {
          "profile": [
            "http://hl7.eu/fhir/laboratory/StructureDefinition/Observation-resultslab-eu-lab"
          ]
        },
        "performer": [
          {
            "display": "The Central European Lab"
          }
        ],
        "category": [
          {
            "coding": [
              {
                "system": "http://terminology.hl7.org/CodeSystem/observation-category",
                "code": "laboratory"
              }
            ]
          }
        ],
        "code": {
          "coding": [
            {
              "code": "1920-8",
              "system": "http://loinc.org",
              "display": "Aspartate aminotransferase [Enzymatic activity/volume] in Serum or Plasma"
            }
          ],
          "text": "Aspartate aminotransferase [Enzymatic activity/volume] in Serum or Plasma"
        },
        "valueQuantity": {
          "system": "http://unitsofmeasure.org",
          "value": 21.1,
          "unit": "U/L",
          "code": "U/L"
        },
        "referenceRange": [
          {
            "low": {
              "value": 10,
              "code": "U/L",
              "system": "http://unitsofmeasure.org"
            }
          },
          {
            "high": {
              "value": 40,
              "code": "U/L",
              "system": "http://unitsofmeasure.org"
            }
          }
        ],
        "text": {
          "status": "generated",
          "div": "<div xmlns=\"http://www.w3.org/1999/xhtml\"><table class=\"hl7__eu__lab__report\"><tr><th>Test</th><th>02-Nov-2018</th><th>Reference&#xA0;Range</th><th>Unit</th></tr><tr><td>Aspartate aminotransferase [Enzymatic activity/volume] in Serum or Plasma</td><td>21.1</td><td>10 - 40</td><td></td><td>U/L</td></tr></table></div>"
        },
        "status": "final",
        "subject": {
          "reference": "urn:uuid:1fff2c34-de71-469c-ad4c-dd9606d0a56f",
          "display": "Ludmila Vávrová"
        },
        "effectiveDateTime": "2018-11-02T03:51:38Z",
        "specimen": {
          "reference": "urn:uuid:ef450fd9-cc3b-4592-bdb6-02400aedcf6b"
        }
      }
    },
    {
      "fullUrl": "urn:uuid:52903638-5cff-4b88-9c4a-7fd13002a653",
      "resource": {
        "resourceType": "Observation",
        "id": "52903638-5cff-4b88-9c4a-7fd13002a653",
        "meta": {
          "profile": [
            "http://hl7.eu/fhir/laboratory/StructureDefinition/Observation-resultslab-eu-lab"
          ]
        },
        "performer": [
          {
            "display": "The Central European Lab"
          }
        ],
        "category": [
          {
            "coding": [
              {
                "system": "http://terminology.hl7.org/CodeSystem/observation-category",
                "code": "laboratory"
              }
            ]
          }
        ],
        "code": {
          "coding": [
            {
              "code": "2093-3",
              "system": "http://loinc.org",
              "display": "Cholesterol [Mass/volume] in Serum or Plasma"
            }
          ],
          "text": "Cholesterol [Mass/volume] in Serum or Plasma"
        },
        "valueQuantity": {
          "system": "http://unitsofmeasure.org",
          "value": 194.9,
          "unit": "mg/dL",
          "code": "mg/dL"
        },
        "referenceRange": [
          {
            "low": {
              "value": 125,
              "code": "mg/dL",
              "system": "http://unitsofmeasure.org"
            }
          },
          {
            "high": {
              "value": 200,
              "code": "mg/dL",
              "system": "http://unitsofmeasure.org"
            }
          }
        ],
        "text": {
          "status": "generated",
          "div": "<div xmlns=\"http://www.w3.org/1999/xhtml\"><table class=\"hl7__eu__lab__report\"><tr><th>Test</th><th>02-Nov-2018</th><th>Reference&#xA0;Range</th><th>Unit</th></tr><tr><td>Cholesterol [Mass/volume] in Serum or Plasma</td><td>194.9</td><td>125 - 200</td><td></td><td>mg/dL</td></tr></table></div>"
        },
        "status": "final",
        "subject": {
          "reference": "urn:uuid:1fff2c34-de71-469c-ad4c-dd9606d0a56f",
          "display": "Ludmila Vávrová"
        },
        "effectiveDateTime": "2018-11-02T03:51:38Z",
        "specimen": {
          "reference": "urn:uuid:ef450fd9-cc3b-4592-bdb6-02400aedcf6b"
        }
      }
    },
    {
      "fullUrl": "urn:uuid:13e18efb-d481-459f-ba25-d965db0409de",
      "resource": {
        "resourceType": "Observation",
        "id": "13e18efb-d481-459f-ba25-d965db0409de",
        "meta": {
          "profile": [
            "http://hl7.eu/fhir/laboratory/StructureDefinition/Observation-resultslab-eu-lab"
          ]
        },
        "performer": [
          {
            "display": "The Central European Lab"
          }
        ],
        "category": [
          {
            "coding": [
              {
                "system": "http://terminology.hl7.org/CodeSystem/observation-category",
                "code": "laboratory"
              }
            ]
          }
        ],
        "code": {
          "coding": [
            {
              "code": "2571-8",
              "system": "http://loinc.org",
              "display": "Triglyceride [Mass/volume] in Serum or Plasma"
            }
          ],
          "text": "Triglyceride [Mass/volume] in Serum or Plasma"
        },
        "valueQuantity": {
          "system": "http://unitsofmeasure.org",
          "value": 110.1,
          "unit": "mg/dL",
          "code": "mg/dL"
        },
        "referenceRange": [
          {
            "low": {
              "value": 10,
              "code": "mg/dL",
              "system": "http://unitsofmeasure.org"
            }
          },
          {
            "high": {
              "value": 175,
              "code": "mg/dL",
              "system": "http://unitsofmeasure.org"
            }
          }
        ],
        "text": {
          "status": "generated",
          "div": "<div xmlns=\"http://www.w3.org/1999/xhtml\"><table class=\"hl7__eu__lab__report\"><tr><th>Test</th><th>02-Nov-2018</th><th>Reference&#xA0;Range</th><th>Unit</th></tr><tr><td>Triglyceride [Mass/volume] in Serum or Plasma</td><td>110.1</td><td>10 - 175</td><td></td><td>mg/dL</td></tr></table></div>"
        },
        "status": "final",
        "subject": {
          "reference": "urn:uuid:1fff2c34-de71-469c-ad4c-dd9606d0a56f",
          "display": "Ludmila Vávrová"
        },
        "effectiveDateTime": "2018-11-02T03:51:38Z",
        "specimen": {
          "reference": "urn:uuid:ef450fd9-cc3b-4592-bdb6-02400aedcf6b"
        }
      }
    },
    {
      "fullUrl": "urn:uuid:b6c2f55a-99c9-4392-bbc3-92d4e4fe1ed4",
      "resource": {
        "resourceType": "Observation",
        "id": "b6c2f55a-99c9-4392-bbc3-92d4e4fe1ed4",
        "meta": {
          "profile": [
            "http://hl7.eu/fhir/laboratory/StructureDefinition/Observation-resultslab-eu-lab"
          ]
        },
        "performer": [
          {
            "display": "The Central European Lab"
          }
        ],
        "category": [
          {
            "coding": [
              {
                "system": "http://terminology.hl7.org/CodeSystem/observation-category",
                "code": "laboratory"
              }
            ]
          }
        ],
        "code": {
          "coding": [
            {
              "code": "18262-6",
              "system": "http://loinc.org",
              "display": "Cholesterol in LDL [Mass/volume] in Serum or Plasma by Direct assay"
            }
          ],
          "text": "Cholesterol in LDL [Mass/volume] in Serum or Plasma by Direct assay"
        },
        "valueQuantity": {
          "system": "http://unitsofmeasure.org",
          "value": 114.4,
          "unit": "mg/dL",
          "code": "mg/dL"
        },
        "referenceRange": [
          {
            "low": {
              "value": 0,
              "code": "mg/dL",
              "system": "http://unitsofmeasure.org"
            }
          },
          {
            "high": {
              "value": 130,
              "code": "mg/dL",
              "system": "http://unitsofmeasure.org"
            }
          }
        ],
        "text": {
          "status": "generated",
          "div": "<div xmlns=\"http://www.w3.org/1999/xhtml\"><table class=\"hl7__eu__lab__report\"><tr><th>Test</th><th>02-Nov-2018</th><th>Reference&#xA0;Range</th><th>Unit</th></tr><tr><td>Cholesterol in LDL [Mass/volume] in Serum or Plasma by Direct assay</td><td>114.4</td><td>0 - 130</td><td></td><td>mg/dL</td></tr></table></div>"
        },
        "status": "final",
        "subject": {
          "reference": "urn:uuid:1fff2c34-de71-469c-ad4c-dd9606d0a56f",
          "display": "Ludmila Vávrová"
        },
        "effectiveDateTime": "2018-11-02T03:51:38Z",
        "specimen": {
          "reference": "urn:uuid:ef450fd9-cc3b-4592-bdb6-02400aedcf6b"
        }
      }
    },
    {
      "fullUrl": "urn:uuid:e3b4ce8f-130e-460f-ac9a-ab1647afbbcf",
      "resource": {
        "resourceType": "Observation",
        "id": "e3b4ce8f-130e-460f-ac9a-ab1647afbbcf",
        "meta": {
          "profile": [
            "http://hl7.eu/fhir/laboratory/StructureDefinition/Observation-resultslab-eu-lab"
          ]
        },
        "performer": [
          {
            "display": "The Central European Lab"
          }
        ],
        "category": [
          {
            "coding": [
              {
                "system": "http://terminology.hl7.org/CodeSystem/observation-category",
                "code": "laboratory"
              }
            ]
          }
        ],
        "code": {
          "coding": [
            {
              "code": "2085-9",
              "system": "http://loinc.org",
              "display": "Cholesterol in HDL [Mass/volume] in Serum or Plasma"
            }
          ],
          "text": "Cholesterol in HDL [Mass/volume] in Serum or Plasma"
        },
        "valueQuantity": {
          "system": "http://unitsofmeasure.org",
          "value": 30.7,
          "unit": "mg/dL",
          "code": "mg/dL"
        },
        "referenceRange": [
          {
            "low": {
              "value": 50,
              "code": "mg/dL",
              "system": "http://unitsofmeasure.org"
            }
          },
          {
            "high": {
              "value": 100,
              "code": "mg/dL",
              "system": "http://unitsofmeasure.org"
            }
          }
        ],
        "interpretation": [
          {
            "coding": [
              {
                "code": "L",
                "system": "http://terminology.hl7.org/CodeSystem/v3-ObservationInterpretation",
                "display": "Low"
              }
            ]
          }
        ],
        "text": {
          "status": "generated",
          "div": "<div xmlns=\"http://www.w3.org/1999/xhtml\"><table class=\"hl7__eu__lab__report\"><tr><th>Test</th><th>02-Nov-2018</th><th>Reference&#xA0;Range</th><th>Unit</th></tr><tr><td>Cholesterol in HDL [Mass/volume] in Serum or Plasma</td><td>30.7</td><td>50 - 100</td><td>L</td><td>mg/dL</td></tr></table></div>"
        },
        "status": "final",
        "subject": {
          "reference": "urn:uuid:1fff2c34-de71-469c-ad4c-dd9606d0a56f",
          "display": "Ludmila Vávrová"
        },
        "effectiveDateTime": "2018-11-02T03:51:38Z",
        "specimen": {
          "reference": "urn:uuid:ef450fd9-cc3b-4592-bdb6-02400aedcf6b"
        }
      }
    },
    {
      "fullUrl": "urn:uuid:7a62405e-30b3-4abb-81cc-684d20eb2d27",
      "resource": {
        "resourceType": "Device",
        "id": "7a62405e-30b3-4abb-81cc-684d20eb2d27",
        "deviceName": [
          {
            "name": "SYNDERAI Synthetic Generator",
            "type": "manufacturer-name"
          }
        ],
        "version": [
          {
            "value": "5.0"
          }
        ],
        "text": {
          "status": "generated",
          "div": "<div xmlns=\"http://www.w3.org/1999/xhtml\">SYNDERAI Synthetic Generator v5.0</div>"
        },
        "status": "active\"",
        "distinctIdentifier": "synderai-generator-50",
        "manufacturer": "SYNDERAI Project"
      }
    },
    {
      "fullUrl": "urn:uuid:db93565f-42b3-4605-97f5-f3217fd07c0b",
      "resource": {
        "resourceType": "Provenance",
        "id": "db93565f-42b3-4605-97f5-f3217fd07c0b",
        "target": [
          {
            "reference": "Patient/1fff2c34-de71-469c-ad4c-dd9606d0a56f"
          },
          {
            "reference": "Bundle/cb3296d5-d5ad-46e9-a4c7-e6b4de0ff70b"
          },
          {
            "reference": "Composition/927f723c-6246-485d-98e8-9b6bcf6eed4e"
          },
          {
            "reference": "PractitionerRole/0b540caa-d2a0-44c7-b598-2f19e9d460f8"
          },
          {
            "reference": "Practitioner/d004ee40-ee50-4de0-a685-144f0642e8f3"
          },
          {
            "reference": "PractitionerRole/efa324d7-743e-48ed-97a8-08156520b200"
          },
          {
            "reference": "Organization/b231900f-903f-401a-9cf5-f2e72fbbf0b8"
          }
        ],
        "activity": {
          "text": "Synthetic Example Data Generation"
        },
        "policy": [
          "https://synderai.net/synderai-synthetic-data-policy"
        ],
        "agent": [
          {
            "type": {
              "text": "author"
            },
            "who": {
              "reference": "Device/7a62405e-30b3-4abb-81cc-684d20eb2d27"
            }
          }
        ],
        "reason": [
          {
            "text": "Interoperability Testing and Training (non-clinical use)"
          }
        ],
        "text": {
          "status": "generated",
          "div": "<div xmlns=\"http://www.w3.org/1999/xhtml\">Provenance for SYNDERAI Synthetic Example Data Resource</div>"
        },
        "recorded": "2018-11-02T04:51:38Z"
      }
    },
    {
      "fullUrl": "urn:uuid:0b540caa-d2a0-44c7-b598-2f19e9d460f8",
      "resource": {
        "resourceType": "PractitionerRole",
        "id": "0b540caa-d2a0-44c7-b598-2f19e9d460f8",
        "meta": {
          "profile": [
            "http://hl7.eu/fhir/base/StructureDefinition/practitionerRole-eu"
          ]
        },
        "text": {
          "status": "generated",
          "div": "<div xmlns=\"http://www.w3.org/1999/xhtml\">Laboratory Role Id: 0b540caa-d2a0-44c7-b598-2f19e9d460f8</div>"
        },
        "practitioner": {
          "reference": "urn:uuid:d004ee40-ee50-4de0-a685-144f0642e8f3"
        }
      }
    },
    {
      "fullUrl": "urn:uuid:d004ee40-ee50-4de0-a685-144f0642e8f3",
      "resource": {
        "resourceType": "Practitioner",
        "id": "d004ee40-ee50-4de0-a685-144f0642e8f3",
        "meta": {
          "profile": [
            "http://hl7.eu/fhir/base/StructureDefinition/practitioner-eu"
          ]
        },
        "identifier": [
          {
            "assigner": {
              "display": "HL7 Europe"
            },
            "system": "urn:oid:2.16.840.1.113883.2.51.999",
            "value": "2a7d637f-d300-4975-884e-e83cbbd4cfa3"
          }
        ],
        "name": [
          {
            "prefix": [
              "dr"
            ],
            "given": [
              "Ex"
            ],
            "family": "Ample"
          }
        ],
        "address": [
          {
            "line": [
              "Laboratoire Central Européenne",
              "Boulevard du Jardin Botanique 32"
            ],
            "postalCode": "1000",
            "city": "Brussels",
            "country": "Belgium"
          }
        ],
        "text": {
          "status": "generated",
          "div": "<div xmlns=\"http://www.w3.org/1999/xhtml\">Laboratory: Laboratoire Central Européenne, 1000 Brussels, Belgium</div>"
        }
      }
    }
  ],
  "type": "document",
  "timestamp": "2018-11-02T04:51:38Z"
}
