{
  "resourceType": "Bundle",
  "id": "e67a1ea3-eb98-4f00-b77a-146b2fc12185",
  "meta": {
    "profile": [
      "http://hl7.eu/fhir/laboratory/StructureDefinition/Bundle-eu-lab"
    ]
  },
  "identifier": {
    "assigner": {
      "display": "HL7 Europe"
    },
    "system": "urn:oid:2.16.840.1.113883.2.51.999",
    "value": "2c6c686f-e25a-4633-addd-d53d7f3d87c2"
  },
  "entry": [
    {
      "fullUrl": "urn:uuid:54932db5-0d6f-4de2-9e5d-c5aa8f42c2ea",
      "resource": {
        "resourceType": "Composition",
        "id": "54932db5-0d6f-4de2-9e5d-c5aa8f42c2ea",
        "meta": {
          "profile": [
            "http://hl7.eu/fhir/laboratory/StructureDefinition/Composition-eu-lab"
          ]
        },
        "identifier": {
          "assigner": {
            "display": "HL7 Europe"
          },
          "system": "urn:oid:2.16.840.1.113883.2.51.999",
          "value": "7809af8c-0708-4ba3-a659-9e37dc28dcc3"
        },
        "author": [
          {
            "reference": "urn:uuid:412fdae9-6f6a-4edb-9b52-7c74a1a87959"
          }
        ],
        "category": [
          {
            "coding": [
              {
                "code": "26436-6",
                "system": "http://loinc.org",
                "display": "Laboratory studies (set)"
              }
            ]
          }
        ],
        "type": {
          "coding": [
            {
              "code": "11502-2",
              "system": "http://loinc.org",
              "display": "Laboratory report"
            }
          ],
          "text": "Laboratory Report"
        },
        "section": [
          {
            "code": {
              "coding": [
                {
                  "code": "26436-6",
                  "system": "http://loinc.org",
                  "display": "Laboratory studies (set)"
                }
              ],
              "text": "Laboratory studies"
            },
            "section": [
              {
                "code": {
                  "coding": [
                    {
                      "code": "$18719-5",
                      "system": "http://loinc.org",
                      "display": "Chemistry studies (set)"
                    }
                  ],
                  "text": "Chemistry"
                },
                "entry": [
                  {
                    "reference": "urn:uuid:d51e229f-e660-421d-ac6e-5a32b42917e0"
                  },
                  {
                    "reference": "urn:uuid:1a9eb96d-6695-450b-a9e1-0e1554b589d2"
                  },
                  {
                    "reference": "urn:uuid:bdf98c8e-f230-4f0f-a75a-e6bec3d48283"
                  },
                  {
                    "reference": "urn:uuid:0e02516f-547e-41f1-864b-48ee58ffb680"
                  },
                  {
                    "reference": "urn:uuid:3a305750-4d69-427b-9551-a10128c06b93"
                  },
                  {
                    "reference": "urn:uuid:a0410142-56b9-4040-bab4-e785b91c95c9"
                  },
                  {
                    "reference": "urn:uuid:6de4967b-2367-4607-98da-4450c9b5af9d"
                  },
                  {
                    "reference": "urn:uuid:1cf8a2b7-75f0-473e-bd40-8a657326a112"
                  },
                  {
                    "reference": "urn:uuid:b29bd7ec-6524-4d9e-87e7-7cab1692f2cd"
                  },
                  {
                    "reference": "urn:uuid:751cdae5-787d-42c2-9006-19d669782308"
                  },
                  {
                    "reference": "urn:uuid:c69fb7dc-5a19-4f14-89e1-86caa0dc842a"
                  },
                  {
                    "reference": "urn:uuid:c8c74523-e91b-4712-8cb9-8efd721e2f4d"
                  },
                  {
                    "reference": "urn:uuid:111d73ca-8069-4196-bd7b-879149cce95b"
                  }
                ],
                "text": {
                  "status": "generated",
                  "div": "<div xmlns=\"http://www.w3.org/1999/xhtml\"><h3>Chemistry</h3><table class=\"hl7__eu__lab__report\"><thead><tr><th>Test</th><th>19-FEB-2022</th><th>Reference&#xA0;Range</th><th>Unit</th></tr></thead><tbody><tr><td>Hemoglobin A1c/Hemoglobin.total in Blood</td><td><strong>6.2 H</strong></td><td>4 - 6</td><td>%</td></tr><tr><td>Glucose [Mass/volume] in Blood</td><td>75.4</td><td>70 - 140</td><td>mg/dL</td></tr><tr><td>Urea nitrogen [Mass/volume] in Blood</td><td>17.2</td><td>7 - 45</td><td>mg/dL</td></tr><tr><td>Creatinine [Mass/volume] in Blood</td><td>0.8</td><td>0.6 - 1.1</td><td>mg/dL</td></tr><tr><td>Calcium [Mass/volume] in Blood</td><td>10.1</td><td>8.5 - 10.5</td><td>mg/dL</td></tr><tr><td>Sodium [Moles/volume] in Blood</td><td>138.7</td><td>135 - 145</td><td>mmol/L</td></tr><tr><td>Potassium [Moles/volume] in Blood</td><td>4.3</td><td>3.5 - 5.1</td><td>mmol/L</td></tr><tr><td>Chloride [Moles/volume] in Blood</td><td>106.0</td><td>98 - 107</td><td>mmol/L</td></tr><tr><td>Carbon dioxide, total [Moles/volume] in Blood</td><td>22.9</td><td>22 - 32</td><td>mmol/L</td></tr><tr><td>Cholesterol [Mass/volume] in Serum or Plasma</td><td>173.7</td><td>125 - 200</td><td>mg/dL</td></tr><tr><td>Triglyceride [Mass/volume] in Serum or Plasma</td><td>137.5</td><td>0 - 150</td><td>mg/dL</td></tr><tr><td>Cholesterol in LDL [Mass/volume] in Serum or Plasma by Direct assay</td><td>92.8</td><td>0 - 130</td><td>mg/dL</td></tr><tr><td>Cholesterol in HDL [Mass/volume] in Serum or Plasma</td><td>53.3</td><td>40 - 60</td><td>mg/dL</td></tr></tbody></table></div>"
                },
                "title": "Chemistry"
              }
            ],
            "title": "Laboratory Report"
          },
          {
            "text": {
              "status": "generated",
              "div": "<div xmlns=\"http://www.w3.org/1999/xhtml\"><h3>Annotation</h3><table class=\"hl7__eu__lab__report\"><tr><th>Conclusion and Recommendations based on this report and previous findings known to us</th></tr><tr><td>The laboratory results are largely within normal limits, except for a mildly elevated HbA1c (6.2%), indicating impaired glucose metabolism or prediabetes. Renal function, electrolytes, and lipid profile are within reference ranges. Recommend clinical correlation for glycemic control and consideration of lifestyle modification or further evaluation for diabetes risk.</td></tr></table></div>"
            },
            "code": {
              "coding": [
                {
                  "system": "http://loinc.org",
                  "code": "48767-8",
                  "display": "Annotation comment"
                }
              ]
            },
            "title": "Annotation comment"
          }
        ],
        "status": "final",
        "subject": {
          "reference": "urn:uuid:632b146d-aae5-481b-8a68-454516462d12",
          "display": "Lydia Ward"
        },
        "date": "2022-02-19T00:08:09Z",
        "title": "Laboratory Report",
        "confidentiality": "N"
      }
    },
    {
      "fullUrl": "urn:uuid:abcf2bbe-3d40-4108-94c5-d06113840ae6",
      "resource": {
        "resourceType": "DiagnosticReport",
        "id": "abcf2bbe-3d40-4108-94c5-d06113840ae6",
        "meta": {
          "profile": [
            "http://hl7.eu/fhir/laboratory/StructureDefinition/DiagnosticReport-eu-lab"
          ]
        },
        "identifier": [
          {
            "assigner": {
              "display": "HL7 Europe"
            },
            "system": "urn:oid:2.16.840.1.113883.2.51.999",
            "value": "829f2249-e2ab-4d5f-9ade-f81c78e1d3ce"
          }
        ],
        "extension": [
          {
            "url": "http://hl7.org/fhir/5.0/StructureDefinition/extension-DiagnosticReport.composition",
            "valueReference": {
              "reference": "urn:uuid:7809af8c-0708-4ba3-a659-9e37dc28dcc3"
            }
          }
        ],
        "category": [
          {
            "coding": [
              {
                "code": "26436-6",
                "system": "http://loinc.org",
                "display": "Laboratory studies (set)"
              }
            ]
          }
        ],
        "specimen": [
          {
            "reference": "urn:uuid:f062e4e2-8aa3-4d36-aa7a-dd64ea4cba5b"
          },
          {
            "reference": "urn:uuid:2a8baf69-69d4-4ad0-a232-3d74f7d722e3"
          }
        ],
        "result": [
          {
            "reference": "urn:uuid:d51e229f-e660-421d-ac6e-5a32b42917e0"
          },
          {
            "reference": "urn:uuid:1a9eb96d-6695-450b-a9e1-0e1554b589d2"
          },
          {
            "reference": "urn:uuid:bdf98c8e-f230-4f0f-a75a-e6bec3d48283"
          },
          {
            "reference": "urn:uuid:0e02516f-547e-41f1-864b-48ee58ffb680"
          },
          {
            "reference": "urn:uuid:3a305750-4d69-427b-9551-a10128c06b93"
          },
          {
            "reference": "urn:uuid:a0410142-56b9-4040-bab4-e785b91c95c9"
          },
          {
            "reference": "urn:uuid:6de4967b-2367-4607-98da-4450c9b5af9d"
          },
          {
            "reference": "urn:uuid:1cf8a2b7-75f0-473e-bd40-8a657326a112"
          },
          {
            "reference": "urn:uuid:b29bd7ec-6524-4d9e-87e7-7cab1692f2cd"
          },
          {
            "reference": "urn:uuid:751cdae5-787d-42c2-9006-19d669782308"
          },
          {
            "reference": "urn:uuid:c69fb7dc-5a19-4f14-89e1-86caa0dc842a"
          },
          {
            "reference": "urn:uuid:c8c74523-e91b-4712-8cb9-8efd721e2f4d"
          },
          {
            "reference": "urn:uuid:111d73ca-8069-4196-bd7b-879149cce95b"
          }
        ],
        "status": "registered",
        "code": {
          "coding": [
            {
              "code": "11502-2",
              "system": "http://loinc.org",
              "display": "Laboratory report"
            }
          ]
        },
        "subject": {
          "reference": "urn:uuid:632b146d-aae5-481b-8a68-454516462d12",
          "display": "Lydia Ward"
        }
      }
    },
    {
      "fullUrl": "urn:uuid:632b146d-aae5-481b-8a68-454516462d12",
      "resource": {
        "resourceType": "Patient",
        "id": "632b146d-aae5-481b-8a68-454516462d12",
        "meta": {
          "security": [
            {
              "system": "http://terminology.hl7.org/CodeSystem/v3-ActReason",
              "code": "HTEST"
            },
            {
              "system": "http://terminology.hl7.org/CodeSystem/v3-ActReason",
              "code": "TRAIN"
            }
          ],
          "tag": [
            {
              "system": "https://synderai.net/fhir/CodeSystem/tags",
              "code": "synthetic",
              "display": "SYNDERAI Synthetic data"
            }
          ],
          "profile": [
            "http://hl7.eu/fhir/base/StructureDefinition/patient-eu-core"
          ]
        },
        "identifier": [
          {
            "type": {
              "coding": [
                {
                  "code": "PT",
                  "system": "http://terminology.hl7.org/CodeSystem/v2-0203"
                }
              ]
            },
            "system": "http://ec.europa.eu/identifier/eci",
            "value": "8944-364030-8"
          },
          {
            "type": {
              "coding": [
                {
                  "code": "MR",
                  "system": "http://terminology.hl7.org/CodeSystem/v2-0203"
                }
              ]
            },
            "system": "http://local.setting.eu/identifier",
            "value": "9edf6b8d-b276-7218-98c6-ccf8d15f2a01"
          }
        ],
        "name": [
          {
            "family": "Ward"
          },
          {
            "given": [
              "Lydia"
            ]
          },
          {
            "text": "Lydia Ward"
          }
        ],
        "address": [
          {
            "line": [
              "6 Hunt radial"
            ],
            "use": "home",
            "type": "physical",
            "postalCode": "EH33",
            "city": "South Rosieside",
            "country": "United Kingdom"
          }
        ],
        "telecom": [
          {
            "system": "phone",
            "value": "01144960349"
          }
        ],
        "extension": [
          {
            "url": "http://hl7.org/fhir/StructureDefinition/patient-nationality",
            "valueCodeableConcept": {
              "coding": [
                {
                  "code": "GB",
                  "system": "http://hl7.org/fhir/ValueSet/country"
                }
              ]
            }
          }
        ],
        "text": {
          "status": "generated",
          "div": "<div xmlns=\"http://www.w3.org/1999/xhtml\"><table class=\"hl7__ips\"><tr><td>Lydia Ward</td><td>female</td><td>27-Dec-1968</td></tr></table></div>"
        },
        "gender": "female",
        "birthDate": "1968-12-27"
      }
    },
    {
      "fullUrl": "urn:uuid:25fd4ef4-fed1-4342-9d36-bb3beb07b9f8",
      "resource": {
        "resourceType": "ServiceRequest",
        "id": "25fd4ef4-fed1-4342-9d36-bb3beb07b9f8",
        "meta": {
          "profile": [
            "http://hl7.eu/fhir/laboratory/StructureDefinition/ServiceRequest-eu-lab"
          ]
        },
        "identifier": [
          {
            "system": "http://example.org",
            "value": "e4fb5245-e6cf-4829-bfcf-3a1c6d4b979d"
          }
        ],
        "specimen": [
          {
            "reference": "urn:uuid:f062e4e2-8aa3-4d36-aa7a-dd64ea4cba5b"
          },
          {
            "reference": "urn:uuid:2a8baf69-69d4-4ad0-a232-3d74f7d722e3"
          }
        ],
        "reasonCode": [
          {
            "coding": [
              {
                "code": "271737000",
                "system": "http://snomed.info/sct",
                "display": "Anemia"
              }
            ]
          },
          {
            "coding": [
              {
                "code": "15777000",
                "system": "http://snomed.info/sct",
                "display": "Prediabetes"
              }
            ]
          }
        ],
        "status": "active",
        "intent": "order",
        "code": {
          "coding": [
            {
              "code": "108252007",
              "system": "http://snomed.info/sct",
              "display": "Laboratory procedure"
            }
          ]
        },
        "subject": {
          "reference": "urn:uuid:632b146d-aae5-481b-8a68-454516462d12",
          "display": "Lydia Ward"
        },
        "requester": {
          "reference": "urn:uuid:aec80d2e-c505-41f2-be6e-97dafe481b68"
        }
      }
    },
    {
      "fullUrl": "urn:uuid:aec80d2e-c505-41f2-be6e-97dafe481b68",
      "resource": {
        "resourceType": "PractitionerRole",
        "id": "aec80d2e-c505-41f2-be6e-97dafe481b68",
        "meta": {
          "profile": [
            "http://hl7.eu/fhir/base/StructureDefinition/practitionerRole-eu"
          ]
        },
        "text": {
          "status": "generated",
          "div": "<div xmlns=\"http://www.w3.org/1999/xhtml\">Provider Role Id: aec80d2e-c505-41f2-be6e-97dafe481b68</div>"
        },
        "organization": {
          "reference": "urn:uuid:a4a46751-326b-493f-b044-0c5ef89dfde7"
        }
      }
    },
    {
      "fullUrl": "urn:uuid:a4a46751-326b-493f-b044-0c5ef89dfde7",
      "resource": {
        "resourceType": "Organization",
        "id": "a4a46751-326b-493f-b044-0c5ef89dfde7",
        "meta": {
          "profile": [
            "http://hl7.eu/fhir/base/StructureDefinition/organization-eu"
          ]
        },
        "identifier": [
          {
            "assigner": {
              "display": "HL7 Europe"
            },
            "system": "urn:oid:2.16.840.1.113883.2.51.999",
            "value": "65603a95-08ca-42ba-bf39-8a664f24e03f"
          }
        ],
        "address": [
          {
            "city": "Edinburgh",
            "postalCode": "EH9 2",
            "country": "United Kingdom"
          }
        ],
        "text": {
          "status": "generated",
          "div": "<div xmlns=\"http://www.w3.org/1999/xhtml\">Provider Organization: Royal Hospital for Sick Children</div>"
        },
        "name": "Royal Hospital for Sick Children"
      }
    },
    {
      "fullUrl": "urn:uuid:f062e4e2-8aa3-4d36-aa7a-dd64ea4cba5b",
      "resource": {
        "resourceType": "Specimen",
        "id": "f062e4e2-8aa3-4d36-aa7a-dd64ea4cba5b",
        "meta": {
          "profile": [
            "http://hl7.eu/fhir/laboratory/StructureDefinition/Specimen-eu-lab"
          ]
        },
        "collection": {
          "collectedDateTime": "2022-02-18"
        },
        "text": {
          "status": "generated",
          "div": "<div xmlns=\"http://www.w3.org/1999/xhtml\"><table class=\"hl7__eu__lab__report\"><tr><th>Specimen</th><th>Collection Date</th></tr><tr><td>Whole blood specimen (specimen)</td><td><span class=\"nb\">18-Feb-2022</span></td></tr></table></div>"
        },
        "type": {
          "coding": [
            {
              "code": "258580003",
              "system": "http://snomed.info/sct",
              "display": "Whole blood specimen (specimen)"
            }
          ]
        }
      }
    },
    {
      "fullUrl": "urn:uuid:2a8baf69-69d4-4ad0-a232-3d74f7d722e3",
      "resource": {
        "resourceType": "Specimen",
        "id": "2a8baf69-69d4-4ad0-a232-3d74f7d722e3",
        "meta": {
          "profile": [
            "http://hl7.eu/fhir/laboratory/StructureDefinition/Specimen-eu-lab"
          ]
        },
        "collection": {
          "collectedDateTime": "2022-02-18"
        },
        "text": {
          "status": "generated",
          "div": "<div xmlns=\"http://www.w3.org/1999/xhtml\"><table class=\"hl7__eu__lab__report\"><tr><th>Specimen</th><th>Collection Date</th></tr><tr><td>Acellular blood (serum or plasma) specimen</td><td><span class=\"nb\">18-Feb-2022</span></td></tr></table></div>"
        },
        "type": {
          "coding": [
            {
              "code": "122592007",
              "system": "http://snomed.info/sct",
              "display": "Acellular blood (serum or plasma) specimen"
            }
          ]
        }
      }
    },
    {
      "fullUrl": "urn:uuid:d51e229f-e660-421d-ac6e-5a32b42917e0",
      "resource": {
        "resourceType": "Observation",
        "id": "d51e229f-e660-421d-ac6e-5a32b42917e0",
        "meta": {
          "profile": [
            "http://hl7.eu/fhir/laboratory/StructureDefinition/Observation-resultslab-eu-lab"
          ]
        },
        "performer": [
          {
            "display": "The Central European Lab"
          }
        ],
        "category": [
          {
            "coding": [
              {
                "system": "http://terminology.hl7.org/CodeSystem/observation-category",
                "code": "laboratory"
              }
            ]
          }
        ],
        "code": {
          "coding": [
            {
              "code": "4548-4",
              "system": "http://loinc.org",
              "display": "Hemoglobin A1c/Hemoglobin.total in Blood"
            }
          ],
          "text": "Hemoglobin A1c/Hemoglobin.total in Blood"
        },
        "valueQuantity": {
          "system": "http://unitsofmeasure.org",
          "value": 6.2,
          "unit": "%",
          "code": "%"
        },
        "referenceRange": [
          {
            "low": {
              "value": 4,
              "code": "%",
              "system": "http://unitsofmeasure.org"
            }
          },
          {
            "high": {
              "value": 6,
              "code": "%",
              "system": "http://unitsofmeasure.org"
            }
          }
        ],
        "interpretation": [
          {
            "coding": [
              {
                "code": "H",
                "system": "http://terminology.hl7.org/CodeSystem/v3-ObservationInterpretation",
                "display": "High"
              }
            ]
          }
        ],
        "text": {
          "status": "generated",
          "div": "<div xmlns=\"http://www.w3.org/1999/xhtml\"><table class=\"hl7__eu__lab__report\"><tr><th>Test</th><th>19-Feb-2022</th><th>Reference&#xA0;Range</th><th>Unit</th></tr><tr><td>Hemoglobin A1c/Hemoglobin.total in Blood</td><td>6.2</td><td>4 - 6</td><td>H</td><td>%</td></tr></table></div>"
        },
        "status": "final",
        "subject": {
          "reference": "urn:uuid:632b146d-aae5-481b-8a68-454516462d12",
          "display": "Lydia Ward"
        },
        "effectiveDateTime": "2022-02-18T23:08:09Z",
        "specimen": {
          "reference": "urn:uuid:f062e4e2-8aa3-4d36-aa7a-dd64ea4cba5b"
        }
      }
    },
    {
      "fullUrl": "urn:uuid:1a9eb96d-6695-450b-a9e1-0e1554b589d2",
      "resource": {
        "resourceType": "Observation",
        "id": "1a9eb96d-6695-450b-a9e1-0e1554b589d2",
        "meta": {
          "profile": [
            "http://hl7.eu/fhir/laboratory/StructureDefinition/Observation-resultslab-eu-lab"
          ]
        },
        "performer": [
          {
            "display": "The Central European Lab"
          }
        ],
        "category": [
          {
            "coding": [
              {
                "system": "http://terminology.hl7.org/CodeSystem/observation-category",
                "code": "laboratory"
              }
            ]
          }
        ],
        "code": {
          "coding": [
            {
              "code": "2339-0",
              "system": "http://loinc.org",
              "display": "Glucose [Mass/volume] in Blood"
            }
          ],
          "text": "Glucose [Mass/volume] in Blood"
        },
        "valueQuantity": {
          "system": "http://unitsofmeasure.org",
          "value": 75.4,
          "unit": "mg/dL",
          "code": "mg/dL"
        },
        "referenceRange": [
          {
            "low": {
              "value": 70,
              "code": "mg/dL",
              "system": "http://unitsofmeasure.org"
            }
          },
          {
            "high": {
              "value": 140,
              "code": "mg/dL",
              "system": "http://unitsofmeasure.org"
            }
          }
        ],
        "text": {
          "status": "generated",
          "div": "<div xmlns=\"http://www.w3.org/1999/xhtml\"><table class=\"hl7__eu__lab__report\"><tr><th>Test</th><th>19-Feb-2022</th><th>Reference&#xA0;Range</th><th>Unit</th></tr><tr><td>Glucose [Mass/volume] in Blood</td><td>75.4</td><td>70 - 140</td><td></td><td>mg/dL</td></tr></table></div>"
        },
        "status": "final",
        "subject": {
          "reference": "urn:uuid:632b146d-aae5-481b-8a68-454516462d12",
          "display": "Lydia Ward"
        },
        "effectiveDateTime": "2022-02-18T23:08:09Z",
        "specimen": {
          "reference": "urn:uuid:f062e4e2-8aa3-4d36-aa7a-dd64ea4cba5b"
        }
      }
    },
    {
      "fullUrl": "urn:uuid:bdf98c8e-f230-4f0f-a75a-e6bec3d48283",
      "resource": {
        "resourceType": "Observation",
        "id": "bdf98c8e-f230-4f0f-a75a-e6bec3d48283",
        "meta": {
          "profile": [
            "http://hl7.eu/fhir/laboratory/StructureDefinition/Observation-resultslab-eu-lab"
          ]
        },
        "performer": [
          {
            "display": "The Central European Lab"
          }
        ],
        "category": [
          {
            "coding": [
              {
                "system": "http://terminology.hl7.org/CodeSystem/observation-category",
                "code": "laboratory"
              }
            ]
          }
        ],
        "code": {
          "coding": [
            {
              "code": "6299-2",
              "system": "http://loinc.org",
              "display": "Urea nitrogen [Mass/volume] in Blood"
            }
          ],
          "text": "Urea nitrogen [Mass/volume] in Blood"
        },
        "valueQuantity": {
          "system": "http://unitsofmeasure.org",
          "value": 17.2,
          "unit": "mg/dL",
          "code": "mg/dL"
        },
        "referenceRange": [
          {
            "low": {
              "value": 7,
              "code": "mg/dL",
              "system": "http://unitsofmeasure.org"
            }
          },
          {
            "high": {
              "value": 45,
              "code": "mg/dL",
              "system": "http://unitsofmeasure.org"
            }
          }
        ],
        "text": {
          "status": "generated",
          "div": "<div xmlns=\"http://www.w3.org/1999/xhtml\"><table class=\"hl7__eu__lab__report\"><tr><th>Test</th><th>19-Feb-2022</th><th>Reference&#xA0;Range</th><th>Unit</th></tr><tr><td>Urea nitrogen [Mass/volume] in Blood</td><td>17.2</td><td>7 - 45</td><td></td><td>mg/dL</td></tr></table></div>"
        },
        "status": "final",
        "subject": {
          "reference": "urn:uuid:632b146d-aae5-481b-8a68-454516462d12",
          "display": "Lydia Ward"
        },
        "effectiveDateTime": "2022-02-18T23:08:09Z",
        "specimen": {
          "reference": "urn:uuid:f062e4e2-8aa3-4d36-aa7a-dd64ea4cba5b"
        }
      }
    },
    {
      "fullUrl": "urn:uuid:0e02516f-547e-41f1-864b-48ee58ffb680",
      "resource": {
        "resourceType": "Observation",
        "id": "0e02516f-547e-41f1-864b-48ee58ffb680",
        "meta": {
          "profile": [
            "http://hl7.eu/fhir/laboratory/StructureDefinition/Observation-resultslab-eu-lab"
          ]
        },
        "performer": [
          {
            "display": "The Central European Lab"
          }
        ],
        "category": [
          {
            "coding": [
              {
                "system": "http://terminology.hl7.org/CodeSystem/observation-category",
                "code": "laboratory"
              }
            ]
          }
        ],
        "code": {
          "coding": [
            {
              "code": "38483-4",
              "system": "http://loinc.org",
              "display": "Creatinine [Mass/volume] in Blood"
            }
          ],
          "text": "Creatinine [Mass/volume] in Blood"
        },
        "valueQuantity": {
          "system": "http://unitsofmeasure.org",
          "value": 0.8,
          "unit": "mg/dL",
          "code": "mg/dL"
        },
        "referenceRange": [
          {
            "low": {
              "value": 0.6,
              "code": "mg/dL",
              "system": "http://unitsofmeasure.org"
            }
          },
          {
            "high": {
              "value": 1.1,
              "code": "mg/dL",
              "system": "http://unitsofmeasure.org"
            }
          }
        ],
        "text": {
          "status": "generated",
          "div": "<div xmlns=\"http://www.w3.org/1999/xhtml\"><table class=\"hl7__eu__lab__report\"><tr><th>Test</th><th>19-Feb-2022</th><th>Reference&#xA0;Range</th><th>Unit</th></tr><tr><td>Creatinine [Mass/volume] in Blood</td><td>0.8</td><td>0.6 - 1.1</td><td></td><td>mg/dL</td></tr></table></div>"
        },
        "status": "final",
        "subject": {
          "reference": "urn:uuid:632b146d-aae5-481b-8a68-454516462d12",
          "display": "Lydia Ward"
        },
        "effectiveDateTime": "2022-02-18T23:08:09Z",
        "specimen": {
          "reference": "urn:uuid:f062e4e2-8aa3-4d36-aa7a-dd64ea4cba5b"
        }
      }
    },
    {
      "fullUrl": "urn:uuid:3a305750-4d69-427b-9551-a10128c06b93",
      "resource": {
        "resourceType": "Observation",
        "id": "3a305750-4d69-427b-9551-a10128c06b93",
        "meta": {
          "profile": [
            "http://hl7.eu/fhir/laboratory/StructureDefinition/Observation-resultslab-eu-lab"
          ]
        },
        "performer": [
          {
            "display": "The Central European Lab"
          }
        ],
        "category": [
          {
            "coding": [
              {
                "system": "http://terminology.hl7.org/CodeSystem/observation-category",
                "code": "laboratory"
              }
            ]
          }
        ],
        "code": {
          "coding": [
            {
              "code": "49765-1",
              "system": "http://loinc.org",
              "display": "Calcium [Mass/volume] in Blood"
            }
          ],
          "text": "Calcium [Mass/volume] in Blood"
        },
        "valueQuantity": {
          "system": "http://unitsofmeasure.org",
          "value": 10.1,
          "unit": "mg/dL",
          "code": "mg/dL"
        },
        "referenceRange": [
          {
            "low": {
              "value": 8.5,
              "code": "mg/dL",
              "system": "http://unitsofmeasure.org"
            }
          },
          {
            "high": {
              "value": 10.5,
              "code": "mg/dL",
              "system": "http://unitsofmeasure.org"
            }
          }
        ],
        "text": {
          "status": "generated",
          "div": "<div xmlns=\"http://www.w3.org/1999/xhtml\"><table class=\"hl7__eu__lab__report\"><tr><th>Test</th><th>19-Feb-2022</th><th>Reference&#xA0;Range</th><th>Unit</th></tr><tr><td>Calcium [Mass/volume] in Blood</td><td>10.1</td><td>8.5 - 10.5</td><td></td><td>mg/dL</td></tr></table></div>"
        },
        "status": "final",
        "subject": {
          "reference": "urn:uuid:632b146d-aae5-481b-8a68-454516462d12",
          "display": "Lydia Ward"
        },
        "effectiveDateTime": "2022-02-18T23:08:09Z",
        "specimen": {
          "reference": "urn:uuid:f062e4e2-8aa3-4d36-aa7a-dd64ea4cba5b"
        }
      }
    },
    {
      "fullUrl": "urn:uuid:a0410142-56b9-4040-bab4-e785b91c95c9",
      "resource": {
        "resourceType": "Observation",
        "id": "a0410142-56b9-4040-bab4-e785b91c95c9",
        "meta": {
          "profile": [
            "http://hl7.eu/fhir/laboratory/StructureDefinition/Observation-resultslab-eu-lab"
          ]
        },
        "performer": [
          {
            "display": "The Central European Lab"
          }
        ],
        "category": [
          {
            "coding": [
              {
                "system": "http://terminology.hl7.org/CodeSystem/observation-category",
                "code": "laboratory"
              }
            ]
          }
        ],
        "code": {
          "coding": [
            {
              "code": "2947-0",
              "system": "http://loinc.org",
              "display": "Sodium [Moles/volume] in Blood"
            }
          ],
          "text": "Sodium [Moles/volume] in Blood"
        },
        "valueQuantity": {
          "system": "http://unitsofmeasure.org",
          "value": 138.7,
          "unit": "mmol/L",
          "code": "mmol/L"
        },
        "referenceRange": [
          {
            "low": {
              "value": 135,
              "code": "mmol/L",
              "system": "http://unitsofmeasure.org"
            }
          },
          {
            "high": {
              "value": 145,
              "code": "mmol/L",
              "system": "http://unitsofmeasure.org"
            }
          }
        ],
        "text": {
          "status": "generated",
          "div": "<div xmlns=\"http://www.w3.org/1999/xhtml\"><table class=\"hl7__eu__lab__report\"><tr><th>Test</th><th>19-Feb-2022</th><th>Reference&#xA0;Range</th><th>Unit</th></tr><tr><td>Sodium [Moles/volume] in Blood</td><td>138.7</td><td>135 - 145</td><td></td><td>mmol/L</td></tr></table></div>"
        },
        "status": "final",
        "subject": {
          "reference": "urn:uuid:632b146d-aae5-481b-8a68-454516462d12",
          "display": "Lydia Ward"
        },
        "effectiveDateTime": "2022-02-18T23:08:09Z",
        "specimen": {
          "reference": "urn:uuid:f062e4e2-8aa3-4d36-aa7a-dd64ea4cba5b"
        }
      }
    },
    {
      "fullUrl": "urn:uuid:6de4967b-2367-4607-98da-4450c9b5af9d",
      "resource": {
        "resourceType": "Observation",
        "id": "6de4967b-2367-4607-98da-4450c9b5af9d",
        "meta": {
          "profile": [
            "http://hl7.eu/fhir/laboratory/StructureDefinition/Observation-resultslab-eu-lab"
          ]
        },
        "performer": [
          {
            "display": "The Central European Lab"
          }
        ],
        "category": [
          {
            "coding": [
              {
                "system": "http://terminology.hl7.org/CodeSystem/observation-category",
                "code": "laboratory"
              }
            ]
          }
        ],
        "code": {
          "coding": [
            {
              "code": "6298-4",
              "system": "http://loinc.org",
              "display": "Potassium [Moles/volume] in Blood"
            }
          ],
          "text": "Potassium [Moles/volume] in Blood"
        },
        "valueQuantity": {
          "system": "http://unitsofmeasure.org",
          "value": 4.3,
          "unit": "mmol/L",
          "code": "mmol/L"
        },
        "referenceRange": [
          {
            "low": {
              "value": 3.5,
              "code": "mmol/L",
              "system": "http://unitsofmeasure.org"
            }
          },
          {
            "high": {
              "value": 5.1,
              "code": "mmol/L",
              "system": "http://unitsofmeasure.org"
            }
          }
        ],
        "text": {
          "status": "generated",
          "div": "<div xmlns=\"http://www.w3.org/1999/xhtml\"><table class=\"hl7__eu__lab__report\"><tr><th>Test</th><th>19-Feb-2022</th><th>Reference&#xA0;Range</th><th>Unit</th></tr><tr><td>Potassium [Moles/volume] in Blood</td><td>4.3</td><td>3.5 - 5.1</td><td></td><td>mmol/L</td></tr></table></div>"
        },
        "status": "final",
        "subject": {
          "reference": "urn:uuid:632b146d-aae5-481b-8a68-454516462d12",
          "display": "Lydia Ward"
        },
        "effectiveDateTime": "2022-02-18T23:08:09Z",
        "specimen": {
          "reference": "urn:uuid:f062e4e2-8aa3-4d36-aa7a-dd64ea4cba5b"
        }
      }
    },
    {
      "fullUrl": "urn:uuid:1cf8a2b7-75f0-473e-bd40-8a657326a112",
      "resource": {
        "resourceType": "Observation",
        "id": "1cf8a2b7-75f0-473e-bd40-8a657326a112",
        "meta": {
          "profile": [
            "http://hl7.eu/fhir/laboratory/StructureDefinition/Observation-resultslab-eu-lab"
          ]
        },
        "performer": [
          {
            "display": "The Central European Lab"
          }
        ],
        "category": [
          {
            "coding": [
              {
                "system": "http://terminology.hl7.org/CodeSystem/observation-category",
                "code": "laboratory"
              }
            ]
          }
        ],
        "code": {
          "coding": [
            {
              "code": "2069-3",
              "system": "http://loinc.org",
              "display": "Chloride [Moles/volume] in Blood"
            }
          ],
          "text": "Chloride [Moles/volume] in Blood"
        },
        "valueQuantity": {
          "system": "http://unitsofmeasure.org",
          "value": 106,
          "unit": "mmol/L",
          "code": "mmol/L"
        },
        "referenceRange": [
          {
            "low": {
              "value": 98,
              "code": "mmol/L",
              "system": "http://unitsofmeasure.org"
            }
          },
          {
            "high": {
              "value": 107,
              "code": "mmol/L",
              "system": "http://unitsofmeasure.org"
            }
          }
        ],
        "text": {
          "status": "generated",
          "div": "<div xmlns=\"http://www.w3.org/1999/xhtml\"><table class=\"hl7__eu__lab__report\"><tr><th>Test</th><th>19-Feb-2022</th><th>Reference&#xA0;Range</th><th>Unit</th></tr><tr><td>Chloride [Moles/volume] in Blood</td><td>106.0</td><td>98 - 107</td><td></td><td>mmol/L</td></tr></table></div>"
        },
        "status": "final",
        "subject": {
          "reference": "urn:uuid:632b146d-aae5-481b-8a68-454516462d12",
          "display": "Lydia Ward"
        },
        "effectiveDateTime": "2022-02-18T23:08:09Z",
        "specimen": {
          "reference": "urn:uuid:f062e4e2-8aa3-4d36-aa7a-dd64ea4cba5b"
        }
      }
    },
    {
      "fullUrl": "urn:uuid:b29bd7ec-6524-4d9e-87e7-7cab1692f2cd",
      "resource": {
        "resourceType": "Observation",
        "id": "b29bd7ec-6524-4d9e-87e7-7cab1692f2cd",
        "meta": {
          "profile": [
            "http://hl7.eu/fhir/laboratory/StructureDefinition/Observation-resultslab-eu-lab"
          ]
        },
        "performer": [
          {
            "display": "The Central European Lab"
          }
        ],
        "category": [
          {
            "coding": [
              {
                "system": "http://terminology.hl7.org/CodeSystem/observation-category",
                "code": "laboratory"
              }
            ]
          }
        ],
        "code": {
          "coding": [
            {
              "code": "20565-8",
              "system": "http://loinc.org",
              "display": "Carbon dioxide, total [Moles/volume] in Blood"
            }
          ],
          "text": "Carbon dioxide, total [Moles/volume] in Blood"
        },
        "valueQuantity": {
          "system": "http://unitsofmeasure.org",
          "value": 22.9,
          "unit": "mmol/L",
          "code": "mmol/L"
        },
        "referenceRange": [
          {
            "low": {
              "value": 22,
              "code": "mmol/L",
              "system": "http://unitsofmeasure.org"
            }
          },
          {
            "high": {
              "value": 32,
              "code": "mmol/L",
              "system": "http://unitsofmeasure.org"
            }
          }
        ],
        "text": {
          "status": "generated",
          "div": "<div xmlns=\"http://www.w3.org/1999/xhtml\"><table class=\"hl7__eu__lab__report\"><tr><th>Test</th><th>19-Feb-2022</th><th>Reference&#xA0;Range</th><th>Unit</th></tr><tr><td>Carbon dioxide, total [Moles/volume] in Blood</td><td>22.9</td><td>22 - 32</td><td></td><td>mmol/L</td></tr></table></div>"
        },
        "status": "final",
        "subject": {
          "reference": "urn:uuid:632b146d-aae5-481b-8a68-454516462d12",
          "display": "Lydia Ward"
        },
        "effectiveDateTime": "2022-02-18T23:08:09Z",
        "specimen": {
          "reference": "urn:uuid:f062e4e2-8aa3-4d36-aa7a-dd64ea4cba5b"
        }
      }
    },
    {
      "fullUrl": "urn:uuid:751cdae5-787d-42c2-9006-19d669782308",
      "resource": {
        "resourceType": "Observation",
        "id": "751cdae5-787d-42c2-9006-19d669782308",
        "meta": {
          "profile": [
            "http://hl7.eu/fhir/laboratory/StructureDefinition/Observation-resultslab-eu-lab"
          ]
        },
        "performer": [
          {
            "display": "The Central European Lab"
          }
        ],
        "category": [
          {
            "coding": [
              {
                "system": "http://terminology.hl7.org/CodeSystem/observation-category",
                "code": "laboratory"
              }
            ]
          }
        ],
        "code": {
          "coding": [
            {
              "code": "2093-3",
              "system": "http://loinc.org",
              "display": "Cholesterol [Mass/volume] in Serum or Plasma"
            }
          ],
          "text": "Cholesterol [Mass/volume] in Serum or Plasma"
        },
        "valueQuantity": {
          "system": "http://unitsofmeasure.org",
          "value": 173.7,
          "unit": "mg/dL",
          "code": "mg/dL"
        },
        "referenceRange": [
          {
            "low": {
              "value": 125,
              "code": "mg/dL",
              "system": "http://unitsofmeasure.org"
            }
          },
          {
            "high": {
              "value": 200,
              "code": "mg/dL",
              "system": "http://unitsofmeasure.org"
            }
          }
        ],
        "text": {
          "status": "generated",
          "div": "<div xmlns=\"http://www.w3.org/1999/xhtml\"><table class=\"hl7__eu__lab__report\"><tr><th>Test</th><th>19-Feb-2022</th><th>Reference&#xA0;Range</th><th>Unit</th></tr><tr><td>Cholesterol [Mass/volume] in Serum or Plasma</td><td>173.7</td><td>125 - 200</td><td></td><td>mg/dL</td></tr></table></div>"
        },
        "status": "final",
        "subject": {
          "reference": "urn:uuid:632b146d-aae5-481b-8a68-454516462d12",
          "display": "Lydia Ward"
        },
        "effectiveDateTime": "2022-02-18T23:08:09Z",
        "specimen": {
          "reference": "urn:uuid:2a8baf69-69d4-4ad0-a232-3d74f7d722e3"
        }
      }
    },
    {
      "fullUrl": "urn:uuid:c69fb7dc-5a19-4f14-89e1-86caa0dc842a",
      "resource": {
        "resourceType": "Observation",
        "id": "c69fb7dc-5a19-4f14-89e1-86caa0dc842a",
        "meta": {
          "profile": [
            "http://hl7.eu/fhir/laboratory/StructureDefinition/Observation-resultslab-eu-lab"
          ]
        },
        "performer": [
          {
            "display": "The Central European Lab"
          }
        ],
        "category": [
          {
            "coding": [
              {
                "system": "http://terminology.hl7.org/CodeSystem/observation-category",
                "code": "laboratory"
              }
            ]
          }
        ],
        "code": {
          "coding": [
            {
              "code": "2571-8",
              "system": "http://loinc.org",
              "display": "Triglyceride [Mass/volume] in Serum or Plasma"
            }
          ],
          "text": "Triglyceride [Mass/volume] in Serum or Plasma"
        },
        "valueQuantity": {
          "system": "http://unitsofmeasure.org",
          "value": 137.5,
          "unit": "mg/dL",
          "code": "mg/dL"
        },
        "referenceRange": [
          {
            "low": {
              "value": 0,
              "code": "mg/dL",
              "system": "http://unitsofmeasure.org"
            }
          },
          {
            "high": {
              "value": 150,
              "code": "mg/dL",
              "system": "http://unitsofmeasure.org"
            }
          }
        ],
        "text": {
          "status": "generated",
          "div": "<div xmlns=\"http://www.w3.org/1999/xhtml\"><table class=\"hl7__eu__lab__report\"><tr><th>Test</th><th>19-Feb-2022</th><th>Reference&#xA0;Range</th><th>Unit</th></tr><tr><td>Triglyceride [Mass/volume] in Serum or Plasma</td><td>137.5</td><td>0 - 150</td><td></td><td>mg/dL</td></tr></table></div>"
        },
        "status": "final",
        "subject": {
          "reference": "urn:uuid:632b146d-aae5-481b-8a68-454516462d12",
          "display": "Lydia Ward"
        },
        "effectiveDateTime": "2022-02-18T23:08:09Z",
        "specimen": {
          "reference": "urn:uuid:2a8baf69-69d4-4ad0-a232-3d74f7d722e3"
        }
      }
    },
    {
      "fullUrl": "urn:uuid:c8c74523-e91b-4712-8cb9-8efd721e2f4d",
      "resource": {
        "resourceType": "Observation",
        "id": "c8c74523-e91b-4712-8cb9-8efd721e2f4d",
        "meta": {
          "profile": [
            "http://hl7.eu/fhir/laboratory/StructureDefinition/Observation-resultslab-eu-lab"
          ]
        },
        "performer": [
          {
            "display": "The Central European Lab"
          }
        ],
        "category": [
          {
            "coding": [
              {
                "system": "http://terminology.hl7.org/CodeSystem/observation-category",
                "code": "laboratory"
              }
            ]
          }
        ],
        "code": {
          "coding": [
            {
              "code": "18262-6",
              "system": "http://loinc.org",
              "display": "Cholesterol in LDL [Mass/volume] in Serum or Plasma by Direct assay"
            }
          ],
          "text": "Cholesterol in LDL [Mass/volume] in Serum or Plasma by Direct assay"
        },
        "valueQuantity": {
          "system": "http://unitsofmeasure.org",
          "value": 92.8,
          "unit": "mg/dL",
          "code": "mg/dL"
        },
        "referenceRange": [
          {
            "low": {
              "value": 0,
              "code": "mg/dL",
              "system": "http://unitsofmeasure.org"
            }
          },
          {
            "high": {
              "value": 130,
              "code": "mg/dL",
              "system": "http://unitsofmeasure.org"
            }
          }
        ],
        "text": {
          "status": "generated",
          "div": "<div xmlns=\"http://www.w3.org/1999/xhtml\"><table class=\"hl7__eu__lab__report\"><tr><th>Test</th><th>19-Feb-2022</th><th>Reference&#xA0;Range</th><th>Unit</th></tr><tr><td>Cholesterol in LDL [Mass/volume] in Serum or Plasma by Direct assay</td><td>92.8</td><td>0 - 130</td><td></td><td>mg/dL</td></tr></table></div>"
        },
        "status": "final",
        "subject": {
          "reference": "urn:uuid:632b146d-aae5-481b-8a68-454516462d12",
          "display": "Lydia Ward"
        },
        "effectiveDateTime": "2022-02-18T23:08:09Z",
        "specimen": {
          "reference": "urn:uuid:2a8baf69-69d4-4ad0-a232-3d74f7d722e3"
        }
      }
    },
    {
      "fullUrl": "urn:uuid:111d73ca-8069-4196-bd7b-879149cce95b",
      "resource": {
        "resourceType": "Observation",
        "id": "111d73ca-8069-4196-bd7b-879149cce95b",
        "meta": {
          "profile": [
            "http://hl7.eu/fhir/laboratory/StructureDefinition/Observation-resultslab-eu-lab"
          ]
        },
        "performer": [
          {
            "display": "The Central European Lab"
          }
        ],
        "category": [
          {
            "coding": [
              {
                "system": "http://terminology.hl7.org/CodeSystem/observation-category",
                "code": "laboratory"
              }
            ]
          }
        ],
        "code": {
          "coding": [
            {
              "code": "2085-9",
              "system": "http://loinc.org",
              "display": "Cholesterol in HDL [Mass/volume] in Serum or Plasma"
            }
          ],
          "text": "Cholesterol in HDL [Mass/volume] in Serum or Plasma"
        },
        "valueQuantity": {
          "system": "http://unitsofmeasure.org",
          "value": 53.3,
          "unit": "mg/dL",
          "code": "mg/dL"
        },
        "referenceRange": [
          {
            "low": {
              "value": 40,
              "code": "mg/dL",
              "system": "http://unitsofmeasure.org"
            }
          },
          {
            "high": {
              "value": 60,
              "code": "mg/dL",
              "system": "http://unitsofmeasure.org"
            }
          }
        ],
        "text": {
          "status": "generated",
          "div": "<div xmlns=\"http://www.w3.org/1999/xhtml\"><table class=\"hl7__eu__lab__report\"><tr><th>Test</th><th>19-Feb-2022</th><th>Reference&#xA0;Range</th><th>Unit</th></tr><tr><td>Cholesterol in HDL [Mass/volume] in Serum or Plasma</td><td>53.3</td><td>40 - 60</td><td></td><td>mg/dL</td></tr></table></div>"
        },
        "status": "final",
        "subject": {
          "reference": "urn:uuid:632b146d-aae5-481b-8a68-454516462d12",
          "display": "Lydia Ward"
        },
        "effectiveDateTime": "2022-02-18T23:08:09Z",
        "specimen": {
          "reference": "urn:uuid:2a8baf69-69d4-4ad0-a232-3d74f7d722e3"
        }
      }
    },
    {
      "fullUrl": "urn:uuid:a0ba7d03-6ef2-4fe6-9f42-386b4504a442",
      "resource": {
        "resourceType": "Device",
        "id": "a0ba7d03-6ef2-4fe6-9f42-386b4504a442",
        "deviceName": [
          {
            "name": "SYNDERAI Synthetic Generator",
            "type": "manufacturer-name"
          }
        ],
        "version": [
          {
            "value": "5.0"
          }
        ],
        "text": {
          "status": "generated",
          "div": "<div xmlns=\"http://www.w3.org/1999/xhtml\">SYNDERAI Synthetic Generator v5.0</div>"
        },
        "status": "active\"",
        "distinctIdentifier": "synderai-generator-50",
        "manufacturer": "SYNDERAI Project"
      }
    },
    {
      "fullUrl": "urn:uuid:53e492ce-58f9-4590-8924-966a0e256df8",
      "resource": {
        "resourceType": "Provenance",
        "id": "53e492ce-58f9-4590-8924-966a0e256df8",
        "target": [
          {
            "reference": "Patient/632b146d-aae5-481b-8a68-454516462d12"
          },
          {
            "reference": "Bundle/e67a1ea3-eb98-4f00-b77a-146b2fc12185"
          },
          {
            "reference": "Composition/54932db5-0d6f-4de2-9e5d-c5aa8f42c2ea"
          },
          {
            "reference": "PractitionerRole/412fdae9-6f6a-4edb-9b52-7c74a1a87959"
          },
          {
            "reference": "Practitioner/073511fd-17bd-44a1-bf6b-9ede3c56de48"
          },
          {
            "reference": "PractitionerRole/aec80d2e-c505-41f2-be6e-97dafe481b68"
          },
          {
            "reference": "Organization/a4a46751-326b-493f-b044-0c5ef89dfde7"
          }
        ],
        "activity": {
          "text": "Synthetic Example Data Generation"
        },
        "policy": [
          "https://synderai.net/synderai-synthetic-data-policy"
        ],
        "agent": [
          {
            "type": {
              "text": "author"
            },
            "who": {
              "reference": "Device/a0ba7d03-6ef2-4fe6-9f42-386b4504a442"
            }
          }
        ],
        "reason": [
          {
            "text": "Interoperability Testing and Training (non-clinical use)"
          }
        ],
        "text": {
          "status": "generated",
          "div": "<div xmlns=\"http://www.w3.org/1999/xhtml\">Provenance for SYNDERAI Synthetic Example Data Resource</div>"
        },
        "recorded": "2022-02-19T00:08:09Z"
      }
    },
    {
      "fullUrl": "urn:uuid:412fdae9-6f6a-4edb-9b52-7c74a1a87959",
      "resource": {
        "resourceType": "PractitionerRole",
        "id": "412fdae9-6f6a-4edb-9b52-7c74a1a87959",
        "meta": {
          "profile": [
            "http://hl7.eu/fhir/base/StructureDefinition/practitionerRole-eu"
          ]
        },
        "text": {
          "status": "generated",
          "div": "<div xmlns=\"http://www.w3.org/1999/xhtml\">Laboratory Role Id: 412fdae9-6f6a-4edb-9b52-7c74a1a87959</div>"
        },
        "practitioner": {
          "reference": "urn:uuid:073511fd-17bd-44a1-bf6b-9ede3c56de48"
        }
      }
    },
    {
      "fullUrl": "urn:uuid:073511fd-17bd-44a1-bf6b-9ede3c56de48",
      "resource": {
        "resourceType": "Practitioner",
        "id": "073511fd-17bd-44a1-bf6b-9ede3c56de48",
        "meta": {
          "profile": [
            "http://hl7.eu/fhir/base/StructureDefinition/practitioner-eu"
          ]
        },
        "identifier": [
          {
            "assigner": {
              "display": "HL7 Europe"
            },
            "system": "urn:oid:2.16.840.1.113883.2.51.999",
            "value": "1e5b9504-b41e-47ce-8fe5-6680118f5b2b"
          }
        ],
        "name": [
          {
            "prefix": [
              "dr"
            ],
            "given": [
              "Ex"
            ],
            "family": "Ample"
          }
        ],
        "address": [
          {
            "line": [
              "Laboratoire Central Européenne",
              "Boulevard du Jardin Botanique 32"
            ],
            "postalCode": "1000",
            "city": "Brussels",
            "country": "Belgium"
          }
        ],
        "text": {
          "status": "generated",
          "div": "<div xmlns=\"http://www.w3.org/1999/xhtml\">Laboratory: Laboratoire Central Européenne, 1000 Brussels, Belgium</div>"
        }
      }
    }
  ],
  "type": "document",
  "timestamp": "2022-02-19T00:08:09Z"
}
