{
  "resourceType": "Bundle",
  "id": "b8bd34ce-f78a-4c20-b8a1-4afb5451bc67",
  "meta": {
    "profile": [
      "http://hl7.eu/fhir/laboratory/StructureDefinition/Bundle-eu-lab"
    ]
  },
  "identifier": {
    "assigner": {
      "display": "HL7 Europe"
    },
    "system": "urn:oid:2.16.840.1.113883.2.51.999",
    "value": "2749c9c1-4bb1-4a4e-9550-609ce1d24259"
  },
  "entry": [
    {
      "fullUrl": "urn:uuid:26f9081a-28c2-4ca4-b7e3-6dc165c23757",
      "resource": {
        "resourceType": "Composition",
        "id": "26f9081a-28c2-4ca4-b7e3-6dc165c23757",
        "meta": {
          "profile": [
            "http://hl7.eu/fhir/laboratory/StructureDefinition/Composition-eu-lab"
          ]
        },
        "identifier": {
          "assigner": {
            "display": "HL7 Europe"
          },
          "system": "urn:oid:2.16.840.1.113883.2.51.999",
          "value": "15eea710-8d7e-4c20-ac0a-0665b7f30e84"
        },
        "author": [
          {
            "reference": "urn:uuid:e16b5d9d-5dda-402e-a89c-06dc88c45e39"
          }
        ],
        "category": [
          {
            "coding": [
              {
                "code": "26436-6",
                "system": "http://loinc.org",
                "display": "Laboratory studies (set)"
              }
            ]
          }
        ],
        "type": {
          "coding": [
            {
              "code": "11502-2",
              "system": "http://loinc.org",
              "display": "Laboratory report"
            }
          ],
          "text": "Laboratory Report"
        },
        "section": [
          {
            "code": {
              "coding": [
                {
                  "code": "26436-6",
                  "system": "http://loinc.org",
                  "display": "Laboratory studies (set)"
                }
              ],
              "text": "Laboratory studies"
            },
            "section": [
              {
                "code": {
                  "coding": [
                    {
                      "code": "$18719-5",
                      "system": "http://loinc.org",
                      "display": "Chemistry studies (set)"
                    }
                  ],
                  "text": "Chemistry"
                },
                "entry": [
                  {
                    "reference": "urn:uuid:6706d50e-0d56-4540-8d99-e68701ab0dc1"
                  },
                  {
                    "reference": "urn:uuid:0755a3c6-2cdb-4f03-9049-04d757953c89"
                  },
                  {
                    "reference": "urn:uuid:95ed458f-64d4-42a2-97a2-a127faacbbc9"
                  },
                  {
                    "reference": "urn:uuid:ac81102c-30ac-453e-816b-9c11e9ad4f64"
                  },
                  {
                    "reference": "urn:uuid:8ed41d84-8926-4ec8-9a09-d4f75ff11cc1"
                  },
                  {
                    "reference": "urn:uuid:01818818-624d-4b76-bd80-58a8da215c7b"
                  },
                  {
                    "reference": "urn:uuid:01fb42a4-a7aa-4940-9f99-71e1e5e929cf"
                  },
                  {
                    "reference": "urn:uuid:12911ac6-8252-418f-9412-83dd7f60d03a"
                  },
                  {
                    "reference": "urn:uuid:eccaa677-b0cd-471f-bca5-d253a722ad7e"
                  },
                  {
                    "reference": "urn:uuid:05cadcdc-2f66-461b-b80a-8f4a6e13b3d9"
                  },
                  {
                    "reference": "urn:uuid:d39e7135-bb36-4360-be9e-8145777caf7f"
                  },
                  {
                    "reference": "urn:uuid:acf1361d-b974-4637-bdc9-99af99837e9d"
                  },
                  {
                    "reference": "urn:uuid:dad4715e-a987-407c-b733-35768b2d24bd"
                  },
                  {
                    "reference": "urn:uuid:1dc4561d-cbdb-44d7-818d-2b173bd73312"
                  },
                  {
                    "reference": "urn:uuid:5aab4103-1de1-4fee-a758-855b7d86a5cd"
                  },
                  {
                    "reference": "urn:uuid:68aba070-dae4-43fa-9633-035caf97d197"
                  },
                  {
                    "reference": "urn:uuid:21c45a70-2ef1-4455-88c3-c88d4b64733a"
                  },
                  {
                    "reference": "urn:uuid:80dc58fa-e6ea-460f-8378-29d8d6674a16"
                  }
                ],
                "text": {
                  "status": "generated",
                  "div": "<div xmlns=\"http://www.w3.org/1999/xhtml\"><h3>Chemistry</h3><table class=\"hl7__eu__lab__report\"><thead><tr><th>Test</th><th>16-MAY-2024</th><th>Reference&#xA0;Range</th><th>Unit</th></tr></thead><tbody><tr><td>Glucose [Mass/volume] in Serum or Plasma</td><td>87.4</td><td>70 - 139</td><td>mg/dL</td></tr><tr><td>Urea nitrogen [Mass/volume] in Serum or Plasma</td><td>19.9</td><td>7 - 20</td><td>mg/dL</td></tr><tr><td>Creatinine [Mass/volume] in Serum or Plasma</td><td><strong>1.9 H</strong></td><td>0.6 - 1.1</td><td>mg/dL</td></tr><tr><td>Calcium [Mass/volume] in Serum or Plasma</td><td>9.1</td><td>8.5 - 10.4</td><td>mg/dL</td></tr><tr><td>Sodium [Moles/volume] in Serum or Plasma</td><td>140.9</td><td>135 - 145</td><td>mmol/L</td></tr><tr><td>Potassium [Moles/volume] in Serum or Plasma</td><td>4.1</td><td>3.5 - 5.1</td><td>mmol/L</td></tr><tr><td>Chloride [Moles/volume] in Serum or Plasma</td><td>107.9</td><td>98 - 110</td><td>mmol/L</td></tr><tr><td>Carbon dioxide, total [Moles/volume] in Serum or Plasma</td><td>27.2</td><td>22 - 32</td><td>mmol/L</td></tr><tr><td>Ketones [Presence] in Urine by Test strip</td><td>Urine ketone test = +</td><td></td><td></td></tr><tr><td>Hemoglobin A1c/Hemoglobin.total in Blood</td><td><strong>2.9 L</strong></td><td>4 - 6</td><td>%</td></tr><tr><td>Glucose [Mass/volume] in Blood</td><td>87.4</td><td>70 - 100</td><td>mg/dL</td></tr><tr><td>Urea nitrogen [Mass/volume] in Blood</td><td>19.9</td><td>7 - 20</td><td>mg/dL</td></tr><tr><td>Creatinine [Mass/volume] in Blood</td><td><strong>2.0 H</strong></td><td>0.6 - 1.3</td><td>mg/dL</td></tr><tr><td>Calcium [Mass/volume] in Blood</td><td>9.1</td><td>8.6 - 10.4</td><td>mg/dL</td></tr><tr><td>Sodium [Moles/volume] in Blood</td><td>140.9</td><td>135 - 145</td><td>mmol/L</td></tr><tr><td>Potassium [Moles/volume] in Blood</td><td>4.1</td><td>3.5 - 5.1</td><td>mmol/L</td></tr><tr><td>Chloride [Moles/volume] in Blood</td><td>107.9</td><td>98 - 110</td><td>mmol/L</td></tr><tr><td>Carbon dioxide, total [Moles/volume] in Blood</td><td>27.2</td><td>22 - 29</td><td>mmol/L</td></tr></tbody></table></div>"
                },
                "title": "Chemistry"
              },
              {
                "code": {
                  "coding": [
                    {
                      "code": "$18729-4",
                      "system": "http://loinc.org",
                      "display": "Urinalysis studies (set)"
                    }
                  ],
                  "text": "Urinalysis"
                },
                "entry": [
                  {
                    "reference": "urn:uuid:70edd1c8-a716-4a4d-aebb-f71dc2d9f620"
                  },
                  {
                    "reference": "urn:uuid:2be4d6c2-fb00-4003-a2c9-2b818ea33e09"
                  },
                  {
                    "reference": "urn:uuid:74d7c30c-25f3-442d-aa0b-3f157ea323d3"
                  },
                  {
                    "reference": "urn:uuid:e1b85420-05d3-4a40-bd15-9f7151070b99"
                  },
                  {
                    "reference": "urn:uuid:13d6c04c-9b64-4b97-8d6c-7401795b237b"
                  },
                  {
                    "reference": "urn:uuid:d7d60884-1676-4a37-91a6-42717553b4fb"
                  },
                  {
                    "reference": "urn:uuid:f99f482e-c40b-414e-ac89-3080d0503be5"
                  },
                  {
                    "reference": "urn:uuid:e76a4e04-1daa-405c-9d9f-daad25b24080"
                  },
                  {
                    "reference": "urn:uuid:ec60a809-481a-48ee-afcc-808d2f1efe2e"
                  },
                  {
                    "reference": "urn:uuid:da15ae54-eb32-4a92-b7af-e8cb780fe5e0"
                  },
                  {
                    "reference": "urn:uuid:005575ef-4233-48e3-a2b3-b4c3cd486b13"
                  },
                  {
                    "reference": "urn:uuid:36e0fee0-3b27-4467-912d-77d8feae9a59"
                  }
                ],
                "text": {
                  "status": "generated",
                  "div": "<div xmlns=\"http://www.w3.org/1999/xhtml\"><h3>Urinalysis</h3><table class=\"hl7__eu__lab__report\"><thead><tr><th>Test</th><th>16-MAY-2024</th><th>Reference&#xA0;Range</th><th>Unit</th></tr></thead><tbody><tr><td>Glucose [Mass/volume] in Urine by Test strip</td><td><strong>1.2 H</strong></td><td>0 - 0</td><td>mg/dL</td></tr><tr><td>Glucose [Presence] in Urine by Test strip</td><td>++</td><td></td><td></td></tr><tr><td>Bilirubin.total [Mass/volume] in Urine by Test strip</td><td>0.2</td><td>0 - 1.6</td><td>mg/dL</td></tr><tr><td>Bilirubin.total [Presence] in Urine by Test strip</td><td>Finding of bilirubin in urine</td><td></td><td></td></tr><tr><td>Ketones [Mass/volume] in Urine by Test strip</td><td><strong>16.5 H</strong></td><td>0 - 0.5</td><td>mg/dL</td></tr><tr><td>Specific gravity of Urine by Test strip</td><td><strong>1.0 L</strong></td><td>1.005 - 1.03</td><td>{nominal}</td></tr><tr><td>pH of Urine by Test strip</td><td>6.6</td><td>4.5 - 7.5</td><td>pH</td></tr><tr><td>Protein [Mass/volume] in Urine by Test strip</td><td><strong>200.3 H</strong></td><td>0 - 15</td><td>mg/dL</td></tr><tr><td>Protein [Presence] in Urine by Test strip</td><td>Urine protein test = ++</td><td></td><td></td></tr><tr><td>Nitrite [Presence] in Urine by Test strip</td><td>Urine nitrite negative</td><td></td><td></td></tr><tr><td>Hemoglobin [Presence] in Urine by Test strip</td><td>Urine blood test = negative</td><td></td><td></td></tr><tr><td>Leukocyte esterase [Presence] in Urine by Test strip</td><td>Urine leukocyte test negative</td><td></td><td></td></tr></tbody></table></div>"
                },
                "title": "Urinalysis"
              },
              {
                "code": {
                  "coding": [
                    {
                      "code": "$LP7846-1",
                      "system": "http://loinc.org",
                      "display": "Specimen information"
                    }
                  ],
                  "text": "Specimen information"
                },
                "entry": [
                  {
                    "reference": "urn:uuid:db2c9b48-fa68-496f-b078-38335a83627a"
                  },
                  {
                    "reference": "urn:uuid:adafd44a-4758-4e42-8c26-a04193841e2b"
                  },
                  {
                    "reference": "urn:uuid:e2cd50f7-331f-446e-8c8e-9bffec1a0a32"
                  },
                  {
                    "reference": "urn:uuid:c00758d2-a4c1-4a04-b6c5-07e4f8643e5b"
                  }
                ],
                "text": {
                  "status": "generated",
                  "div": "<div xmlns=\"http://www.w3.org/1999/xhtml\"><h3>Specimen information</h3><table class=\"hl7__eu__lab__report\"><thead><tr><th>Test</th><th>16-MAY-2024</th><th>Specimen</th><th></th></tr></thead><tbody><tr><td>Appearance of Urine</td><td>Cloudy urine</td><td>Urine</td><td></td></tr><tr><td>Odor of Urine</td><td>Urine smell ammoniacal</td><td>Urine</td><td></td></tr><tr><td>Clarity of Urine</td><td>Translucent</td><td>Urine</td><td></td></tr><tr><td>Color of Urine</td><td>Brown color</td><td>Urine</td><td></td></tr></tbody></table></div>"
                },
                "title": "Specimen information"
              }
            ],
            "title": "Laboratory Report"
          },
          {
            "text": {
              "status": "generated",
              "div": "<div xmlns=\"http://www.w3.org/1999/xhtml\"><h3>Annotation</h3><table class=\"hl7__eu__lab__report\"><tr><th>Conclusion and Recommendations based on this report and previous findings known to us</th></tr><tr><td>The patient shows elevated creatinine, significant proteinuria, glucosuria, and ketonuria, with low urine specific gravity and brown, cloudy urine. These findings suggest impaired renal function, possible nephrotic syndrome or diabetic ketoacidosis, though HbA1c is unexpectedly low. No evidence of urinary tract infection. Recommend urgent clinical correlation for acute or chronic kidney disease and further evaluation of metabolic status.</td></tr></table></div>"
            },
            "code": {
              "coding": [
                {
                  "system": "http://loinc.org",
                  "code": "48767-8",
                  "display": "Annotation comment"
                }
              ]
            },
            "title": "Annotation comment"
          }
        ],
        "status": "final",
        "subject": {
          "reference": "urn:uuid:40a2f46f-bac1-466f-b795-d5c4c3b63b16",
          "display": "Molly Jenkins"
        },
        "date": "2024-05-16T16:42:11Z",
        "title": "Laboratory Report",
        "confidentiality": "N"
      }
    },
    {
      "fullUrl": "urn:uuid:fd4c520c-5092-42fe-b80b-07b085f77932",
      "resource": {
        "resourceType": "DiagnosticReport",
        "id": "fd4c520c-5092-42fe-b80b-07b085f77932",
        "meta": {
          "profile": [
            "http://hl7.eu/fhir/laboratory/StructureDefinition/DiagnosticReport-eu-lab"
          ]
        },
        "identifier": [
          {
            "assigner": {
              "display": "HL7 Europe"
            },
            "system": "urn:oid:2.16.840.1.113883.2.51.999",
            "value": "01765197-5931-4a58-b4ce-aac125ec38e8"
          }
        ],
        "extension": [
          {
            "url": "http://hl7.org/fhir/5.0/StructureDefinition/extension-DiagnosticReport.composition",
            "valueReference": {
              "reference": "urn:uuid:15eea710-8d7e-4c20-ac0a-0665b7f30e84"
            }
          }
        ],
        "category": [
          {
            "coding": [
              {
                "code": "26436-6",
                "system": "http://loinc.org",
                "display": "Laboratory studies (set)"
              }
            ]
          }
        ],
        "specimen": [
          {
            "reference": "urn:uuid:2fbf32fc-56f5-48cb-a29a-f8b46ece78ef"
          },
          {
            "reference": "urn:uuid:b07030e5-7fe1-4a01-88e4-fa4b312d537c"
          },
          {
            "reference": "urn:uuid:1e8446a0-e062-4877-893a-2ae989b17624"
          }
        ],
        "result": [
          {
            "reference": "urn:uuid:6706d50e-0d56-4540-8d99-e68701ab0dc1"
          },
          {
            "reference": "urn:uuid:0755a3c6-2cdb-4f03-9049-04d757953c89"
          },
          {
            "reference": "urn:uuid:95ed458f-64d4-42a2-97a2-a127faacbbc9"
          },
          {
            "reference": "urn:uuid:ac81102c-30ac-453e-816b-9c11e9ad4f64"
          },
          {
            "reference": "urn:uuid:8ed41d84-8926-4ec8-9a09-d4f75ff11cc1"
          },
          {
            "reference": "urn:uuid:01818818-624d-4b76-bd80-58a8da215c7b"
          },
          {
            "reference": "urn:uuid:01fb42a4-a7aa-4940-9f99-71e1e5e929cf"
          },
          {
            "reference": "urn:uuid:12911ac6-8252-418f-9412-83dd7f60d03a"
          },
          {
            "reference": "urn:uuid:db2c9b48-fa68-496f-b078-38335a83627a"
          },
          {
            "reference": "urn:uuid:adafd44a-4758-4e42-8c26-a04193841e2b"
          },
          {
            "reference": "urn:uuid:e2cd50f7-331f-446e-8c8e-9bffec1a0a32"
          },
          {
            "reference": "urn:uuid:c00758d2-a4c1-4a04-b6c5-07e4f8643e5b"
          },
          {
            "reference": "urn:uuid:70edd1c8-a716-4a4d-aebb-f71dc2d9f620"
          },
          {
            "reference": "urn:uuid:2be4d6c2-fb00-4003-a2c9-2b818ea33e09"
          },
          {
            "reference": "urn:uuid:74d7c30c-25f3-442d-aa0b-3f157ea323d3"
          },
          {
            "reference": "urn:uuid:e1b85420-05d3-4a40-bd15-9f7151070b99"
          },
          {
            "reference": "urn:uuid:13d6c04c-9b64-4b97-8d6c-7401795b237b"
          },
          {
            "reference": "urn:uuid:eccaa677-b0cd-471f-bca5-d253a722ad7e"
          },
          {
            "reference": "urn:uuid:d7d60884-1676-4a37-91a6-42717553b4fb"
          },
          {
            "reference": "urn:uuid:f99f482e-c40b-414e-ac89-3080d0503be5"
          },
          {
            "reference": "urn:uuid:e76a4e04-1daa-405c-9d9f-daad25b24080"
          },
          {
            "reference": "urn:uuid:ec60a809-481a-48ee-afcc-808d2f1efe2e"
          },
          {
            "reference": "urn:uuid:da15ae54-eb32-4a92-b7af-e8cb780fe5e0"
          },
          {
            "reference": "urn:uuid:005575ef-4233-48e3-a2b3-b4c3cd486b13"
          },
          {
            "reference": "urn:uuid:36e0fee0-3b27-4467-912d-77d8feae9a59"
          },
          {
            "reference": "urn:uuid:05cadcdc-2f66-461b-b80a-8f4a6e13b3d9"
          },
          {
            "reference": "urn:uuid:d39e7135-bb36-4360-be9e-8145777caf7f"
          },
          {
            "reference": "urn:uuid:acf1361d-b974-4637-bdc9-99af99837e9d"
          },
          {
            "reference": "urn:uuid:dad4715e-a987-407c-b733-35768b2d24bd"
          },
          {
            "reference": "urn:uuid:1dc4561d-cbdb-44d7-818d-2b173bd73312"
          },
          {
            "reference": "urn:uuid:5aab4103-1de1-4fee-a758-855b7d86a5cd"
          },
          {
            "reference": "urn:uuid:68aba070-dae4-43fa-9633-035caf97d197"
          },
          {
            "reference": "urn:uuid:21c45a70-2ef1-4455-88c3-c88d4b64733a"
          },
          {
            "reference": "urn:uuid:80dc58fa-e6ea-460f-8378-29d8d6674a16"
          }
        ],
        "status": "registered",
        "code": {
          "coding": [
            {
              "code": "11502-2",
              "system": "http://loinc.org",
              "display": "Laboratory report"
            }
          ]
        },
        "subject": {
          "reference": "urn:uuid:40a2f46f-bac1-466f-b795-d5c4c3b63b16",
          "display": "Molly Jenkins"
        }
      }
    },
    {
      "fullUrl": "urn:uuid:40a2f46f-bac1-466f-b795-d5c4c3b63b16",
      "resource": {
        "resourceType": "Patient",
        "id": "40a2f46f-bac1-466f-b795-d5c4c3b63b16",
        "meta": {
          "security": [
            {
              "system": "http://terminology.hl7.org/CodeSystem/v3-ActReason",
              "code": "HTEST"
            },
            {
              "system": "http://terminology.hl7.org/CodeSystem/v3-ActReason",
              "code": "TRAIN"
            }
          ],
          "tag": [
            {
              "system": "https://synderai.net/fhir/CodeSystem/tags",
              "code": "synthetic",
              "display": "SYNDERAI Synthetic data"
            }
          ],
          "profile": [
            "http://hl7.eu/fhir/base/StructureDefinition/patient-eu-core"
          ]
        },
        "identifier": [
          {
            "type": {
              "coding": [
                {
                  "code": "PT",
                  "system": "http://terminology.hl7.org/CodeSystem/v2-0203"
                }
              ]
            },
            "system": "http://ec.europa.eu/identifier/eci",
            "value": "7634-012682-0"
          },
          {
            "type": {
              "coding": [
                {
                  "code": "MR",
                  "system": "http://terminology.hl7.org/CodeSystem/v2-0203"
                }
              ]
            },
            "system": "http://local.setting.eu/identifier",
            "value": "9934a8eb-b6e1-34e1-edf5-57a0262d1bea"
          }
        ],
        "name": [
          {
            "family": "Jenkins"
          },
          {
            "given": [
              "Molly"
            ]
          },
          {
            "text": "Molly Jenkins"
          }
        ],
        "address": [
          {
            "line": [
              "98 Ali field"
            ],
            "use": "home",
            "type": "physical",
            "postalCode": "AB42",
            "city": "Port Jennamouth",
            "country": "United Kingdom"
          }
        ],
        "telecom": [
          {
            "system": "phone",
            "value": "(0118) 496 0334"
          }
        ],
        "extension": [
          {
            "url": "http://hl7.org/fhir/StructureDefinition/patient-nationality",
            "valueCodeableConcept": {
              "coding": [
                {
                  "code": "GB",
                  "system": "http://hl7.org/fhir/ValueSet/country"
                }
              ]
            }
          }
        ],
        "text": {
          "status": "generated",
          "div": "<div xmlns=\"http://www.w3.org/1999/xhtml\"><table class=\"hl7__ips\"><tr><td>Molly Jenkins</td><td>female</td><td>14-Aug-1967</td></tr></table></div>"
        },
        "gender": "female",
        "birthDate": "1967-08-14"
      }
    },
    {
      "fullUrl": "urn:uuid:baad2047-69eb-4105-8a9a-7a53ef4fd2e8",
      "resource": {
        "resourceType": "ServiceRequest",
        "id": "baad2047-69eb-4105-8a9a-7a53ef4fd2e8",
        "meta": {
          "profile": [
            "http://hl7.eu/fhir/laboratory/StructureDefinition/ServiceRequest-eu-lab"
          ]
        },
        "identifier": [
          {
            "system": "http://example.org",
            "value": "fd105cbc-ccfb-458a-bbf6-56cff54759a5"
          }
        ],
        "specimen": [
          {
            "reference": "urn:uuid:2fbf32fc-56f5-48cb-a29a-f8b46ece78ef"
          },
          {
            "reference": "urn:uuid:b07030e5-7fe1-4a01-88e4-fa4b312d537c"
          },
          {
            "reference": "urn:uuid:1e8446a0-e062-4877-893a-2ae989b17624"
          }
        ],
        "reasonCode": [
          {
            "coding": [
              {
                "code": "431856006",
                "system": "http://snomed.info/sct",
                "display": "Chronic kidney disease stage 2"
              }
            ]
          },
          {
            "coding": [
              {
                "code": "90781000119102",
                "system": "http://snomed.info/sct",
                "display": "Microalbuminuria due to type 2 diabetes mellitus"
              }
            ]
          },
          {
            "coding": [
              {
                "code": "127013003",
                "system": "http://snomed.info/sct",
                "display": "Disorder of kidney due to diabetes mellitus"
              }
            ]
          },
          {
            "coding": [
              {
                "code": "431855005",
                "system": "http://snomed.info/sct",
                "display": "Chronic kidney disease stage 1"
              }
            ]
          },
          {
            "coding": [
              {
                "code": "15777000",
                "system": "http://snomed.info/sct",
                "display": "Prediabetes"
              }
            ]
          },
          {
            "coding": [
              {
                "code": "59621000",
                "system": "http://snomed.info/sct",
                "display": "Essential hypertension"
              }
            ]
          },
          {
            "coding": [
              {
                "code": "53827007",
                "system": "http://snomed.info/sct",
                "display": "Excessive salivation"
              }
            ]
          },
          {
            "coding": [
              {
                "code": "64859006",
                "system": "http://snomed.info/sct",
                "display": "Osteoporosis"
              }
            ]
          },
          {
            "coding": [
              {
                "code": "128188000",
                "system": "http://snomed.info/sct",
                "display": "Cerebral palsy"
              }
            ]
          },
          {
            "coding": [
              {
                "code": "235595009",
                "system": "http://snomed.info/sct",
                "display": "Gastroesophageal reflux disease"
              }
            ]
          }
        ],
        "status": "active",
        "intent": "order",
        "code": {
          "coding": [
            {
              "code": "108252007",
              "system": "http://snomed.info/sct",
              "display": "Laboratory procedure"
            }
          ]
        },
        "subject": {
          "reference": "urn:uuid:40a2f46f-bac1-466f-b795-d5c4c3b63b16",
          "display": "Molly Jenkins"
        },
        "requester": {
          "reference": "urn:uuid:84a84aee-d7f9-4f2e-b93c-83ca084afd1a"
        }
      }
    },
    {
      "fullUrl": "urn:uuid:84a84aee-d7f9-4f2e-b93c-83ca084afd1a",
      "resource": {
        "resourceType": "PractitionerRole",
        "id": "84a84aee-d7f9-4f2e-b93c-83ca084afd1a",
        "meta": {
          "profile": [
            "http://hl7.eu/fhir/base/StructureDefinition/practitionerRole-eu"
          ]
        },
        "text": {
          "status": "generated",
          "div": "<div xmlns=\"http://www.w3.org/1999/xhtml\">Provider Role Id: 84a84aee-d7f9-4f2e-b93c-83ca084afd1a</div>"
        },
        "organization": {
          "reference": "urn:uuid:ef53f14c-b0cd-4c41-86f7-fb3be61b417e"
        }
      }
    },
    {
      "fullUrl": "urn:uuid:ef53f14c-b0cd-4c41-86f7-fb3be61b417e",
      "resource": {
        "resourceType": "Organization",
        "id": "ef53f14c-b0cd-4c41-86f7-fb3be61b417e",
        "meta": {
          "profile": [
            "http://hl7.eu/fhir/base/StructureDefinition/organization-eu"
          ]
        },
        "identifier": [
          {
            "assigner": {
              "display": "HL7 Europe"
            },
            "system": "urn:oid:2.16.840.1.113883.2.51.999",
            "value": "2450231c-2ae4-4d29-a380-4ef5eebf3ca9"
          }
        ],
        "address": [
          {
            "city": "Aberdeen",
            "postalCode": "AB11 6",
            "country": "United Kingdom"
          }
        ],
        "text": {
          "status": "generated",
          "div": "<div xmlns=\"http://www.w3.org/1999/xhtml\">Provider Organization: Aberdeen Community Health and Care Village</div>"
        },
        "name": "Aberdeen Community Health and Care Village"
      }
    },
    {
      "fullUrl": "urn:uuid:2fbf32fc-56f5-48cb-a29a-f8b46ece78ef",
      "resource": {
        "resourceType": "Specimen",
        "id": "2fbf32fc-56f5-48cb-a29a-f8b46ece78ef",
        "meta": {
          "profile": [
            "http://hl7.eu/fhir/laboratory/StructureDefinition/Specimen-eu-lab"
          ]
        },
        "collection": {
          "collectedDateTime": "2024-05-16"
        },
        "text": {
          "status": "generated",
          "div": "<div xmlns=\"http://www.w3.org/1999/xhtml\"><table class=\"hl7__eu__lab__report\"><tr><th>Specimen</th><th>Collection Date</th></tr><tr><td>Acellular blood (serum or plasma) specimen</td><td><span class=\"nb\">16-May-2024</span></td></tr></table></div>"
        },
        "type": {
          "coding": [
            {
              "code": "122592007",
              "system": "http://snomed.info/sct",
              "display": "Acellular blood (serum or plasma) specimen"
            }
          ]
        }
      }
    },
    {
      "fullUrl": "urn:uuid:b07030e5-7fe1-4a01-88e4-fa4b312d537c",
      "resource": {
        "resourceType": "Specimen",
        "id": "b07030e5-7fe1-4a01-88e4-fa4b312d537c",
        "meta": {
          "profile": [
            "http://hl7.eu/fhir/laboratory/StructureDefinition/Specimen-eu-lab"
          ]
        },
        "collection": {
          "collectedDateTime": "2024-05-16"
        },
        "text": {
          "status": "generated",
          "div": "<div xmlns=\"http://www.w3.org/1999/xhtml\"><table class=\"hl7__eu__lab__report\"><tr><th>Specimen</th><th>Collection Date</th></tr><tr><td>Urine specimen</td><td><span class=\"nb\">16-May-2024</span></td></tr></table></div>"
        },
        "type": {
          "coding": [
            {
              "code": "122575003",
              "system": "http://snomed.info/sct",
              "display": "Urine specimen"
            }
          ]
        }
      }
    },
    {
      "fullUrl": "urn:uuid:1e8446a0-e062-4877-893a-2ae989b17624",
      "resource": {
        "resourceType": "Specimen",
        "id": "1e8446a0-e062-4877-893a-2ae989b17624",
        "meta": {
          "profile": [
            "http://hl7.eu/fhir/laboratory/StructureDefinition/Specimen-eu-lab"
          ]
        },
        "collection": {
          "collectedDateTime": "2024-05-16"
        },
        "text": {
          "status": "generated",
          "div": "<div xmlns=\"http://www.w3.org/1999/xhtml\"><table class=\"hl7__eu__lab__report\"><tr><th>Specimen</th><th>Collection Date</th></tr><tr><td>Whole blood specimen (specimen)</td><td><span class=\"nb\">16-May-2024</span></td></tr></table></div>"
        },
        "type": {
          "coding": [
            {
              "code": "258580003",
              "system": "http://snomed.info/sct",
              "display": "Whole blood specimen (specimen)"
            }
          ]
        }
      }
    },
    {
      "fullUrl": "urn:uuid:6706d50e-0d56-4540-8d99-e68701ab0dc1",
      "resource": {
        "resourceType": "Observation",
        "id": "6706d50e-0d56-4540-8d99-e68701ab0dc1",
        "meta": {
          "profile": [
            "http://hl7.eu/fhir/laboratory/StructureDefinition/Observation-resultslab-eu-lab"
          ]
        },
        "performer": [
          {
            "display": "The Central European Lab"
          }
        ],
        "category": [
          {
            "coding": [
              {
                "system": "http://terminology.hl7.org/CodeSystem/observation-category",
                "code": "laboratory"
              }
            ]
          }
        ],
        "code": {
          "coding": [
            {
              "code": "2345-7",
              "system": "http://loinc.org",
              "display": "Glucose [Mass/volume] in Serum or Plasma"
            }
          ],
          "text": "Glucose [Mass/volume] in Serum or Plasma"
        },
        "valueQuantity": {
          "system": "http://unitsofmeasure.org",
          "value": 87.4,
          "unit": "mg/dL",
          "code": "mg/dL"
        },
        "referenceRange": [
          {
            "low": {
              "value": 70,
              "code": "mg/dL",
              "system": "http://unitsofmeasure.org"
            }
          },
          {
            "high": {
              "value": 139,
              "code": "mg/dL",
              "system": "http://unitsofmeasure.org"
            }
          }
        ],
        "text": {
          "status": "generated",
          "div": "<div xmlns=\"http://www.w3.org/1999/xhtml\"><table class=\"hl7__eu__lab__report\"><tr><th>Test</th><th>16-May-2024</th><th>Reference&#xA0;Range</th><th>Unit</th></tr><tr><td>Glucose [Mass/volume] in Serum or Plasma</td><td>87.4</td><td>70 - 139</td><td></td><td>mg/dL</td></tr></table></div>"
        },
        "status": "final",
        "subject": {
          "reference": "urn:uuid:40a2f46f-bac1-466f-b795-d5c4c3b63b16",
          "display": "Molly Jenkins"
        },
        "effectiveDateTime": "2024-05-16T14:42:11Z",
        "specimen": {
          "reference": "urn:uuid:2fbf32fc-56f5-48cb-a29a-f8b46ece78ef"
        }
      }
    },
    {
      "fullUrl": "urn:uuid:0755a3c6-2cdb-4f03-9049-04d757953c89",
      "resource": {
        "resourceType": "Observation",
        "id": "0755a3c6-2cdb-4f03-9049-04d757953c89",
        "meta": {
          "profile": [
            "http://hl7.eu/fhir/laboratory/StructureDefinition/Observation-resultslab-eu-lab"
          ]
        },
        "performer": [
          {
            "display": "The Central European Lab"
          }
        ],
        "category": [
          {
            "coding": [
              {
                "system": "http://terminology.hl7.org/CodeSystem/observation-category",
                "code": "laboratory"
              }
            ]
          }
        ],
        "code": {
          "coding": [
            {
              "code": "3094-0",
              "system": "http://loinc.org",
              "display": "Urea nitrogen [Mass/volume] in Serum or Plasma"
            }
          ],
          "text": "Urea nitrogen [Mass/volume] in Serum or Plasma"
        },
        "valueQuantity": {
          "system": "http://unitsofmeasure.org",
          "value": 19.9,
          "unit": "mg/dL",
          "code": "mg/dL"
        },
        "referenceRange": [
          {
            "low": {
              "value": 7,
              "code": "mg/dL",
              "system": "http://unitsofmeasure.org"
            }
          },
          {
            "high": {
              "value": 20,
              "code": "mg/dL",
              "system": "http://unitsofmeasure.org"
            }
          }
        ],
        "text": {
          "status": "generated",
          "div": "<div xmlns=\"http://www.w3.org/1999/xhtml\"><table class=\"hl7__eu__lab__report\"><tr><th>Test</th><th>16-May-2024</th><th>Reference&#xA0;Range</th><th>Unit</th></tr><tr><td>Urea nitrogen [Mass/volume] in Serum or Plasma</td><td>19.9</td><td>7 - 20</td><td></td><td>mg/dL</td></tr></table></div>"
        },
        "status": "final",
        "subject": {
          "reference": "urn:uuid:40a2f46f-bac1-466f-b795-d5c4c3b63b16",
          "display": "Molly Jenkins"
        },
        "effectiveDateTime": "2024-05-16T14:42:11Z",
        "specimen": {
          "reference": "urn:uuid:2fbf32fc-56f5-48cb-a29a-f8b46ece78ef"
        }
      }
    },
    {
      "fullUrl": "urn:uuid:95ed458f-64d4-42a2-97a2-a127faacbbc9",
      "resource": {
        "resourceType": "Observation",
        "id": "95ed458f-64d4-42a2-97a2-a127faacbbc9",
        "meta": {
          "profile": [
            "http://hl7.eu/fhir/laboratory/StructureDefinition/Observation-resultslab-eu-lab"
          ]
        },
        "performer": [
          {
            "display": "The Central European Lab"
          }
        ],
        "category": [
          {
            "coding": [
              {
                "system": "http://terminology.hl7.org/CodeSystem/observation-category",
                "code": "laboratory"
              }
            ]
          }
        ],
        "code": {
          "coding": [
            {
              "code": "2160-0",
              "system": "http://loinc.org",
              "display": "Creatinine [Mass/volume] in Serum or Plasma"
            }
          ],
          "text": "Creatinine [Mass/volume] in Serum or Plasma"
        },
        "valueQuantity": {
          "system": "http://unitsofmeasure.org",
          "value": 1.9,
          "unit": "mg/dL",
          "code": "mg/dL"
        },
        "referenceRange": [
          {
            "low": {
              "value": 0.6,
              "code": "mg/dL",
              "system": "http://unitsofmeasure.org"
            }
          },
          {
            "high": {
              "value": 1.1,
              "code": "mg/dL",
              "system": "http://unitsofmeasure.org"
            }
          }
        ],
        "interpretation": [
          {
            "coding": [
              {
                "code": "H",
                "system": "http://terminology.hl7.org/CodeSystem/v3-ObservationInterpretation",
                "display": "High"
              }
            ]
          }
        ],
        "text": {
          "status": "generated",
          "div": "<div xmlns=\"http://www.w3.org/1999/xhtml\"><table class=\"hl7__eu__lab__report\"><tr><th>Test</th><th>16-May-2024</th><th>Reference&#xA0;Range</th><th>Unit</th></tr><tr><td>Creatinine [Mass/volume] in Serum or Plasma</td><td>1.9</td><td>0.6 - 1.1</td><td>H</td><td>mg/dL</td></tr></table></div>"
        },
        "status": "final",
        "subject": {
          "reference": "urn:uuid:40a2f46f-bac1-466f-b795-d5c4c3b63b16",
          "display": "Molly Jenkins"
        },
        "effectiveDateTime": "2024-05-16T14:42:11Z",
        "specimen": {
          "reference": "urn:uuid:2fbf32fc-56f5-48cb-a29a-f8b46ece78ef"
        }
      }
    },
    {
      "fullUrl": "urn:uuid:ac81102c-30ac-453e-816b-9c11e9ad4f64",
      "resource": {
        "resourceType": "Observation",
        "id": "ac81102c-30ac-453e-816b-9c11e9ad4f64",
        "meta": {
          "profile": [
            "http://hl7.eu/fhir/laboratory/StructureDefinition/Observation-resultslab-eu-lab"
          ]
        },
        "performer": [
          {
            "display": "The Central European Lab"
          }
        ],
        "category": [
          {
            "coding": [
              {
                "system": "http://terminology.hl7.org/CodeSystem/observation-category",
                "code": "laboratory"
              }
            ]
          }
        ],
        "code": {
          "coding": [
            {
              "code": "17861-6",
              "system": "http://loinc.org",
              "display": "Calcium [Mass/volume] in Serum or Plasma"
            }
          ],
          "text": "Calcium [Mass/volume] in Serum or Plasma"
        },
        "valueQuantity": {
          "system": "http://unitsofmeasure.org",
          "value": 9.1,
          "unit": "mg/dL",
          "code": "mg/dL"
        },
        "referenceRange": [
          {
            "low": {
              "value": 8.5,
              "code": "mg/dL",
              "system": "http://unitsofmeasure.org"
            }
          },
          {
            "high": {
              "value": 10.4,
              "code": "mg/dL",
              "system": "http://unitsofmeasure.org"
            }
          }
        ],
        "text": {
          "status": "generated",
          "div": "<div xmlns=\"http://www.w3.org/1999/xhtml\"><table class=\"hl7__eu__lab__report\"><tr><th>Test</th><th>16-May-2024</th><th>Reference&#xA0;Range</th><th>Unit</th></tr><tr><td>Calcium [Mass/volume] in Serum or Plasma</td><td>9.1</td><td>8.5 - 10.4</td><td></td><td>mg/dL</td></tr></table></div>"
        },
        "status": "final",
        "subject": {
          "reference": "urn:uuid:40a2f46f-bac1-466f-b795-d5c4c3b63b16",
          "display": "Molly Jenkins"
        },
        "effectiveDateTime": "2024-05-16T14:42:11Z",
        "specimen": {
          "reference": "urn:uuid:2fbf32fc-56f5-48cb-a29a-f8b46ece78ef"
        }
      }
    },
    {
      "fullUrl": "urn:uuid:8ed41d84-8926-4ec8-9a09-d4f75ff11cc1",
      "resource": {
        "resourceType": "Observation",
        "id": "8ed41d84-8926-4ec8-9a09-d4f75ff11cc1",
        "meta": {
          "profile": [
            "http://hl7.eu/fhir/laboratory/StructureDefinition/Observation-resultslab-eu-lab"
          ]
        },
        "performer": [
          {
            "display": "The Central European Lab"
          }
        ],
        "category": [
          {
            "coding": [
              {
                "system": "http://terminology.hl7.org/CodeSystem/observation-category",
                "code": "laboratory"
              }
            ]
          }
        ],
        "code": {
          "coding": [
            {
              "code": "2951-2",
              "system": "http://loinc.org",
              "display": "Sodium [Moles/volume] in Serum or Plasma"
            }
          ],
          "text": "Sodium [Moles/volume] in Serum or Plasma"
        },
        "valueQuantity": {
          "system": "http://unitsofmeasure.org",
          "value": 140.9,
          "unit": "mmol/L",
          "code": "mmol/L"
        },
        "referenceRange": [
          {
            "low": {
              "value": 135,
              "code": "mmol/L",
              "system": "http://unitsofmeasure.org"
            }
          },
          {
            "high": {
              "value": 145,
              "code": "mmol/L",
              "system": "http://unitsofmeasure.org"
            }
          }
        ],
        "text": {
          "status": "generated",
          "div": "<div xmlns=\"http://www.w3.org/1999/xhtml\"><table class=\"hl7__eu__lab__report\"><tr><th>Test</th><th>16-May-2024</th><th>Reference&#xA0;Range</th><th>Unit</th></tr><tr><td>Sodium [Moles/volume] in Serum or Plasma</td><td>140.9</td><td>135 - 145</td><td></td><td>mmol/L</td></tr></table></div>"
        },
        "status": "final",
        "subject": {
          "reference": "urn:uuid:40a2f46f-bac1-466f-b795-d5c4c3b63b16",
          "display": "Molly Jenkins"
        },
        "effectiveDateTime": "2024-05-16T14:42:11Z",
        "specimen": {
          "reference": "urn:uuid:2fbf32fc-56f5-48cb-a29a-f8b46ece78ef"
        }
      }
    },
    {
      "fullUrl": "urn:uuid:01818818-624d-4b76-bd80-58a8da215c7b",
      "resource": {
        "resourceType": "Observation",
        "id": "01818818-624d-4b76-bd80-58a8da215c7b",
        "meta": {
          "profile": [
            "http://hl7.eu/fhir/laboratory/StructureDefinition/Observation-resultslab-eu-lab"
          ]
        },
        "performer": [
          {
            "display": "The Central European Lab"
          }
        ],
        "category": [
          {
            "coding": [
              {
                "system": "http://terminology.hl7.org/CodeSystem/observation-category",
                "code": "laboratory"
              }
            ]
          }
        ],
        "code": {
          "coding": [
            {
              "code": "2823-3",
              "system": "http://loinc.org",
              "display": "Potassium [Moles/volume] in Serum or Plasma"
            }
          ],
          "text": "Potassium [Moles/volume] in Serum or Plasma"
        },
        "valueQuantity": {
          "system": "http://unitsofmeasure.org",
          "value": 4.1,
          "unit": "mmol/L",
          "code": "mmol/L"
        },
        "referenceRange": [
          {
            "low": {
              "value": 3.5,
              "code": "mmol/L",
              "system": "http://unitsofmeasure.org"
            }
          },
          {
            "high": {
              "value": 5.1,
              "code": "mmol/L",
              "system": "http://unitsofmeasure.org"
            }
          }
        ],
        "text": {
          "status": "generated",
          "div": "<div xmlns=\"http://www.w3.org/1999/xhtml\"><table class=\"hl7__eu__lab__report\"><tr><th>Test</th><th>16-May-2024</th><th>Reference&#xA0;Range</th><th>Unit</th></tr><tr><td>Potassium [Moles/volume] in Serum or Plasma</td><td>4.1</td><td>3.5 - 5.1</td><td></td><td>mmol/L</td></tr></table></div>"
        },
        "status": "final",
        "subject": {
          "reference": "urn:uuid:40a2f46f-bac1-466f-b795-d5c4c3b63b16",
          "display": "Molly Jenkins"
        },
        "effectiveDateTime": "2024-05-16T14:42:11Z",
        "specimen": {
          "reference": "urn:uuid:2fbf32fc-56f5-48cb-a29a-f8b46ece78ef"
        }
      }
    },
    {
      "fullUrl": "urn:uuid:01fb42a4-a7aa-4940-9f99-71e1e5e929cf",
      "resource": {
        "resourceType": "Observation",
        "id": "01fb42a4-a7aa-4940-9f99-71e1e5e929cf",
        "meta": {
          "profile": [
            "http://hl7.eu/fhir/laboratory/StructureDefinition/Observation-resultslab-eu-lab"
          ]
        },
        "performer": [
          {
            "display": "The Central European Lab"
          }
        ],
        "category": [
          {
            "coding": [
              {
                "system": "http://terminology.hl7.org/CodeSystem/observation-category",
                "code": "laboratory"
              }
            ]
          }
        ],
        "code": {
          "coding": [
            {
              "code": "2075-0",
              "system": "http://loinc.org",
              "display": "Chloride [Moles/volume] in Serum or Plasma"
            }
          ],
          "text": "Chloride [Moles/volume] in Serum or Plasma"
        },
        "valueQuantity": {
          "system": "http://unitsofmeasure.org",
          "value": 107.9,
          "unit": "mmol/L",
          "code": "mmol/L"
        },
        "referenceRange": [
          {
            "low": {
              "value": 98,
              "code": "mmol/L",
              "system": "http://unitsofmeasure.org"
            }
          },
          {
            "high": {
              "value": 110,
              "code": "mmol/L",
              "system": "http://unitsofmeasure.org"
            }
          }
        ],
        "text": {
          "status": "generated",
          "div": "<div xmlns=\"http://www.w3.org/1999/xhtml\"><table class=\"hl7__eu__lab__report\"><tr><th>Test</th><th>16-May-2024</th><th>Reference&#xA0;Range</th><th>Unit</th></tr><tr><td>Chloride [Moles/volume] in Serum or Plasma</td><td>107.9</td><td>98 - 110</td><td></td><td>mmol/L</td></tr></table></div>"
        },
        "status": "final",
        "subject": {
          "reference": "urn:uuid:40a2f46f-bac1-466f-b795-d5c4c3b63b16",
          "display": "Molly Jenkins"
        },
        "effectiveDateTime": "2024-05-16T14:42:11Z",
        "specimen": {
          "reference": "urn:uuid:2fbf32fc-56f5-48cb-a29a-f8b46ece78ef"
        }
      }
    },
    {
      "fullUrl": "urn:uuid:12911ac6-8252-418f-9412-83dd7f60d03a",
      "resource": {
        "resourceType": "Observation",
        "id": "12911ac6-8252-418f-9412-83dd7f60d03a",
        "meta": {
          "profile": [
            "http://hl7.eu/fhir/laboratory/StructureDefinition/Observation-resultslab-eu-lab"
          ]
        },
        "performer": [
          {
            "display": "The Central European Lab"
          }
        ],
        "category": [
          {
            "coding": [
              {
                "system": "http://terminology.hl7.org/CodeSystem/observation-category",
                "code": "laboratory"
              }
            ]
          }
        ],
        "code": {
          "coding": [
            {
              "code": "2028-9",
              "system": "http://loinc.org",
              "display": "Carbon dioxide, total [Moles/volume] in Serum or Plasma"
            }
          ],
          "text": "Carbon dioxide, total [Moles/volume] in Serum or Plasma"
        },
        "valueQuantity": {
          "system": "http://unitsofmeasure.org",
          "value": 27.2,
          "unit": "mmol/L",
          "code": "mmol/L"
        },
        "referenceRange": [
          {
            "low": {
              "value": 22,
              "code": "mmol/L",
              "system": "http://unitsofmeasure.org"
            }
          },
          {
            "high": {
              "value": 32,
              "code": "mmol/L",
              "system": "http://unitsofmeasure.org"
            }
          }
        ],
        "text": {
          "status": "generated",
          "div": "<div xmlns=\"http://www.w3.org/1999/xhtml\"><table class=\"hl7__eu__lab__report\"><tr><th>Test</th><th>16-May-2024</th><th>Reference&#xA0;Range</th><th>Unit</th></tr><tr><td>Carbon dioxide, total [Moles/volume] in Serum or Plasma</td><td>27.2</td><td>22 - 32</td><td></td><td>mmol/L</td></tr></table></div>"
        },
        "status": "final",
        "subject": {
          "reference": "urn:uuid:40a2f46f-bac1-466f-b795-d5c4c3b63b16",
          "display": "Molly Jenkins"
        },
        "effectiveDateTime": "2024-05-16T14:42:11Z",
        "specimen": {
          "reference": "urn:uuid:2fbf32fc-56f5-48cb-a29a-f8b46ece78ef"
        }
      }
    },
    {
      "fullUrl": "urn:uuid:db2c9b48-fa68-496f-b078-38335a83627a",
      "resource": {
        "resourceType": "Observation",
        "id": "db2c9b48-fa68-496f-b078-38335a83627a",
        "meta": {
          "profile": [
            "http://hl7.eu/fhir/laboratory/StructureDefinition/Observation-resultslab-eu-lab"
          ]
        },
        "performer": [
          {
            "display": "The Central European Lab"
          }
        ],
        "category": [
          {
            "coding": [
              {
                "system": "http://terminology.hl7.org/CodeSystem/observation-category",
                "code": "laboratory"
              }
            ]
          }
        ],
        "code": {
          "coding": [
            {
              "code": "5767-9",
              "system": "http://loinc.org",
              "display": "Appearance of Urine"
            }
          ],
          "text": "Appearance of Urine"
        },
        "text": {
          "status": "generated",
          "div": "<div xmlns=\"http://www.w3.org/1999/xhtml\"><table class=\"hl7__eu__lab__report\"><tr><th>Test</th><th>16-May-2024</th><th>Reference&#xA0;Range</th><th>Unit</th></tr><tr><td>Appearance of Urine</td></tr></table></div>"
        },
        "status": "final",
        "subject": {
          "reference": "urn:uuid:40a2f46f-bac1-466f-b795-d5c4c3b63b16",
          "display": "Molly Jenkins"
        },
        "effectiveDateTime": "2024-05-16T14:42:11Z",
        "specimen": {
          "reference": "urn:uuid:b07030e5-7fe1-4a01-88e4-fa4b312d537c"
        }
      }
    },
    {
      "fullUrl": "urn:uuid:adafd44a-4758-4e42-8c26-a04193841e2b",
      "resource": {
        "resourceType": "Observation",
        "id": "adafd44a-4758-4e42-8c26-a04193841e2b",
        "meta": {
          "profile": [
            "http://hl7.eu/fhir/laboratory/StructureDefinition/Observation-resultslab-eu-lab"
          ]
        },
        "performer": [
          {
            "display": "The Central European Lab"
          }
        ],
        "category": [
          {
            "coding": [
              {
                "system": "http://terminology.hl7.org/CodeSystem/observation-category",
                "code": "laboratory"
              }
            ]
          }
        ],
        "code": {
          "coding": [
            {
              "code": "34533-0",
              "system": "http://loinc.org",
              "display": "Odor of Urine"
            }
          ],
          "text": "Odor of Urine"
        },
        "text": {
          "status": "generated",
          "div": "<div xmlns=\"http://www.w3.org/1999/xhtml\"><table class=\"hl7__eu__lab__report\"><tr><th>Test</th><th>16-May-2024</th><th>Reference&#xA0;Range</th><th>Unit</th></tr><tr><td>Odor of Urine</td></tr></table></div>"
        },
        "status": "final",
        "subject": {
          "reference": "urn:uuid:40a2f46f-bac1-466f-b795-d5c4c3b63b16",
          "display": "Molly Jenkins"
        },
        "effectiveDateTime": "2024-05-16T14:42:11Z",
        "specimen": {
          "reference": "urn:uuid:b07030e5-7fe1-4a01-88e4-fa4b312d537c"
        }
      }
    },
    {
      "fullUrl": "urn:uuid:e2cd50f7-331f-446e-8c8e-9bffec1a0a32",
      "resource": {
        "resourceType": "Observation",
        "id": "e2cd50f7-331f-446e-8c8e-9bffec1a0a32",
        "meta": {
          "profile": [
            "http://hl7.eu/fhir/laboratory/StructureDefinition/Observation-resultslab-eu-lab"
          ]
        },
        "performer": [
          {
            "display": "The Central European Lab"
          }
        ],
        "category": [
          {
            "coding": [
              {
                "system": "http://terminology.hl7.org/CodeSystem/observation-category",
                "code": "laboratory"
              }
            ]
          }
        ],
        "code": {
          "coding": [
            {
              "code": "32167-9",
              "system": "http://loinc.org",
              "display": "Clarity of Urine"
            }
          ],
          "text": "Clarity of Urine"
        },
        "text": {
          "status": "generated",
          "div": "<div xmlns=\"http://www.w3.org/1999/xhtml\"><table class=\"hl7__eu__lab__report\"><tr><th>Test</th><th>16-May-2024</th><th>Reference&#xA0;Range</th><th>Unit</th></tr><tr><td>Clarity of Urine</td></tr></table></div>"
        },
        "status": "final",
        "subject": {
          "reference": "urn:uuid:40a2f46f-bac1-466f-b795-d5c4c3b63b16",
          "display": "Molly Jenkins"
        },
        "effectiveDateTime": "2024-05-16T14:42:11Z",
        "specimen": {
          "reference": "urn:uuid:b07030e5-7fe1-4a01-88e4-fa4b312d537c"
        }
      }
    },
    {
      "fullUrl": "urn:uuid:c00758d2-a4c1-4a04-b6c5-07e4f8643e5b",
      "resource": {
        "resourceType": "Observation",
        "id": "c00758d2-a4c1-4a04-b6c5-07e4f8643e5b",
        "meta": {
          "profile": [
            "http://hl7.eu/fhir/laboratory/StructureDefinition/Observation-resultslab-eu-lab"
          ]
        },
        "performer": [
          {
            "display": "The Central European Lab"
          }
        ],
        "category": [
          {
            "coding": [
              {
                "system": "http://terminology.hl7.org/CodeSystem/observation-category",
                "code": "laboratory"
              }
            ]
          }
        ],
        "code": {
          "coding": [
            {
              "code": "5778-6",
              "system": "http://loinc.org",
              "display": "Color of Urine"
            }
          ],
          "text": "Color of Urine"
        },
        "text": {
          "status": "generated",
          "div": "<div xmlns=\"http://www.w3.org/1999/xhtml\"><table class=\"hl7__eu__lab__report\"><tr><th>Test</th><th>16-May-2024</th><th>Reference&#xA0;Range</th><th>Unit</th></tr><tr><td>Color of Urine</td></tr></table></div>"
        },
        "status": "final",
        "subject": {
          "reference": "urn:uuid:40a2f46f-bac1-466f-b795-d5c4c3b63b16",
          "display": "Molly Jenkins"
        },
        "effectiveDateTime": "2024-05-16T14:42:11Z",
        "specimen": {
          "reference": "urn:uuid:b07030e5-7fe1-4a01-88e4-fa4b312d537c"
        }
      }
    },
    {
      "fullUrl": "urn:uuid:70edd1c8-a716-4a4d-aebb-f71dc2d9f620",
      "resource": {
        "resourceType": "Observation",
        "id": "70edd1c8-a716-4a4d-aebb-f71dc2d9f620",
        "meta": {
          "profile": [
            "http://hl7.eu/fhir/laboratory/StructureDefinition/Observation-resultslab-eu-lab"
          ]
        },
        "performer": [
          {
            "display": "The Central European Lab"
          }
        ],
        "category": [
          {
            "coding": [
              {
                "system": "http://terminology.hl7.org/CodeSystem/observation-category",
                "code": "laboratory"
              }
            ]
          }
        ],
        "code": {
          "coding": [
            {
              "code": "5792-7",
              "system": "http://loinc.org",
              "display": "Glucose [Mass/volume] in Urine by Test strip"
            }
          ],
          "text": "Glucose [Mass/volume] in Urine by Test strip"
        },
        "valueQuantity": {
          "system": "http://unitsofmeasure.org",
          "value": 1.2,
          "unit": "mg/dL",
          "code": "mg/dL"
        },
        "referenceRange": [
          {
            "low": {
              "value": 0,
              "code": "mg/dL",
              "system": "http://unitsofmeasure.org"
            }
          },
          {
            "high": {
              "value": 0,
              "code": "mg/dL",
              "system": "http://unitsofmeasure.org"
            }
          }
        ],
        "interpretation": [
          {
            "coding": [
              {
                "code": "H",
                "system": "http://terminology.hl7.org/CodeSystem/v3-ObservationInterpretation",
                "display": "High"
              }
            ]
          }
        ],
        "text": {
          "status": "generated",
          "div": "<div xmlns=\"http://www.w3.org/1999/xhtml\"><table class=\"hl7__eu__lab__report\"><tr><th>Test</th><th>16-May-2024</th><th>Reference&#xA0;Range</th><th>Unit</th></tr><tr><td>Glucose [Mass/volume] in Urine by Test strip</td><td>1.2</td><td>0 - 0</td><td>H</td><td>mg/dL</td></tr></table></div>"
        },
        "status": "final",
        "subject": {
          "reference": "urn:uuid:40a2f46f-bac1-466f-b795-d5c4c3b63b16",
          "display": "Molly Jenkins"
        },
        "effectiveDateTime": "2024-05-16T14:42:11Z",
        "specimen": {
          "reference": "urn:uuid:b07030e5-7fe1-4a01-88e4-fa4b312d537c"
        }
      }
    },
    {
      "fullUrl": "urn:uuid:2be4d6c2-fb00-4003-a2c9-2b818ea33e09",
      "resource": {
        "resourceType": "Observation",
        "id": "2be4d6c2-fb00-4003-a2c9-2b818ea33e09",
        "meta": {
          "profile": [
            "http://hl7.eu/fhir/laboratory/StructureDefinition/Observation-resultslab-eu-lab"
          ]
        },
        "performer": [
          {
            "display": "The Central European Lab"
          }
        ],
        "category": [
          {
            "coding": [
              {
                "system": "http://terminology.hl7.org/CodeSystem/observation-category",
                "code": "laboratory"
              }
            ]
          }
        ],
        "code": {
          "coding": [
            {
              "code": "25428-4",
              "system": "http://loinc.org",
              "display": "Glucose [Presence] in Urine by Test strip"
            }
          ],
          "text": "Glucose [Presence] in Urine by Test strip"
        },
        "text": {
          "status": "generated",
          "div": "<div xmlns=\"http://www.w3.org/1999/xhtml\"><table class=\"hl7__eu__lab__report\"><tr><th>Test</th><th>16-May-2024</th><th>Reference&#xA0;Range</th><th>Unit</th></tr><tr><td>Glucose [Presence] in Urine by Test strip</td></tr></table></div>"
        },
        "status": "final",
        "subject": {
          "reference": "urn:uuid:40a2f46f-bac1-466f-b795-d5c4c3b63b16",
          "display": "Molly Jenkins"
        },
        "effectiveDateTime": "2024-05-16T14:42:11Z",
        "specimen": {
          "reference": "urn:uuid:b07030e5-7fe1-4a01-88e4-fa4b312d537c"
        }
      }
    },
    {
      "fullUrl": "urn:uuid:74d7c30c-25f3-442d-aa0b-3f157ea323d3",
      "resource": {
        "resourceType": "Observation",
        "id": "74d7c30c-25f3-442d-aa0b-3f157ea323d3",
        "meta": {
          "profile": [
            "http://hl7.eu/fhir/laboratory/StructureDefinition/Observation-resultslab-eu-lab"
          ]
        },
        "performer": [
          {
            "display": "The Central European Lab"
          }
        ],
        "category": [
          {
            "coding": [
              {
                "system": "http://terminology.hl7.org/CodeSystem/observation-category",
                "code": "laboratory"
              }
            ]
          }
        ],
        "code": {
          "coding": [
            {
              "code": "20505-4",
              "system": "http://loinc.org",
              "display": "Bilirubin.total [Mass/volume] in Urine by Test strip"
            }
          ],
          "text": "Bilirubin.total [Mass/volume] in Urine by Test strip"
        },
        "valueQuantity": {
          "system": "http://unitsofmeasure.org",
          "value": 0.2,
          "unit": "mg/dL",
          "code": "mg/dL"
        },
        "referenceRange": [
          {
            "low": {
              "value": 0,
              "code": "mg/dL",
              "system": "http://unitsofmeasure.org"
            }
          },
          {
            "high": {
              "value": 1.6,
              "code": "mg/dL",
              "system": "http://unitsofmeasure.org"
            }
          }
        ],
        "text": {
          "status": "generated",
          "div": "<div xmlns=\"http://www.w3.org/1999/xhtml\"><table class=\"hl7__eu__lab__report\"><tr><th>Test</th><th>16-May-2024</th><th>Reference&#xA0;Range</th><th>Unit</th></tr><tr><td>Bilirubin.total [Mass/volume] in Urine by Test strip</td><td>0.2</td><td>0 - 1.6</td><td></td><td>mg/dL</td></tr></table></div>"
        },
        "status": "final",
        "subject": {
          "reference": "urn:uuid:40a2f46f-bac1-466f-b795-d5c4c3b63b16",
          "display": "Molly Jenkins"
        },
        "effectiveDateTime": "2024-05-16T14:42:11Z",
        "specimen": {
          "reference": "urn:uuid:b07030e5-7fe1-4a01-88e4-fa4b312d537c"
        }
      }
    },
    {
      "fullUrl": "urn:uuid:e1b85420-05d3-4a40-bd15-9f7151070b99",
      "resource": {
        "resourceType": "Observation",
        "id": "e1b85420-05d3-4a40-bd15-9f7151070b99",
        "meta": {
          "profile": [
            "http://hl7.eu/fhir/laboratory/StructureDefinition/Observation-resultslab-eu-lab"
          ]
        },
        "performer": [
          {
            "display": "The Central European Lab"
          }
        ],
        "category": [
          {
            "coding": [
              {
                "system": "http://terminology.hl7.org/CodeSystem/observation-category",
                "code": "laboratory"
              }
            ]
          }
        ],
        "code": {
          "coding": [
            {
              "code": "5770-3",
              "system": "http://loinc.org",
              "display": "Bilirubin.total [Presence] in Urine by Test strip"
            }
          ],
          "text": "Bilirubin.total [Presence] in Urine by Test strip"
        },
        "text": {
          "status": "generated",
          "div": "<div xmlns=\"http://www.w3.org/1999/xhtml\"><table class=\"hl7__eu__lab__report\"><tr><th>Test</th><th>16-May-2024</th><th>Reference&#xA0;Range</th><th>Unit</th></tr><tr><td>Bilirubin.total [Presence] in Urine by Test strip</td></tr></table></div>"
        },
        "status": "final",
        "subject": {
          "reference": "urn:uuid:40a2f46f-bac1-466f-b795-d5c4c3b63b16",
          "display": "Molly Jenkins"
        },
        "effectiveDateTime": "2024-05-16T14:42:11Z",
        "specimen": {
          "reference": "urn:uuid:b07030e5-7fe1-4a01-88e4-fa4b312d537c"
        }
      }
    },
    {
      "fullUrl": "urn:uuid:13d6c04c-9b64-4b97-8d6c-7401795b237b",
      "resource": {
        "resourceType": "Observation",
        "id": "13d6c04c-9b64-4b97-8d6c-7401795b237b",
        "meta": {
          "profile": [
            "http://hl7.eu/fhir/laboratory/StructureDefinition/Observation-resultslab-eu-lab"
          ]
        },
        "performer": [
          {
            "display": "The Central European Lab"
          }
        ],
        "category": [
          {
            "coding": [
              {
                "system": "http://terminology.hl7.org/CodeSystem/observation-category",
                "code": "laboratory"
              }
            ]
          }
        ],
        "code": {
          "coding": [
            {
              "code": "5797-6",
              "system": "http://loinc.org",
              "display": "Ketones [Mass/volume] in Urine by Test strip"
            }
          ],
          "text": "Ketones [Mass/volume] in Urine by Test strip"
        },
        "valueQuantity": {
          "system": "http://unitsofmeasure.org",
          "value": 16.5,
          "unit": "mg/dL",
          "code": "mg/dL"
        },
        "referenceRange": [
          {
            "low": {
              "value": 0,
              "code": "mg/dL",
              "system": "http://unitsofmeasure.org"
            }
          },
          {
            "high": {
              "value": 0.5,
              "code": "mg/dL",
              "system": "http://unitsofmeasure.org"
            }
          }
        ],
        "interpretation": [
          {
            "coding": [
              {
                "code": "H",
                "system": "http://terminology.hl7.org/CodeSystem/v3-ObservationInterpretation",
                "display": "High"
              }
            ]
          }
        ],
        "text": {
          "status": "generated",
          "div": "<div xmlns=\"http://www.w3.org/1999/xhtml\"><table class=\"hl7__eu__lab__report\"><tr><th>Test</th><th>16-May-2024</th><th>Reference&#xA0;Range</th><th>Unit</th></tr><tr><td>Ketones [Mass/volume] in Urine by Test strip</td><td>16.5</td><td>0 - 0.5</td><td>H</td><td>mg/dL</td></tr></table></div>"
        },
        "status": "final",
        "subject": {
          "reference": "urn:uuid:40a2f46f-bac1-466f-b795-d5c4c3b63b16",
          "display": "Molly Jenkins"
        },
        "effectiveDateTime": "2024-05-16T14:42:11Z",
        "specimen": {
          "reference": "urn:uuid:b07030e5-7fe1-4a01-88e4-fa4b312d537c"
        }
      }
    },
    {
      "fullUrl": "urn:uuid:eccaa677-b0cd-471f-bca5-d253a722ad7e",
      "resource": {
        "resourceType": "Observation",
        "id": "eccaa677-b0cd-471f-bca5-d253a722ad7e",
        "meta": {
          "profile": [
            "http://hl7.eu/fhir/laboratory/StructureDefinition/Observation-resultslab-eu-lab"
          ]
        },
        "performer": [
          {
            "display": "The Central European Lab"
          }
        ],
        "category": [
          {
            "coding": [
              {
                "system": "http://terminology.hl7.org/CodeSystem/observation-category",
                "code": "laboratory"
              }
            ]
          }
        ],
        "code": {
          "coding": [
            {
              "code": "2514-8",
              "system": "http://loinc.org",
              "display": "Ketones [Presence] in Urine by Test strip"
            }
          ],
          "text": "Ketones [Presence] in Urine by Test strip"
        },
        "text": {
          "status": "generated",
          "div": "<div xmlns=\"http://www.w3.org/1999/xhtml\"><table class=\"hl7__eu__lab__report\"><tr><th>Test</th><th>16-May-2024</th><th>Reference&#xA0;Range</th><th>Unit</th></tr><tr><td>Ketones [Presence] in Urine by Test strip</td></tr></table></div>"
        },
        "status": "final",
        "subject": {
          "reference": "urn:uuid:40a2f46f-bac1-466f-b795-d5c4c3b63b16",
          "display": "Molly Jenkins"
        },
        "effectiveDateTime": "2024-05-16T14:42:11Z",
        "specimen": {
          "reference": "urn:uuid:b07030e5-7fe1-4a01-88e4-fa4b312d537c"
        }
      }
    },
    {
      "fullUrl": "urn:uuid:d7d60884-1676-4a37-91a6-42717553b4fb",
      "resource": {
        "resourceType": "Observation",
        "id": "d7d60884-1676-4a37-91a6-42717553b4fb",
        "meta": {
          "profile": [
            "http://hl7.eu/fhir/laboratory/StructureDefinition/Observation-resultslab-eu-lab"
          ]
        },
        "performer": [
          {
            "display": "The Central European Lab"
          }
        ],
        "category": [
          {
            "coding": [
              {
                "system": "http://terminology.hl7.org/CodeSystem/observation-category",
                "code": "laboratory"
              }
            ]
          }
        ],
        "code": {
          "coding": [
            {
              "code": "5811-5",
              "system": "http://loinc.org",
              "display": "Specific gravity of Urine by Test strip"
            }
          ],
          "text": "Specific gravity of Urine by Test strip"
        },
        "valueQuantity": {
          "system": "http://unitsofmeasure.org",
          "value": 1,
          "unit": "{nominal}",
          "code": "{nominal}"
        },
        "referenceRange": [
          {
            "low": {
              "value": 1.005,
              "code": "g/mL",
              "system": "http://unitsofmeasure.org"
            }
          },
          {
            "high": {
              "value": 1.03,
              "code": "g/mL",
              "system": "http://unitsofmeasure.org"
            }
          }
        ],
        "interpretation": [
          {
            "coding": [
              {
                "code": "L",
                "system": "http://terminology.hl7.org/CodeSystem/v3-ObservationInterpretation",
                "display": "Low"
              }
            ]
          }
        ],
        "text": {
          "status": "generated",
          "div": "<div xmlns=\"http://www.w3.org/1999/xhtml\"><table class=\"hl7__eu__lab__report\"><tr><th>Test</th><th>16-May-2024</th><th>Reference&#xA0;Range</th><th>Unit</th></tr><tr><td>Specific gravity of Urine by Test strip</td><td>1.0</td><td>1.005 - 1.03</td><td>L</td><td>{nominal}</td></tr></table></div>"
        },
        "status": "final",
        "subject": {
          "reference": "urn:uuid:40a2f46f-bac1-466f-b795-d5c4c3b63b16",
          "display": "Molly Jenkins"
        },
        "effectiveDateTime": "2024-05-16T14:42:11Z",
        "specimen": {
          "reference": "urn:uuid:b07030e5-7fe1-4a01-88e4-fa4b312d537c"
        }
      }
    },
    {
      "fullUrl": "urn:uuid:f99f482e-c40b-414e-ac89-3080d0503be5",
      "resource": {
        "resourceType": "Observation",
        "id": "f99f482e-c40b-414e-ac89-3080d0503be5",
        "meta": {
          "profile": [
            "http://hl7.eu/fhir/laboratory/StructureDefinition/Observation-resultslab-eu-lab"
          ]
        },
        "performer": [
          {
            "display": "The Central European Lab"
          }
        ],
        "category": [
          {
            "coding": [
              {
                "system": "http://terminology.hl7.org/CodeSystem/observation-category",
                "code": "laboratory"
              }
            ]
          }
        ],
        "code": {
          "coding": [
            {
              "code": "5803-2",
              "system": "http://loinc.org",
              "display": "pH of Urine by Test strip"
            }
          ],
          "text": "pH of Urine by Test strip"
        },
        "valueQuantity": {
          "system": "http://unitsofmeasure.org",
          "value": 6.6,
          "unit": "pH",
          "code": "pH"
        },
        "referenceRange": [
          {
            "low": {
              "value": 4.5,
              "code": "pH",
              "system": "http://unitsofmeasure.org"
            }
          },
          {
            "high": {
              "value": 7.5,
              "code": "pH",
              "system": "http://unitsofmeasure.org"
            }
          }
        ],
        "text": {
          "status": "generated",
          "div": "<div xmlns=\"http://www.w3.org/1999/xhtml\"><table class=\"hl7__eu__lab__report\"><tr><th>Test</th><th>16-May-2024</th><th>Reference&#xA0;Range</th><th>Unit</th></tr><tr><td>pH of Urine by Test strip</td><td>6.6</td><td>4.5 - 7.5</td><td></td><td>pH</td></tr></table></div>"
        },
        "status": "final",
        "subject": {
          "reference": "urn:uuid:40a2f46f-bac1-466f-b795-d5c4c3b63b16",
          "display": "Molly Jenkins"
        },
        "effectiveDateTime": "2024-05-16T14:42:11Z",
        "specimen": {
          "reference": "urn:uuid:b07030e5-7fe1-4a01-88e4-fa4b312d537c"
        }
      }
    },
    {
      "fullUrl": "urn:uuid:e76a4e04-1daa-405c-9d9f-daad25b24080",
      "resource": {
        "resourceType": "Observation",
        "id": "e76a4e04-1daa-405c-9d9f-daad25b24080",
        "meta": {
          "profile": [
            "http://hl7.eu/fhir/laboratory/StructureDefinition/Observation-resultslab-eu-lab"
          ]
        },
        "performer": [
          {
            "display": "The Central European Lab"
          }
        ],
        "category": [
          {
            "coding": [
              {
                "system": "http://terminology.hl7.org/CodeSystem/observation-category",
                "code": "laboratory"
              }
            ]
          }
        ],
        "code": {
          "coding": [
            {
              "code": "5804-0",
              "system": "http://loinc.org",
              "display": "Protein [Mass/volume] in Urine by Test strip"
            }
          ],
          "text": "Protein [Mass/volume] in Urine by Test strip"
        },
        "valueQuantity": {
          "system": "http://unitsofmeasure.org",
          "value": 200.3,
          "unit": "mg/dL",
          "code": "mg/dL"
        },
        "referenceRange": [
          {
            "low": {
              "value": 0,
              "code": "mg/dL",
              "system": "http://unitsofmeasure.org"
            }
          },
          {
            "high": {
              "value": 15,
              "code": "mg/dL",
              "system": "http://unitsofmeasure.org"
            }
          }
        ],
        "interpretation": [
          {
            "coding": [
              {
                "code": "H",
                "system": "http://terminology.hl7.org/CodeSystem/v3-ObservationInterpretation",
                "display": "High"
              }
            ]
          }
        ],
        "text": {
          "status": "generated",
          "div": "<div xmlns=\"http://www.w3.org/1999/xhtml\"><table class=\"hl7__eu__lab__report\"><tr><th>Test</th><th>16-May-2024</th><th>Reference&#xA0;Range</th><th>Unit</th></tr><tr><td>Protein [Mass/volume] in Urine by Test strip</td><td>200.3</td><td>0 - 15</td><td>H</td><td>mg/dL</td></tr></table></div>"
        },
        "status": "final",
        "subject": {
          "reference": "urn:uuid:40a2f46f-bac1-466f-b795-d5c4c3b63b16",
          "display": "Molly Jenkins"
        },
        "effectiveDateTime": "2024-05-16T14:42:11Z",
        "specimen": {
          "reference": "urn:uuid:b07030e5-7fe1-4a01-88e4-fa4b312d537c"
        }
      }
    },
    {
      "fullUrl": "urn:uuid:ec60a809-481a-48ee-afcc-808d2f1efe2e",
      "resource": {
        "resourceType": "Observation",
        "id": "ec60a809-481a-48ee-afcc-808d2f1efe2e",
        "meta": {
          "profile": [
            "http://hl7.eu/fhir/laboratory/StructureDefinition/Observation-resultslab-eu-lab"
          ]
        },
        "performer": [
          {
            "display": "The Central European Lab"
          }
        ],
        "category": [
          {
            "coding": [
              {
                "system": "http://terminology.hl7.org/CodeSystem/observation-category",
                "code": "laboratory"
              }
            ]
          }
        ],
        "code": {
          "coding": [
            {
              "code": "20454-5",
              "system": "http://loinc.org",
              "display": "Protein [Presence] in Urine by Test strip"
            }
          ],
          "text": "Protein [Presence] in Urine by Test strip"
        },
        "text": {
          "status": "generated",
          "div": "<div xmlns=\"http://www.w3.org/1999/xhtml\"><table class=\"hl7__eu__lab__report\"><tr><th>Test</th><th>16-May-2024</th><th>Reference&#xA0;Range</th><th>Unit</th></tr><tr><td>Protein [Presence] in Urine by Test strip</td></tr></table></div>"
        },
        "status": "final",
        "subject": {
          "reference": "urn:uuid:40a2f46f-bac1-466f-b795-d5c4c3b63b16",
          "display": "Molly Jenkins"
        },
        "effectiveDateTime": "2024-05-16T14:42:11Z",
        "specimen": {
          "reference": "urn:uuid:b07030e5-7fe1-4a01-88e4-fa4b312d537c"
        }
      }
    },
    {
      "fullUrl": "urn:uuid:da15ae54-eb32-4a92-b7af-e8cb780fe5e0",
      "resource": {
        "resourceType": "Observation",
        "id": "da15ae54-eb32-4a92-b7af-e8cb780fe5e0",
        "meta": {
          "profile": [
            "http://hl7.eu/fhir/laboratory/StructureDefinition/Observation-resultslab-eu-lab"
          ]
        },
        "performer": [
          {
            "display": "The Central European Lab"
          }
        ],
        "category": [
          {
            "coding": [
              {
                "system": "http://terminology.hl7.org/CodeSystem/observation-category",
                "code": "laboratory"
              }
            ]
          }
        ],
        "code": {
          "coding": [
            {
              "code": "5802-4",
              "system": "http://loinc.org",
              "display": "Nitrite [Presence] in Urine by Test strip"
            }
          ],
          "text": "Nitrite [Presence] in Urine by Test strip"
        },
        "text": {
          "status": "generated",
          "div": "<div xmlns=\"http://www.w3.org/1999/xhtml\"><table class=\"hl7__eu__lab__report\"><tr><th>Test</th><th>16-May-2024</th><th>Reference&#xA0;Range</th><th>Unit</th></tr><tr><td>Nitrite [Presence] in Urine by Test strip</td></tr></table></div>"
        },
        "status": "final",
        "subject": {
          "reference": "urn:uuid:40a2f46f-bac1-466f-b795-d5c4c3b63b16",
          "display": "Molly Jenkins"
        },
        "effectiveDateTime": "2024-05-16T14:42:11Z",
        "specimen": {
          "reference": "urn:uuid:b07030e5-7fe1-4a01-88e4-fa4b312d537c"
        }
      }
    },
    {
      "fullUrl": "urn:uuid:005575ef-4233-48e3-a2b3-b4c3cd486b13",
      "resource": {
        "resourceType": "Observation",
        "id": "005575ef-4233-48e3-a2b3-b4c3cd486b13",
        "meta": {
          "profile": [
            "http://hl7.eu/fhir/laboratory/StructureDefinition/Observation-resultslab-eu-lab"
          ]
        },
        "performer": [
          {
            "display": "The Central European Lab"
          }
        ],
        "category": [
          {
            "coding": [
              {
                "system": "http://terminology.hl7.org/CodeSystem/observation-category",
                "code": "laboratory"
              }
            ]
          }
        ],
        "code": {
          "coding": [
            {
              "code": "5794-3",
              "system": "http://loinc.org",
              "display": "Hemoglobin [Presence] in Urine by Test strip"
            }
          ],
          "text": "Hemoglobin [Presence] in Urine by Test strip"
        },
        "text": {
          "status": "generated",
          "div": "<div xmlns=\"http://www.w3.org/1999/xhtml\"><table class=\"hl7__eu__lab__report\"><tr><th>Test</th><th>16-May-2024</th><th>Reference&#xA0;Range</th><th>Unit</th></tr><tr><td>Hemoglobin [Presence] in Urine by Test strip</td></tr></table></div>"
        },
        "status": "final",
        "subject": {
          "reference": "urn:uuid:40a2f46f-bac1-466f-b795-d5c4c3b63b16",
          "display": "Molly Jenkins"
        },
        "effectiveDateTime": "2024-05-16T14:42:11Z",
        "specimen": {
          "reference": "urn:uuid:b07030e5-7fe1-4a01-88e4-fa4b312d537c"
        }
      }
    },
    {
      "fullUrl": "urn:uuid:36e0fee0-3b27-4467-912d-77d8feae9a59",
      "resource": {
        "resourceType": "Observation",
        "id": "36e0fee0-3b27-4467-912d-77d8feae9a59",
        "meta": {
          "profile": [
            "http://hl7.eu/fhir/laboratory/StructureDefinition/Observation-resultslab-eu-lab"
          ]
        },
        "performer": [
          {
            "display": "The Central European Lab"
          }
        ],
        "category": [
          {
            "coding": [
              {
                "system": "http://terminology.hl7.org/CodeSystem/observation-category",
                "code": "laboratory"
              }
            ]
          }
        ],
        "code": {
          "coding": [
            {
              "code": "5799-2",
              "system": "http://loinc.org",
              "display": "Leukocyte esterase [Presence] in Urine by Test strip"
            }
          ],
          "text": "Leukocyte esterase [Presence] in Urine by Test strip"
        },
        "text": {
          "status": "generated",
          "div": "<div xmlns=\"http://www.w3.org/1999/xhtml\"><table class=\"hl7__eu__lab__report\"><tr><th>Test</th><th>16-May-2024</th><th>Reference&#xA0;Range</th><th>Unit</th></tr><tr><td>Leukocyte esterase [Presence] in Urine by Test strip</td></tr></table></div>"
        },
        "status": "final",
        "subject": {
          "reference": "urn:uuid:40a2f46f-bac1-466f-b795-d5c4c3b63b16",
          "display": "Molly Jenkins"
        },
        "effectiveDateTime": "2024-05-16T14:42:11Z",
        "specimen": {
          "reference": "urn:uuid:b07030e5-7fe1-4a01-88e4-fa4b312d537c"
        }
      }
    },
    {
      "fullUrl": "urn:uuid:05cadcdc-2f66-461b-b80a-8f4a6e13b3d9",
      "resource": {
        "resourceType": "Observation",
        "id": "05cadcdc-2f66-461b-b80a-8f4a6e13b3d9",
        "meta": {
          "profile": [
            "http://hl7.eu/fhir/laboratory/StructureDefinition/Observation-resultslab-eu-lab"
          ]
        },
        "performer": [
          {
            "display": "The Central European Lab"
          }
        ],
        "category": [
          {
            "coding": [
              {
                "system": "http://terminology.hl7.org/CodeSystem/observation-category",
                "code": "laboratory"
              }
            ]
          }
        ],
        "code": {
          "coding": [
            {
              "code": "4548-4",
              "system": "http://loinc.org",
              "display": "Hemoglobin A1c/Hemoglobin.total in Blood"
            }
          ],
          "text": "Hemoglobin A1c/Hemoglobin.total in Blood"
        },
        "valueQuantity": {
          "system": "http://unitsofmeasure.org",
          "value": 2.9,
          "unit": "%",
          "code": "%"
        },
        "referenceRange": [
          {
            "low": {
              "value": 4,
              "code": "%",
              "system": "http://unitsofmeasure.org"
            }
          },
          {
            "high": {
              "value": 6,
              "code": "%",
              "system": "http://unitsofmeasure.org"
            }
          }
        ],
        "interpretation": [
          {
            "coding": [
              {
                "code": "L",
                "system": "http://terminology.hl7.org/CodeSystem/v3-ObservationInterpretation",
                "display": "Low"
              }
            ]
          }
        ],
        "text": {
          "status": "generated",
          "div": "<div xmlns=\"http://www.w3.org/1999/xhtml\"><table class=\"hl7__eu__lab__report\"><tr><th>Test</th><th>16-May-2024</th><th>Reference&#xA0;Range</th><th>Unit</th></tr><tr><td>Hemoglobin A1c/Hemoglobin.total in Blood</td><td>2.9</td><td>4 - 6</td><td>L</td><td>%</td></tr></table></div>"
        },
        "status": "final",
        "subject": {
          "reference": "urn:uuid:40a2f46f-bac1-466f-b795-d5c4c3b63b16",
          "display": "Molly Jenkins"
        },
        "effectiveDateTime": "2024-05-16T14:42:11Z",
        "specimen": {
          "reference": "urn:uuid:1e8446a0-e062-4877-893a-2ae989b17624"
        }
      }
    },
    {
      "fullUrl": "urn:uuid:d39e7135-bb36-4360-be9e-8145777caf7f",
      "resource": {
        "resourceType": "Observation",
        "id": "d39e7135-bb36-4360-be9e-8145777caf7f",
        "meta": {
          "profile": [
            "http://hl7.eu/fhir/laboratory/StructureDefinition/Observation-resultslab-eu-lab"
          ]
        },
        "performer": [
          {
            "display": "The Central European Lab"
          }
        ],
        "category": [
          {
            "coding": [
              {
                "system": "http://terminology.hl7.org/CodeSystem/observation-category",
                "code": "laboratory"
              }
            ]
          }
        ],
        "code": {
          "coding": [
            {
              "code": "2339-0",
              "system": "http://loinc.org",
              "display": "Glucose [Mass/volume] in Blood"
            }
          ],
          "text": "Glucose [Mass/volume] in Blood"
        },
        "valueQuantity": {
          "system": "http://unitsofmeasure.org",
          "value": 87.4,
          "unit": "mg/dL",
          "code": "mg/dL"
        },
        "referenceRange": [
          {
            "low": {
              "value": 70,
              "code": "mg/dL",
              "system": "http://unitsofmeasure.org"
            }
          },
          {
            "high": {
              "value": 100,
              "code": "mg/dL",
              "system": "http://unitsofmeasure.org"
            }
          }
        ],
        "text": {
          "status": "generated",
          "div": "<div xmlns=\"http://www.w3.org/1999/xhtml\"><table class=\"hl7__eu__lab__report\"><tr><th>Test</th><th>16-May-2024</th><th>Reference&#xA0;Range</th><th>Unit</th></tr><tr><td>Glucose [Mass/volume] in Blood</td><td>87.4</td><td>70 - 100</td><td></td><td>mg/dL</td></tr></table></div>"
        },
        "status": "final",
        "subject": {
          "reference": "urn:uuid:40a2f46f-bac1-466f-b795-d5c4c3b63b16",
          "display": "Molly Jenkins"
        },
        "effectiveDateTime": "2024-05-16T14:42:11Z",
        "specimen": {
          "reference": "urn:uuid:1e8446a0-e062-4877-893a-2ae989b17624"
        }
      }
    },
    {
      "fullUrl": "urn:uuid:acf1361d-b974-4637-bdc9-99af99837e9d",
      "resource": {
        "resourceType": "Observation",
        "id": "acf1361d-b974-4637-bdc9-99af99837e9d",
        "meta": {
          "profile": [
            "http://hl7.eu/fhir/laboratory/StructureDefinition/Observation-resultslab-eu-lab"
          ]
        },
        "performer": [
          {
            "display": "The Central European Lab"
          }
        ],
        "category": [
          {
            "coding": [
              {
                "system": "http://terminology.hl7.org/CodeSystem/observation-category",
                "code": "laboratory"
              }
            ]
          }
        ],
        "code": {
          "coding": [
            {
              "code": "6299-2",
              "system": "http://loinc.org",
              "display": "Urea nitrogen [Mass/volume] in Blood"
            }
          ],
          "text": "Urea nitrogen [Mass/volume] in Blood"
        },
        "valueQuantity": {
          "system": "http://unitsofmeasure.org",
          "value": 19.9,
          "unit": "mg/dL",
          "code": "mg/dL"
        },
        "referenceRange": [
          {
            "low": {
              "value": 7,
              "code": "mg/dL",
              "system": "http://unitsofmeasure.org"
            }
          },
          {
            "high": {
              "value": 20,
              "code": "mg/dL",
              "system": "http://unitsofmeasure.org"
            }
          }
        ],
        "text": {
          "status": "generated",
          "div": "<div xmlns=\"http://www.w3.org/1999/xhtml\"><table class=\"hl7__eu__lab__report\"><tr><th>Test</th><th>16-May-2024</th><th>Reference&#xA0;Range</th><th>Unit</th></tr><tr><td>Urea nitrogen [Mass/volume] in Blood</td><td>19.9</td><td>7 - 20</td><td></td><td>mg/dL</td></tr></table></div>"
        },
        "status": "final",
        "subject": {
          "reference": "urn:uuid:40a2f46f-bac1-466f-b795-d5c4c3b63b16",
          "display": "Molly Jenkins"
        },
        "effectiveDateTime": "2024-05-16T14:42:11Z",
        "specimen": {
          "reference": "urn:uuid:1e8446a0-e062-4877-893a-2ae989b17624"
        }
      }
    },
    {
      "fullUrl": "urn:uuid:dad4715e-a987-407c-b733-35768b2d24bd",
      "resource": {
        "resourceType": "Observation",
        "id": "dad4715e-a987-407c-b733-35768b2d24bd",
        "meta": {
          "profile": [
            "http://hl7.eu/fhir/laboratory/StructureDefinition/Observation-resultslab-eu-lab"
          ]
        },
        "performer": [
          {
            "display": "The Central European Lab"
          }
        ],
        "category": [
          {
            "coding": [
              {
                "system": "http://terminology.hl7.org/CodeSystem/observation-category",
                "code": "laboratory"
              }
            ]
          }
        ],
        "code": {
          "coding": [
            {
              "code": "38483-4",
              "system": "http://loinc.org",
              "display": "Creatinine [Mass/volume] in Blood"
            }
          ],
          "text": "Creatinine [Mass/volume] in Blood"
        },
        "valueQuantity": {
          "system": "http://unitsofmeasure.org",
          "value": 2,
          "unit": "mg/dL",
          "code": "mg/dL"
        },
        "referenceRange": [
          {
            "low": {
              "value": 0.6,
              "code": "mg/dL",
              "system": "http://unitsofmeasure.org"
            }
          },
          {
            "high": {
              "value": 1.3,
              "code": "mg/dL",
              "system": "http://unitsofmeasure.org"
            }
          }
        ],
        "interpretation": [
          {
            "coding": [
              {
                "code": "H",
                "system": "http://terminology.hl7.org/CodeSystem/v3-ObservationInterpretation",
                "display": "High"
              }
            ]
          }
        ],
        "text": {
          "status": "generated",
          "div": "<div xmlns=\"http://www.w3.org/1999/xhtml\"><table class=\"hl7__eu__lab__report\"><tr><th>Test</th><th>16-May-2024</th><th>Reference&#xA0;Range</th><th>Unit</th></tr><tr><td>Creatinine [Mass/volume] in Blood</td><td>2.0</td><td>0.6 - 1.3</td><td>H</td><td>mg/dL</td></tr></table></div>"
        },
        "status": "final",
        "subject": {
          "reference": "urn:uuid:40a2f46f-bac1-466f-b795-d5c4c3b63b16",
          "display": "Molly Jenkins"
        },
        "effectiveDateTime": "2024-05-16T14:42:11Z",
        "specimen": {
          "reference": "urn:uuid:1e8446a0-e062-4877-893a-2ae989b17624"
        }
      }
    },
    {
      "fullUrl": "urn:uuid:1dc4561d-cbdb-44d7-818d-2b173bd73312",
      "resource": {
        "resourceType": "Observation",
        "id": "1dc4561d-cbdb-44d7-818d-2b173bd73312",
        "meta": {
          "profile": [
            "http://hl7.eu/fhir/laboratory/StructureDefinition/Observation-resultslab-eu-lab"
          ]
        },
        "performer": [
          {
            "display": "The Central European Lab"
          }
        ],
        "category": [
          {
            "coding": [
              {
                "system": "http://terminology.hl7.org/CodeSystem/observation-category",
                "code": "laboratory"
              }
            ]
          }
        ],
        "code": {
          "coding": [
            {
              "code": "49765-1",
              "system": "http://loinc.org",
              "display": "Calcium [Mass/volume] in Blood"
            }
          ],
          "text": "Calcium [Mass/volume] in Blood"
        },
        "valueQuantity": {
          "system": "http://unitsofmeasure.org",
          "value": 9.1,
          "unit": "mg/dL",
          "code": "mg/dL"
        },
        "referenceRange": [
          {
            "low": {
              "value": 8.6,
              "code": "mg/dL",
              "system": "http://unitsofmeasure.org"
            }
          },
          {
            "high": {
              "value": 10.4,
              "code": "mg/dL",
              "system": "http://unitsofmeasure.org"
            }
          }
        ],
        "text": {
          "status": "generated",
          "div": "<div xmlns=\"http://www.w3.org/1999/xhtml\"><table class=\"hl7__eu__lab__report\"><tr><th>Test</th><th>16-May-2024</th><th>Reference&#xA0;Range</th><th>Unit</th></tr><tr><td>Calcium [Mass/volume] in Blood</td><td>9.1</td><td>8.6 - 10.4</td><td></td><td>mg/dL</td></tr></table></div>"
        },
        "status": "final",
        "subject": {
          "reference": "urn:uuid:40a2f46f-bac1-466f-b795-d5c4c3b63b16",
          "display": "Molly Jenkins"
        },
        "effectiveDateTime": "2024-05-16T14:42:11Z",
        "specimen": {
          "reference": "urn:uuid:1e8446a0-e062-4877-893a-2ae989b17624"
        }
      }
    },
    {
      "fullUrl": "urn:uuid:5aab4103-1de1-4fee-a758-855b7d86a5cd",
      "resource": {
        "resourceType": "Observation",
        "id": "5aab4103-1de1-4fee-a758-855b7d86a5cd",
        "meta": {
          "profile": [
            "http://hl7.eu/fhir/laboratory/StructureDefinition/Observation-resultslab-eu-lab"
          ]
        },
        "performer": [
          {
            "display": "The Central European Lab"
          }
        ],
        "category": [
          {
            "coding": [
              {
                "system": "http://terminology.hl7.org/CodeSystem/observation-category",
                "code": "laboratory"
              }
            ]
          }
        ],
        "code": {
          "coding": [
            {
              "code": "2947-0",
              "system": "http://loinc.org",
              "display": "Sodium [Moles/volume] in Blood"
            }
          ],
          "text": "Sodium [Moles/volume] in Blood"
        },
        "valueQuantity": {
          "system": "http://unitsofmeasure.org",
          "value": 140.9,
          "unit": "mmol/L",
          "code": "mmol/L"
        },
        "referenceRange": [
          {
            "low": {
              "value": 135,
              "code": "mmol/L",
              "system": "http://unitsofmeasure.org"
            }
          },
          {
            "high": {
              "value": 145,
              "code": "mmol/L",
              "system": "http://unitsofmeasure.org"
            }
          }
        ],
        "text": {
          "status": "generated",
          "div": "<div xmlns=\"http://www.w3.org/1999/xhtml\"><table class=\"hl7__eu__lab__report\"><tr><th>Test</th><th>16-May-2024</th><th>Reference&#xA0;Range</th><th>Unit</th></tr><tr><td>Sodium [Moles/volume] in Blood</td><td>140.9</td><td>135 - 145</td><td></td><td>mmol/L</td></tr></table></div>"
        },
        "status": "final",
        "subject": {
          "reference": "urn:uuid:40a2f46f-bac1-466f-b795-d5c4c3b63b16",
          "display": "Molly Jenkins"
        },
        "effectiveDateTime": "2024-05-16T14:42:11Z",
        "specimen": {
          "reference": "urn:uuid:1e8446a0-e062-4877-893a-2ae989b17624"
        }
      }
    },
    {
      "fullUrl": "urn:uuid:68aba070-dae4-43fa-9633-035caf97d197",
      "resource": {
        "resourceType": "Observation",
        "id": "68aba070-dae4-43fa-9633-035caf97d197",
        "meta": {
          "profile": [
            "http://hl7.eu/fhir/laboratory/StructureDefinition/Observation-resultslab-eu-lab"
          ]
        },
        "performer": [
          {
            "display": "The Central European Lab"
          }
        ],
        "category": [
          {
            "coding": [
              {
                "system": "http://terminology.hl7.org/CodeSystem/observation-category",
                "code": "laboratory"
              }
            ]
          }
        ],
        "code": {
          "coding": [
            {
              "code": "6298-4",
              "system": "http://loinc.org",
              "display": "Potassium [Moles/volume] in Blood"
            }
          ],
          "text": "Potassium [Moles/volume] in Blood"
        },
        "valueQuantity": {
          "system": "http://unitsofmeasure.org",
          "value": 4.1,
          "unit": "mmol/L",
          "code": "mmol/L"
        },
        "referenceRange": [
          {
            "low": {
              "value": 3.5,
              "code": "mmol/L",
              "system": "http://unitsofmeasure.org"
            }
          },
          {
            "high": {
              "value": 5.1,
              "code": "mmol/L",
              "system": "http://unitsofmeasure.org"
            }
          }
        ],
        "text": {
          "status": "generated",
          "div": "<div xmlns=\"http://www.w3.org/1999/xhtml\"><table class=\"hl7__eu__lab__report\"><tr><th>Test</th><th>16-May-2024</th><th>Reference&#xA0;Range</th><th>Unit</th></tr><tr><td>Potassium [Moles/volume] in Blood</td><td>4.1</td><td>3.5 - 5.1</td><td></td><td>mmol/L</td></tr></table></div>"
        },
        "status": "final",
        "subject": {
          "reference": "urn:uuid:40a2f46f-bac1-466f-b795-d5c4c3b63b16",
          "display": "Molly Jenkins"
        },
        "effectiveDateTime": "2024-05-16T14:42:11Z",
        "specimen": {
          "reference": "urn:uuid:1e8446a0-e062-4877-893a-2ae989b17624"
        }
      }
    },
    {
      "fullUrl": "urn:uuid:21c45a70-2ef1-4455-88c3-c88d4b64733a",
      "resource": {
        "resourceType": "Observation",
        "id": "21c45a70-2ef1-4455-88c3-c88d4b64733a",
        "meta": {
          "profile": [
            "http://hl7.eu/fhir/laboratory/StructureDefinition/Observation-resultslab-eu-lab"
          ]
        },
        "performer": [
          {
            "display": "The Central European Lab"
          }
        ],
        "category": [
          {
            "coding": [
              {
                "system": "http://terminology.hl7.org/CodeSystem/observation-category",
                "code": "laboratory"
              }
            ]
          }
        ],
        "code": {
          "coding": [
            {
              "code": "2069-3",
              "system": "http://loinc.org",
              "display": "Chloride [Moles/volume] in Blood"
            }
          ],
          "text": "Chloride [Moles/volume] in Blood"
        },
        "valueQuantity": {
          "system": "http://unitsofmeasure.org",
          "value": 107.9,
          "unit": "mmol/L",
          "code": "mmol/L"
        },
        "referenceRange": [
          {
            "low": {
              "value": 98,
              "code": "mmol/L",
              "system": "http://unitsofmeasure.org"
            }
          },
          {
            "high": {
              "value": 110,
              "code": "mmol/L",
              "system": "http://unitsofmeasure.org"
            }
          }
        ],
        "text": {
          "status": "generated",
          "div": "<div xmlns=\"http://www.w3.org/1999/xhtml\"><table class=\"hl7__eu__lab__report\"><tr><th>Test</th><th>16-May-2024</th><th>Reference&#xA0;Range</th><th>Unit</th></tr><tr><td>Chloride [Moles/volume] in Blood</td><td>107.9</td><td>98 - 110</td><td></td><td>mmol/L</td></tr></table></div>"
        },
        "status": "final",
        "subject": {
          "reference": "urn:uuid:40a2f46f-bac1-466f-b795-d5c4c3b63b16",
          "display": "Molly Jenkins"
        },
        "effectiveDateTime": "2024-05-16T14:42:11Z",
        "specimen": {
          "reference": "urn:uuid:1e8446a0-e062-4877-893a-2ae989b17624"
        }
      }
    },
    {
      "fullUrl": "urn:uuid:80dc58fa-e6ea-460f-8378-29d8d6674a16",
      "resource": {
        "resourceType": "Observation",
        "id": "80dc58fa-e6ea-460f-8378-29d8d6674a16",
        "meta": {
          "profile": [
            "http://hl7.eu/fhir/laboratory/StructureDefinition/Observation-resultslab-eu-lab"
          ]
        },
        "performer": [
          {
            "display": "The Central European Lab"
          }
        ],
        "category": [
          {
            "coding": [
              {
                "system": "http://terminology.hl7.org/CodeSystem/observation-category",
                "code": "laboratory"
              }
            ]
          }
        ],
        "code": {
          "coding": [
            {
              "code": "20565-8",
              "system": "http://loinc.org",
              "display": "Carbon dioxide, total [Moles/volume] in Blood"
            }
          ],
          "text": "Carbon dioxide, total [Moles/volume] in Blood"
        },
        "valueQuantity": {
          "system": "http://unitsofmeasure.org",
          "value": 27.2,
          "unit": "mmol/L",
          "code": "mmol/L"
        },
        "referenceRange": [
          {
            "low": {
              "value": 22,
              "code": "mmol/L",
              "system": "http://unitsofmeasure.org"
            }
          },
          {
            "high": {
              "value": 29,
              "code": "mmol/L",
              "system": "http://unitsofmeasure.org"
            }
          }
        ],
        "text": {
          "status": "generated",
          "div": "<div xmlns=\"http://www.w3.org/1999/xhtml\"><table class=\"hl7__eu__lab__report\"><tr><th>Test</th><th>16-May-2024</th><th>Reference&#xA0;Range</th><th>Unit</th></tr><tr><td>Carbon dioxide, total [Moles/volume] in Blood</td><td>27.2</td><td>22 - 29</td><td></td><td>mmol/L</td></tr></table></div>"
        },
        "status": "final",
        "subject": {
          "reference": "urn:uuid:40a2f46f-bac1-466f-b795-d5c4c3b63b16",
          "display": "Molly Jenkins"
        },
        "effectiveDateTime": "2024-05-16T14:42:11Z",
        "specimen": {
          "reference": "urn:uuid:1e8446a0-e062-4877-893a-2ae989b17624"
        }
      }
    },
    {
      "fullUrl": "urn:uuid:e8b32e8a-733b-419b-95bf-49b3aca037a7",
      "resource": {
        "resourceType": "Device",
        "id": "e8b32e8a-733b-419b-95bf-49b3aca037a7",
        "deviceName": [
          {
            "name": "SYNDERAI Synthetic Generator",
            "type": "manufacturer-name"
          }
        ],
        "version": [
          {
            "value": "5.0"
          }
        ],
        "text": {
          "status": "generated",
          "div": "<div xmlns=\"http://www.w3.org/1999/xhtml\">SYNDERAI Synthetic Generator v5.0</div>"
        },
        "status": "active\"",
        "distinctIdentifier": "synderai-generator-50",
        "manufacturer": "SYNDERAI Project"
      }
    },
    {
      "fullUrl": "urn:uuid:1609b2c2-22df-4e70-9199-d85e2046adf2",
      "resource": {
        "resourceType": "Provenance",
        "id": "1609b2c2-22df-4e70-9199-d85e2046adf2",
        "target": [
          {
            "reference": "Patient/40a2f46f-bac1-466f-b795-d5c4c3b63b16"
          },
          {
            "reference": "Bundle/b8bd34ce-f78a-4c20-b8a1-4afb5451bc67"
          },
          {
            "reference": "Composition/26f9081a-28c2-4ca4-b7e3-6dc165c23757"
          },
          {
            "reference": "PractitionerRole/e16b5d9d-5dda-402e-a89c-06dc88c45e39"
          },
          {
            "reference": "Practitioner/2418001a-4e2e-48e1-9312-90e581cde2c9"
          },
          {
            "reference": "PractitionerRole/84a84aee-d7f9-4f2e-b93c-83ca084afd1a"
          },
          {
            "reference": "Organization/ef53f14c-b0cd-4c41-86f7-fb3be61b417e"
          }
        ],
        "activity": {
          "text": "Synthetic Example Data Generation"
        },
        "policy": [
          "https://synderai.net/synderai-synthetic-data-policy"
        ],
        "agent": [
          {
            "type": {
              "text": "author"
            },
            "who": {
              "reference": "Device/e8b32e8a-733b-419b-95bf-49b3aca037a7"
            }
          }
        ],
        "reason": [
          {
            "text": "Interoperability Testing and Training (non-clinical use)"
          }
        ],
        "text": {
          "status": "generated",
          "div": "<div xmlns=\"http://www.w3.org/1999/xhtml\">Provenance for SYNDERAI Synthetic Example Data Resource</div>"
        },
        "recorded": "2024-05-16T16:42:11Z"
      }
    },
    {
      "fullUrl": "urn:uuid:e16b5d9d-5dda-402e-a89c-06dc88c45e39",
      "resource": {
        "resourceType": "PractitionerRole",
        "id": "e16b5d9d-5dda-402e-a89c-06dc88c45e39",
        "meta": {
          "profile": [
            "http://hl7.eu/fhir/base/StructureDefinition/practitionerRole-eu"
          ]
        },
        "text": {
          "status": "generated",
          "div": "<div xmlns=\"http://www.w3.org/1999/xhtml\">Laboratory Role Id: e16b5d9d-5dda-402e-a89c-06dc88c45e39</div>"
        },
        "practitioner": {
          "reference": "urn:uuid:2418001a-4e2e-48e1-9312-90e581cde2c9"
        }
      }
    },
    {
      "fullUrl": "urn:uuid:2418001a-4e2e-48e1-9312-90e581cde2c9",
      "resource": {
        "resourceType": "Practitioner",
        "id": "2418001a-4e2e-48e1-9312-90e581cde2c9",
        "meta": {
          "profile": [
            "http://hl7.eu/fhir/base/StructureDefinition/practitioner-eu"
          ]
        },
        "identifier": [
          {
            "assigner": {
              "display": "HL7 Europe"
            },
            "system": "urn:oid:2.16.840.1.113883.2.51.999",
            "value": "d2f4eea3-fafe-48e6-94c1-3b5ac10d38e7"
          }
        ],
        "name": [
          {
            "prefix": [
              "dr"
            ],
            "given": [
              "Ex"
            ],
            "family": "Ample"
          }
        ],
        "address": [
          {
            "line": [
              "Laboratoire Central Europenne",
              "Boulevard du Jardin Botanique 32"
            ],
            "postalCode": "1000",
            "city": "Brussels",
            "country": "Belgium"
          }
        ],
        "text": {
          "status": "generated",
          "div": "<div xmlns=\"http://www.w3.org/1999/xhtml\">Laboratory: Laboratoire Central Europenne, 1000 Brussels, Belgium</div>"
        }
      }
    }
  ],
  "type": "document",
  "timestamp": "2024-05-16T16:42:11Z"
}
