{
  "resourceType": "Bundle",
  "id": "922bd588-3a83-49e3-872b-ec0813ab43f1",
  "meta": {
    "profile": [
      "http://hl7.eu/fhir/laboratory/StructureDefinition/Bundle-eu-lab"
    ]
  },
  "identifier": {
    "assigner": {
      "display": "HL7 Europe"
    },
    "system": "urn:oid:2.16.840.1.113883.2.51.999",
    "value": "6dc3a155-f0cb-4fc5-84f3-fc150667d3d7"
  },
  "entry": [
    {
      "fullUrl": "urn:uuid:60225c8e-1ab5-42e6-91d1-4473915f815f",
      "resource": {
        "resourceType": "Composition",
        "id": "60225c8e-1ab5-42e6-91d1-4473915f815f",
        "meta": {
          "profile": [
            "http://hl7.eu/fhir/laboratory/StructureDefinition/Composition-eu-lab"
          ]
        },
        "identifier": {
          "assigner": {
            "display": "HL7 Europe"
          },
          "system": "urn:oid:2.16.840.1.113883.2.51.999",
          "value": "558246fd-fc79-4c3c-9630-ef0ad8f80efd"
        },
        "author": [
          {
            "reference": "urn:uuid:3f81352b-efc0-4b0f-bd58-7d398f694a80"
          }
        ],
        "category": [
          {
            "coding": [
              {
                "code": "26436-6",
                "system": "http://loinc.org",
                "display": "Laboratory studies (set)"
              }
            ]
          }
        ],
        "type": {
          "coding": [
            {
              "code": "11502-2",
              "system": "http://loinc.org",
              "display": "Laboratory report"
            }
          ],
          "text": "Laboratory Report"
        },
        "section": [
          {
            "code": {
              "coding": [
                {
                  "code": "26436-6",
                  "system": "http://loinc.org",
                  "display": "Laboratory studies (set)"
                }
              ],
              "text": "Laboratory studies"
            },
            "section": [
              {
                "code": {
                  "coding": [
                    {
                      "code": "$18719-5",
                      "system": "http://loinc.org",
                      "display": "Chemistry studies (set)"
                    }
                  ],
                  "text": "Chemistry"
                },
                "entry": [
                  {
                    "reference": "urn:uuid:6844b995-310e-4feb-a797-aaf1f03b9dd9"
                  },
                  {
                    "reference": "urn:uuid:cab17890-3956-4a9f-9f8f-1f327bd0b996"
                  },
                  {
                    "reference": "urn:uuid:8875a1c1-8a56-4a24-86e8-38611af0d6b5"
                  },
                  {
                    "reference": "urn:uuid:d52cdff8-f8d0-4006-8cf3-804190b544e8"
                  },
                  {
                    "reference": "urn:uuid:927bb1b1-f3cf-41b3-bbd0-5cfdf5885a48"
                  },
                  {
                    "reference": "urn:uuid:a113e38d-08fb-4f3a-943d-7e2ddd84c865"
                  },
                  {
                    "reference": "urn:uuid:5eae6cce-419e-4b5a-aecf-0dfd774039a1"
                  },
                  {
                    "reference": "urn:uuid:e622f341-a6d2-494d-949b-b6f0a509ea0e"
                  },
                  {
                    "reference": "urn:uuid:4e9fdfd5-905f-4ab3-8f2a-bac6b7ee8cac"
                  }
                ],
                "text": {
                  "status": "generated",
                  "div": "<div xmlns=\"http://www.w3.org/1999/xhtml\"><h3>Chemistry</h3><table class=\"hl7__eu__lab__report\"><thead><tr><th>Test</th><th>16-SEP-2022</th><th>Reference&#xA0;Range</th><th>Unit</th></tr></thead><tbody><tr><td>Hemoglobin A1c/Hemoglobin.total in Blood</td><td><strong>6.3 H</strong></td><td>4.8 - 5.7</td><td>%</td></tr><tr><td>Glucose [Mass/volume] in Blood</td><td>88.1</td><td>70 - 140</td><td>mg/dL</td></tr><tr><td>Urea nitrogen [Mass/volume] in Blood</td><td>16.7</td><td>7 - 20</td><td>mg/dL</td></tr><tr><td>Creatinine [Mass/volume] in Blood</td><td>0.9</td><td>0.6 - 1.3</td><td>mg/dL</td></tr><tr><td>Calcium [Mass/volume] in Blood</td><td>10.2</td><td>8.5 - 10.5</td><td>mg/dL</td></tr><tr><td>Sodium [Moles/volume] in Blood</td><td>138.2</td><td>135 - 145</td><td>mmol/L</td></tr><tr><td>Potassium [Moles/volume] in Blood</td><td>4.9</td><td>3.5 - 5.1</td><td>mmol/L</td></tr><tr><td>Chloride [Moles/volume] in Blood</td><td><strong>108.5 H</strong></td><td>98 - 108</td><td>mmol/L</td></tr><tr><td>Carbon dioxide, total [Moles/volume] in Blood</td><td>24.6</td><td>22 - 32</td><td>mmol/L</td></tr></tbody></table></div>"
                },
                "title": "Chemistry"
              }
            ],
            "title": "Laboratory Report"
          },
          {
            "text": {
              "status": "generated",
              "div": "<div xmlns=\"http://www.w3.org/1999/xhtml\"><h3>Annotation</h3><table class=\"hl7__eu__lab__report\"><tr><th>Conclusion and Recommendations based on this report and previous findings known to us</th></tr><tr><td>The patient shows good renal and electrolyte balance, and normal fasting glucose. However, HbA1c is elevated, indicating suboptimal long-term glycemic control and possible diabetes or prediabetes. Chloride is slightly above normal but not clinically significant in isolation. Recommend further evaluation and management of glycemic status.</td></tr></table></div>"
            },
            "code": {
              "coding": [
                {
                  "system": "http://loinc.org",
                  "code": "48767-8",
                  "display": "Annotation comment"
                }
              ]
            },
            "title": "Annotation comment"
          }
        ],
        "status": "final",
        "subject": {
          "reference": "urn:uuid:fbdc5417-6ab1-4e5b-a459-75a60051f13c",
          "display": "Leonhard Köhler"
        },
        "date": "2022-09-16T04:48:23Z",
        "title": "Laboratory Report",
        "confidentiality": "N"
      }
    },
    {
      "fullUrl": "urn:uuid:75a68a65-4ef8-4c95-8d5b-cb9db6420715",
      "resource": {
        "resourceType": "DiagnosticReport",
        "id": "75a68a65-4ef8-4c95-8d5b-cb9db6420715",
        "meta": {
          "profile": [
            "http://hl7.eu/fhir/laboratory/StructureDefinition/DiagnosticReport-eu-lab"
          ]
        },
        "identifier": [
          {
            "assigner": {
              "display": "HL7 Europe"
            },
            "system": "urn:oid:2.16.840.1.113883.2.51.999",
            "value": "bd520660-3df2-4420-9a0c-f3f33649acb8"
          }
        ],
        "extension": [
          {
            "url": "http://hl7.org/fhir/5.0/StructureDefinition/extension-DiagnosticReport.composition",
            "valueReference": {
              "reference": "urn:uuid:558246fd-fc79-4c3c-9630-ef0ad8f80efd"
            }
          }
        ],
        "category": [
          {
            "coding": [
              {
                "code": "26436-6",
                "system": "http://loinc.org",
                "display": "Laboratory studies (set)"
              }
            ]
          }
        ],
        "specimen": [
          {
            "reference": "urn:uuid:1558162e-9a9c-4e18-b43f-6a36bc70a08e"
          }
        ],
        "result": [
          {
            "reference": "urn:uuid:6844b995-310e-4feb-a797-aaf1f03b9dd9"
          },
          {
            "reference": "urn:uuid:cab17890-3956-4a9f-9f8f-1f327bd0b996"
          },
          {
            "reference": "urn:uuid:8875a1c1-8a56-4a24-86e8-38611af0d6b5"
          },
          {
            "reference": "urn:uuid:d52cdff8-f8d0-4006-8cf3-804190b544e8"
          },
          {
            "reference": "urn:uuid:927bb1b1-f3cf-41b3-bbd0-5cfdf5885a48"
          },
          {
            "reference": "urn:uuid:a113e38d-08fb-4f3a-943d-7e2ddd84c865"
          },
          {
            "reference": "urn:uuid:5eae6cce-419e-4b5a-aecf-0dfd774039a1"
          },
          {
            "reference": "urn:uuid:e622f341-a6d2-494d-949b-b6f0a509ea0e"
          },
          {
            "reference": "urn:uuid:4e9fdfd5-905f-4ab3-8f2a-bac6b7ee8cac"
          }
        ],
        "status": "registered",
        "code": {
          "coding": [
            {
              "code": "11502-2",
              "system": "http://loinc.org",
              "display": "Laboratory report"
            }
          ]
        },
        "subject": {
          "reference": "urn:uuid:fbdc5417-6ab1-4e5b-a459-75a60051f13c",
          "display": "Leonhard Köhler"
        }
      }
    },
    {
      "fullUrl": "urn:uuid:fbdc5417-6ab1-4e5b-a459-75a60051f13c",
      "resource": {
        "resourceType": "Patient",
        "id": "fbdc5417-6ab1-4e5b-a459-75a60051f13c",
        "meta": {
          "security": [
            {
              "system": "http://terminology.hl7.org/CodeSystem/v3-ActReason",
              "code": "HTEST"
            },
            {
              "system": "http://terminology.hl7.org/CodeSystem/v3-ActReason",
              "code": "TRAIN"
            }
          ],
          "tag": [
            {
              "system": "https://synderai.net/fhir/CodeSystem/tags",
              "code": "synthetic",
              "display": "SYNDERAI Synthetic data"
            }
          ],
          "profile": [
            "http://hl7.eu/fhir/base/StructureDefinition/patient-eu-core"
          ]
        },
        "identifier": [
          {
            "type": {
              "coding": [
                {
                  "code": "PT",
                  "system": "http://terminology.hl7.org/CodeSystem/v2-0203"
                }
              ]
            },
            "system": "http://ec.europa.eu/identifier/eci",
            "value": "5321-442678-4"
          },
          {
            "type": {
              "coding": [
                {
                  "code": "MR",
                  "system": "http://terminology.hl7.org/CodeSystem/v2-0203"
                }
              ]
            },
            "system": "http://local.setting.eu/identifier",
            "value": "ffa9f0d8-c016-d46c-e666-000f53715b47"
          }
        ],
        "name": [
          {
            "family": "Köhler"
          },
          {
            "given": [
              "Leonhard"
            ]
          },
          {
            "text": "Leonhard Köhler"
          }
        ],
        "address": [
          {
            "line": [
              "Henckweg 97/34"
            ],
            "use": "home",
            "type": "physical",
            "postalCode": "87629",
            "city": "Füssen",
            "country": "Germany"
          }
        ],
        "telecom": [
          {
            "system": "phone",
            "value": "00028839855"
          }
        ],
        "extension": [
          {
            "url": "http://hl7.org/fhir/StructureDefinition/patient-nationality",
            "valueCodeableConcept": {
              "coding": [
                {
                  "code": "DE",
                  "system": "http://hl7.org/fhir/ValueSet/country"
                }
              ]
            }
          }
        ],
        "text": {
          "status": "generated",
          "div": "<div xmlns=\"http://www.w3.org/1999/xhtml\"><table class=\"hl7__ips\"><tr><td>Leonhard Köhler</td><td>male</td><td>19-Dec-1949</td></tr></table></div>"
        },
        "gender": "male",
        "birthDate": "1949-12-19"
      }
    },
    {
      "fullUrl": "urn:uuid:486eb3ad-38a9-4443-9bed-a52e505a2d95",
      "resource": {
        "resourceType": "ServiceRequest",
        "id": "486eb3ad-38a9-4443-9bed-a52e505a2d95",
        "meta": {
          "profile": [
            "http://hl7.eu/fhir/laboratory/StructureDefinition/ServiceRequest-eu-lab"
          ]
        },
        "identifier": [
          {
            "system": "http://example.org",
            "value": "fafa7167-a697-438a-83d6-2ee0e8e68971"
          }
        ],
        "specimen": [
          {
            "reference": "urn:uuid:1558162e-9a9c-4e18-b43f-6a36bc70a08e"
          }
        ],
        "reasonCode": [
          {
            "coding": [
              {
                "code": "55822004",
                "system": "http://snomed.info/sct",
                "display": "Hyperlipidemia"
              }
            ]
          },
          {
            "coding": [
              {
                "code": "414545008",
                "system": "http://snomed.info/sct",
                "display": "Ischemic heart disease"
              }
            ]
          },
          {
            "coding": [
              {
                "code": "59621000",
                "system": "http://snomed.info/sct",
                "display": "Essential hypertension"
              }
            ]
          },
          {
            "coding": [
              {
                "code": "239873007",
                "system": "http://snomed.info/sct",
                "display": "Osteoarthritis of knee"
              }
            ]
          },
          {
            "coding": [
              {
                "code": "271737000",
                "system": "http://snomed.info/sct",
                "display": "Anemia"
              }
            ]
          },
          {
            "coding": [
              {
                "code": "15777000",
                "system": "http://snomed.info/sct",
                "display": "Prediabetes"
              }
            ]
          }
        ],
        "status": "active",
        "intent": "order",
        "code": {
          "coding": [
            {
              "code": "108252007",
              "system": "http://snomed.info/sct",
              "display": "Laboratory procedure"
            }
          ]
        },
        "subject": {
          "reference": "urn:uuid:fbdc5417-6ab1-4e5b-a459-75a60051f13c",
          "display": "Leonhard Köhler"
        },
        "requester": {
          "reference": "urn:uuid:878a873f-a133-4682-ab59-a21e233ee5ad"
        }
      }
    },
    {
      "fullUrl": "urn:uuid:878a873f-a133-4682-ab59-a21e233ee5ad",
      "resource": {
        "resourceType": "PractitionerRole",
        "id": "878a873f-a133-4682-ab59-a21e233ee5ad",
        "meta": {
          "profile": [
            "http://hl7.eu/fhir/base/StructureDefinition/practitionerRole-eu"
          ]
        },
        "text": {
          "status": "generated",
          "div": "<div xmlns=\"http://www.w3.org/1999/xhtml\">Provider Role Id: 878a873f-a133-4682-ab59-a21e233ee5ad</div>"
        },
        "organization": {
          "reference": "urn:uuid:2d6fab68-281c-4fe3-8e1a-35e581470bbc"
        }
      }
    },
    {
      "fullUrl": "urn:uuid:2d6fab68-281c-4fe3-8e1a-35e581470bbc",
      "resource": {
        "resourceType": "Organization",
        "id": "2d6fab68-281c-4fe3-8e1a-35e581470bbc",
        "meta": {
          "profile": [
            "http://hl7.eu/fhir/base/StructureDefinition/organization-eu"
          ]
        },
        "identifier": [
          {
            "assigner": {
              "display": "HL7 Europe"
            },
            "system": "urn:oid:2.16.840.1.113883.2.51.999",
            "value": "5a6480b3-50ca-45f1-99c6-04f10acdc1c9"
          }
        ],
        "address": [
          {
            "line": [
              "Feistlestraße 2"
            ],
            "city": "Füssen",
            "postalCode": "87629",
            "country": "Germany"
          }
        ],
        "text": {
          "status": "generated",
          "div": "<div xmlns=\"http://www.w3.org/1999/xhtml\">Provider Organization: hier ist kein Ärztehaus</div>"
        },
        "name": "hier ist kein Ärztehaus"
      }
    },
    {
      "fullUrl": "urn:uuid:1558162e-9a9c-4e18-b43f-6a36bc70a08e",
      "resource": {
        "resourceType": "Specimen",
        "id": "1558162e-9a9c-4e18-b43f-6a36bc70a08e",
        "meta": {
          "profile": [
            "http://hl7.eu/fhir/laboratory/StructureDefinition/Specimen-eu-lab"
          ]
        },
        "collection": {
          "collectedDateTime": "2022-09-16"
        },
        "text": {
          "status": "generated",
          "div": "<div xmlns=\"http://www.w3.org/1999/xhtml\"><table class=\"hl7__eu__lab__report\"><tr><th>Specimen</th><th>Collection Date</th></tr><tr><td>Whole blood specimen (specimen)</td><td><span class=\"nb\">16-Sep-2022</span></td></tr></table></div>"
        },
        "type": {
          "coding": [
            {
              "code": "258580003",
              "system": "http://snomed.info/sct",
              "display": "Whole blood specimen (specimen)"
            }
          ]
        }
      }
    },
    {
      "fullUrl": "urn:uuid:6844b995-310e-4feb-a797-aaf1f03b9dd9",
      "resource": {
        "resourceType": "Observation",
        "id": "6844b995-310e-4feb-a797-aaf1f03b9dd9",
        "meta": {
          "profile": [
            "http://hl7.eu/fhir/laboratory/StructureDefinition/Observation-resultslab-eu-lab"
          ]
        },
        "performer": [
          {
            "display": "The Central European Lab"
          }
        ],
        "category": [
          {
            "coding": [
              {
                "system": "http://terminology.hl7.org/CodeSystem/observation-category",
                "code": "laboratory"
              }
            ]
          }
        ],
        "code": {
          "coding": [
            {
              "code": "4548-4",
              "system": "http://loinc.org",
              "display": "Hemoglobin A1c/Hemoglobin.total in Blood"
            }
          ],
          "text": "Hemoglobin A1c/Hemoglobin.total in Blood"
        },
        "valueQuantity": {
          "system": "http://unitsofmeasure.org",
          "value": 6.3,
          "unit": "%",
          "code": "%"
        },
        "referenceRange": [
          {
            "low": {
              "value": 4.8,
              "code": "%",
              "system": "http://unitsofmeasure.org"
            }
          },
          {
            "high": {
              "value": 5.7,
              "code": "%",
              "system": "http://unitsofmeasure.org"
            }
          }
        ],
        "interpretation": [
          {
            "coding": [
              {
                "code": "H",
                "system": "http://terminology.hl7.org/CodeSystem/v3-ObservationInterpretation",
                "display": "High"
              }
            ]
          }
        ],
        "text": {
          "status": "generated",
          "div": "<div xmlns=\"http://www.w3.org/1999/xhtml\"><table class=\"hl7__eu__lab__report\"><tr><th>Test</th><th>16-Sep-2022</th><th>Reference&#xA0;Range</th><th>Unit</th></tr><tr><td>Hemoglobin A1c/Hemoglobin.total in Blood</td><td>6.3</td><td>4.8 - 5.7</td><td>H</td><td>%</td></tr></table></div>"
        },
        "status": "final",
        "subject": {
          "reference": "urn:uuid:fbdc5417-6ab1-4e5b-a459-75a60051f13c",
          "display": "Leonhard Köhler"
        },
        "effectiveDateTime": "2022-09-16T02:48:23Z",
        "specimen": {
          "reference": "urn:uuid:1558162e-9a9c-4e18-b43f-6a36bc70a08e"
        }
      }
    },
    {
      "fullUrl": "urn:uuid:cab17890-3956-4a9f-9f8f-1f327bd0b996",
      "resource": {
        "resourceType": "Observation",
        "id": "cab17890-3956-4a9f-9f8f-1f327bd0b996",
        "meta": {
          "profile": [
            "http://hl7.eu/fhir/laboratory/StructureDefinition/Observation-resultslab-eu-lab"
          ]
        },
        "performer": [
          {
            "display": "The Central European Lab"
          }
        ],
        "category": [
          {
            "coding": [
              {
                "system": "http://terminology.hl7.org/CodeSystem/observation-category",
                "code": "laboratory"
              }
            ]
          }
        ],
        "code": {
          "coding": [
            {
              "code": "2339-0",
              "system": "http://loinc.org",
              "display": "Glucose [Mass/volume] in Blood"
            }
          ],
          "text": "Glucose [Mass/volume] in Blood"
        },
        "valueQuantity": {
          "system": "http://unitsofmeasure.org",
          "value": 88.1,
          "unit": "mg/dL",
          "code": "mg/dL"
        },
        "referenceRange": [
          {
            "low": {
              "value": 70,
              "code": "mg/dL",
              "system": "http://unitsofmeasure.org"
            }
          },
          {
            "high": {
              "value": 140,
              "code": "mg/dL",
              "system": "http://unitsofmeasure.org"
            }
          }
        ],
        "text": {
          "status": "generated",
          "div": "<div xmlns=\"http://www.w3.org/1999/xhtml\"><table class=\"hl7__eu__lab__report\"><tr><th>Test</th><th>16-Sep-2022</th><th>Reference&#xA0;Range</th><th>Unit</th></tr><tr><td>Glucose [Mass/volume] in Blood</td><td>88.1</td><td>70 - 140</td><td></td><td>mg/dL</td></tr></table></div>"
        },
        "status": "final",
        "subject": {
          "reference": "urn:uuid:fbdc5417-6ab1-4e5b-a459-75a60051f13c",
          "display": "Leonhard Köhler"
        },
        "effectiveDateTime": "2022-09-16T02:48:23Z",
        "specimen": {
          "reference": "urn:uuid:1558162e-9a9c-4e18-b43f-6a36bc70a08e"
        }
      }
    },
    {
      "fullUrl": "urn:uuid:8875a1c1-8a56-4a24-86e8-38611af0d6b5",
      "resource": {
        "resourceType": "Observation",
        "id": "8875a1c1-8a56-4a24-86e8-38611af0d6b5",
        "meta": {
          "profile": [
            "http://hl7.eu/fhir/laboratory/StructureDefinition/Observation-resultslab-eu-lab"
          ]
        },
        "performer": [
          {
            "display": "The Central European Lab"
          }
        ],
        "category": [
          {
            "coding": [
              {
                "system": "http://terminology.hl7.org/CodeSystem/observation-category",
                "code": "laboratory"
              }
            ]
          }
        ],
        "code": {
          "coding": [
            {
              "code": "6299-2",
              "system": "http://loinc.org",
              "display": "Urea nitrogen [Mass/volume] in Blood"
            }
          ],
          "text": "Urea nitrogen [Mass/volume] in Blood"
        },
        "valueQuantity": {
          "system": "http://unitsofmeasure.org",
          "value": 16.7,
          "unit": "mg/dL",
          "code": "mg/dL"
        },
        "referenceRange": [
          {
            "low": {
              "value": 7,
              "code": "mg/dL",
              "system": "http://unitsofmeasure.org"
            }
          },
          {
            "high": {
              "value": 20,
              "code": "mg/dL",
              "system": "http://unitsofmeasure.org"
            }
          }
        ],
        "text": {
          "status": "generated",
          "div": "<div xmlns=\"http://www.w3.org/1999/xhtml\"><table class=\"hl7__eu__lab__report\"><tr><th>Test</th><th>16-Sep-2022</th><th>Reference&#xA0;Range</th><th>Unit</th></tr><tr><td>Urea nitrogen [Mass/volume] in Blood</td><td>16.7</td><td>7 - 20</td><td></td><td>mg/dL</td></tr></table></div>"
        },
        "status": "final",
        "subject": {
          "reference": "urn:uuid:fbdc5417-6ab1-4e5b-a459-75a60051f13c",
          "display": "Leonhard Köhler"
        },
        "effectiveDateTime": "2022-09-16T02:48:23Z",
        "specimen": {
          "reference": "urn:uuid:1558162e-9a9c-4e18-b43f-6a36bc70a08e"
        }
      }
    },
    {
      "fullUrl": "urn:uuid:d52cdff8-f8d0-4006-8cf3-804190b544e8",
      "resource": {
        "resourceType": "Observation",
        "id": "d52cdff8-f8d0-4006-8cf3-804190b544e8",
        "meta": {
          "profile": [
            "http://hl7.eu/fhir/laboratory/StructureDefinition/Observation-resultslab-eu-lab"
          ]
        },
        "performer": [
          {
            "display": "The Central European Lab"
          }
        ],
        "category": [
          {
            "coding": [
              {
                "system": "http://terminology.hl7.org/CodeSystem/observation-category",
                "code": "laboratory"
              }
            ]
          }
        ],
        "code": {
          "coding": [
            {
              "code": "38483-4",
              "system": "http://loinc.org",
              "display": "Creatinine [Mass/volume] in Blood"
            }
          ],
          "text": "Creatinine [Mass/volume] in Blood"
        },
        "valueQuantity": {
          "system": "http://unitsofmeasure.org",
          "value": 0.9,
          "unit": "mg/dL",
          "code": "mg/dL"
        },
        "referenceRange": [
          {
            "low": {
              "value": 0.6,
              "code": "mg/dL",
              "system": "http://unitsofmeasure.org"
            }
          },
          {
            "high": {
              "value": 1.3,
              "code": "mg/dL",
              "system": "http://unitsofmeasure.org"
            }
          }
        ],
        "text": {
          "status": "generated",
          "div": "<div xmlns=\"http://www.w3.org/1999/xhtml\"><table class=\"hl7__eu__lab__report\"><tr><th>Test</th><th>16-Sep-2022</th><th>Reference&#xA0;Range</th><th>Unit</th></tr><tr><td>Creatinine [Mass/volume] in Blood</td><td>0.9</td><td>0.6 - 1.3</td><td></td><td>mg/dL</td></tr></table></div>"
        },
        "status": "final",
        "subject": {
          "reference": "urn:uuid:fbdc5417-6ab1-4e5b-a459-75a60051f13c",
          "display": "Leonhard Köhler"
        },
        "effectiveDateTime": "2022-09-16T02:48:23Z",
        "specimen": {
          "reference": "urn:uuid:1558162e-9a9c-4e18-b43f-6a36bc70a08e"
        }
      }
    },
    {
      "fullUrl": "urn:uuid:927bb1b1-f3cf-41b3-bbd0-5cfdf5885a48",
      "resource": {
        "resourceType": "Observation",
        "id": "927bb1b1-f3cf-41b3-bbd0-5cfdf5885a48",
        "meta": {
          "profile": [
            "http://hl7.eu/fhir/laboratory/StructureDefinition/Observation-resultslab-eu-lab"
          ]
        },
        "performer": [
          {
            "display": "The Central European Lab"
          }
        ],
        "category": [
          {
            "coding": [
              {
                "system": "http://terminology.hl7.org/CodeSystem/observation-category",
                "code": "laboratory"
              }
            ]
          }
        ],
        "code": {
          "coding": [
            {
              "code": "49765-1",
              "system": "http://loinc.org",
              "display": "Calcium [Mass/volume] in Blood"
            }
          ],
          "text": "Calcium [Mass/volume] in Blood"
        },
        "valueQuantity": {
          "system": "http://unitsofmeasure.org",
          "value": 10.2,
          "unit": "mg/dL",
          "code": "mg/dL"
        },
        "referenceRange": [
          {
            "low": {
              "value": 8.5,
              "code": "mg/dL",
              "system": "http://unitsofmeasure.org"
            }
          },
          {
            "high": {
              "value": 10.5,
              "code": "mg/dL",
              "system": "http://unitsofmeasure.org"
            }
          }
        ],
        "text": {
          "status": "generated",
          "div": "<div xmlns=\"http://www.w3.org/1999/xhtml\"><table class=\"hl7__eu__lab__report\"><tr><th>Test</th><th>16-Sep-2022</th><th>Reference&#xA0;Range</th><th>Unit</th></tr><tr><td>Calcium [Mass/volume] in Blood</td><td>10.2</td><td>8.5 - 10.5</td><td></td><td>mg/dL</td></tr></table></div>"
        },
        "status": "final",
        "subject": {
          "reference": "urn:uuid:fbdc5417-6ab1-4e5b-a459-75a60051f13c",
          "display": "Leonhard Köhler"
        },
        "effectiveDateTime": "2022-09-16T02:48:23Z",
        "specimen": {
          "reference": "urn:uuid:1558162e-9a9c-4e18-b43f-6a36bc70a08e"
        }
      }
    },
    {
      "fullUrl": "urn:uuid:a113e38d-08fb-4f3a-943d-7e2ddd84c865",
      "resource": {
        "resourceType": "Observation",
        "id": "a113e38d-08fb-4f3a-943d-7e2ddd84c865",
        "meta": {
          "profile": [
            "http://hl7.eu/fhir/laboratory/StructureDefinition/Observation-resultslab-eu-lab"
          ]
        },
        "performer": [
          {
            "display": "The Central European Lab"
          }
        ],
        "category": [
          {
            "coding": [
              {
                "system": "http://terminology.hl7.org/CodeSystem/observation-category",
                "code": "laboratory"
              }
            ]
          }
        ],
        "code": {
          "coding": [
            {
              "code": "2947-0",
              "system": "http://loinc.org",
              "display": "Sodium [Moles/volume] in Blood"
            }
          ],
          "text": "Sodium [Moles/volume] in Blood"
        },
        "valueQuantity": {
          "system": "http://unitsofmeasure.org",
          "value": 138.2,
          "unit": "mmol/L",
          "code": "mmol/L"
        },
        "referenceRange": [
          {
            "low": {
              "value": 135,
              "code": "mmol/L",
              "system": "http://unitsofmeasure.org"
            }
          },
          {
            "high": {
              "value": 145,
              "code": "mmol/L",
              "system": "http://unitsofmeasure.org"
            }
          }
        ],
        "text": {
          "status": "generated",
          "div": "<div xmlns=\"http://www.w3.org/1999/xhtml\"><table class=\"hl7__eu__lab__report\"><tr><th>Test</th><th>16-Sep-2022</th><th>Reference&#xA0;Range</th><th>Unit</th></tr><tr><td>Sodium [Moles/volume] in Blood</td><td>138.2</td><td>135 - 145</td><td></td><td>mmol/L</td></tr></table></div>"
        },
        "status": "final",
        "subject": {
          "reference": "urn:uuid:fbdc5417-6ab1-4e5b-a459-75a60051f13c",
          "display": "Leonhard Köhler"
        },
        "effectiveDateTime": "2022-09-16T02:48:23Z",
        "specimen": {
          "reference": "urn:uuid:1558162e-9a9c-4e18-b43f-6a36bc70a08e"
        }
      }
    },
    {
      "fullUrl": "urn:uuid:5eae6cce-419e-4b5a-aecf-0dfd774039a1",
      "resource": {
        "resourceType": "Observation",
        "id": "5eae6cce-419e-4b5a-aecf-0dfd774039a1",
        "meta": {
          "profile": [
            "http://hl7.eu/fhir/laboratory/StructureDefinition/Observation-resultslab-eu-lab"
          ]
        },
        "performer": [
          {
            "display": "The Central European Lab"
          }
        ],
        "category": [
          {
            "coding": [
              {
                "system": "http://terminology.hl7.org/CodeSystem/observation-category",
                "code": "laboratory"
              }
            ]
          }
        ],
        "code": {
          "coding": [
            {
              "code": "6298-4",
              "system": "http://loinc.org",
              "display": "Potassium [Moles/volume] in Blood"
            }
          ],
          "text": "Potassium [Moles/volume] in Blood"
        },
        "valueQuantity": {
          "system": "http://unitsofmeasure.org",
          "value": 4.9,
          "unit": "mmol/L",
          "code": "mmol/L"
        },
        "referenceRange": [
          {
            "low": {
              "value": 3.5,
              "code": "mmol/L",
              "system": "http://unitsofmeasure.org"
            }
          },
          {
            "high": {
              "value": 5.1,
              "code": "mmol/L",
              "system": "http://unitsofmeasure.org"
            }
          }
        ],
        "text": {
          "status": "generated",
          "div": "<div xmlns=\"http://www.w3.org/1999/xhtml\"><table class=\"hl7__eu__lab__report\"><tr><th>Test</th><th>16-Sep-2022</th><th>Reference&#xA0;Range</th><th>Unit</th></tr><tr><td>Potassium [Moles/volume] in Blood</td><td>4.9</td><td>3.5 - 5.1</td><td></td><td>mmol/L</td></tr></table></div>"
        },
        "status": "final",
        "subject": {
          "reference": "urn:uuid:fbdc5417-6ab1-4e5b-a459-75a60051f13c",
          "display": "Leonhard Köhler"
        },
        "effectiveDateTime": "2022-09-16T02:48:23Z",
        "specimen": {
          "reference": "urn:uuid:1558162e-9a9c-4e18-b43f-6a36bc70a08e"
        }
      }
    },
    {
      "fullUrl": "urn:uuid:e622f341-a6d2-494d-949b-b6f0a509ea0e",
      "resource": {
        "resourceType": "Observation",
        "id": "e622f341-a6d2-494d-949b-b6f0a509ea0e",
        "meta": {
          "profile": [
            "http://hl7.eu/fhir/laboratory/StructureDefinition/Observation-resultslab-eu-lab"
          ]
        },
        "performer": [
          {
            "display": "The Central European Lab"
          }
        ],
        "category": [
          {
            "coding": [
              {
                "system": "http://terminology.hl7.org/CodeSystem/observation-category",
                "code": "laboratory"
              }
            ]
          }
        ],
        "code": {
          "coding": [
            {
              "code": "2069-3",
              "system": "http://loinc.org",
              "display": "Chloride [Moles/volume] in Blood"
            }
          ],
          "text": "Chloride [Moles/volume] in Blood"
        },
        "valueQuantity": {
          "system": "http://unitsofmeasure.org",
          "value": 108.5,
          "unit": "mmol/L",
          "code": "mmol/L"
        },
        "referenceRange": [
          {
            "low": {
              "value": 98,
              "code": "mmol/L",
              "system": "http://unitsofmeasure.org"
            }
          },
          {
            "high": {
              "value": 108,
              "code": "mmol/L",
              "system": "http://unitsofmeasure.org"
            }
          }
        ],
        "interpretation": [
          {
            "coding": [
              {
                "code": "H",
                "system": "http://terminology.hl7.org/CodeSystem/v3-ObservationInterpretation",
                "display": "High"
              }
            ]
          }
        ],
        "text": {
          "status": "generated",
          "div": "<div xmlns=\"http://www.w3.org/1999/xhtml\"><table class=\"hl7__eu__lab__report\"><tr><th>Test</th><th>16-Sep-2022</th><th>Reference&#xA0;Range</th><th>Unit</th></tr><tr><td>Chloride [Moles/volume] in Blood</td><td>108.5</td><td>98 - 108</td><td>H</td><td>mmol/L</td></tr></table></div>"
        },
        "status": "final",
        "subject": {
          "reference": "urn:uuid:fbdc5417-6ab1-4e5b-a459-75a60051f13c",
          "display": "Leonhard Köhler"
        },
        "effectiveDateTime": "2022-09-16T02:48:23Z",
        "specimen": {
          "reference": "urn:uuid:1558162e-9a9c-4e18-b43f-6a36bc70a08e"
        }
      }
    },
    {
      "fullUrl": "urn:uuid:4e9fdfd5-905f-4ab3-8f2a-bac6b7ee8cac",
      "resource": {
        "resourceType": "Observation",
        "id": "4e9fdfd5-905f-4ab3-8f2a-bac6b7ee8cac",
        "meta": {
          "profile": [
            "http://hl7.eu/fhir/laboratory/StructureDefinition/Observation-resultslab-eu-lab"
          ]
        },
        "performer": [
          {
            "display": "The Central European Lab"
          }
        ],
        "category": [
          {
            "coding": [
              {
                "system": "http://terminology.hl7.org/CodeSystem/observation-category",
                "code": "laboratory"
              }
            ]
          }
        ],
        "code": {
          "coding": [
            {
              "code": "20565-8",
              "system": "http://loinc.org",
              "display": "Carbon dioxide, total [Moles/volume] in Blood"
            }
          ],
          "text": "Carbon dioxide, total [Moles/volume] in Blood"
        },
        "valueQuantity": {
          "system": "http://unitsofmeasure.org",
          "value": 24.6,
          "unit": "mmol/L",
          "code": "mmol/L"
        },
        "referenceRange": [
          {
            "low": {
              "value": 22,
              "code": "mmol/L",
              "system": "http://unitsofmeasure.org"
            }
          },
          {
            "high": {
              "value": 32,
              "code": "mmol/L",
              "system": "http://unitsofmeasure.org"
            }
          }
        ],
        "text": {
          "status": "generated",
          "div": "<div xmlns=\"http://www.w3.org/1999/xhtml\"><table class=\"hl7__eu__lab__report\"><tr><th>Test</th><th>16-Sep-2022</th><th>Reference&#xA0;Range</th><th>Unit</th></tr><tr><td>Carbon dioxide, total [Moles/volume] in Blood</td><td>24.6</td><td>22 - 32</td><td></td><td>mmol/L</td></tr></table></div>"
        },
        "status": "final",
        "subject": {
          "reference": "urn:uuid:fbdc5417-6ab1-4e5b-a459-75a60051f13c",
          "display": "Leonhard Köhler"
        },
        "effectiveDateTime": "2022-09-16T02:48:23Z",
        "specimen": {
          "reference": "urn:uuid:1558162e-9a9c-4e18-b43f-6a36bc70a08e"
        }
      }
    },
    {
      "fullUrl": "urn:uuid:5e35cdbb-7e62-4b84-aaa0-2a3d2a1f4330",
      "resource": {
        "resourceType": "Device",
        "id": "5e35cdbb-7e62-4b84-aaa0-2a3d2a1f4330",
        "deviceName": [
          {
            "name": "SYNDERAI Synthetic Generator",
            "type": "manufacturer-name"
          }
        ],
        "version": [
          {
            "value": "5.0"
          }
        ],
        "text": {
          "status": "generated",
          "div": "<div xmlns=\"http://www.w3.org/1999/xhtml\">SYNDERAI Synthetic Generator v5.0</div>"
        },
        "status": "active\"",
        "distinctIdentifier": "synderai-generator-50",
        "manufacturer": "SYNDERAI Project"
      }
    },
    {
      "fullUrl": "urn:uuid:00fa2eb4-ea97-4527-9473-17e3e018eb45",
      "resource": {
        "resourceType": "Provenance",
        "id": "00fa2eb4-ea97-4527-9473-17e3e018eb45",
        "target": [
          {
            "reference": "Patient/fbdc5417-6ab1-4e5b-a459-75a60051f13c"
          },
          {
            "reference": "Bundle/922bd588-3a83-49e3-872b-ec0813ab43f1"
          },
          {
            "reference": "Composition/60225c8e-1ab5-42e6-91d1-4473915f815f"
          },
          {
            "reference": "PractitionerRole/3f81352b-efc0-4b0f-bd58-7d398f694a80"
          },
          {
            "reference": "Practitioner/06b4611a-28d3-4a8e-906a-9eabf7999840"
          },
          {
            "reference": "PractitionerRole/878a873f-a133-4682-ab59-a21e233ee5ad"
          },
          {
            "reference": "Organization/2d6fab68-281c-4fe3-8e1a-35e581470bbc"
          }
        ],
        "activity": {
          "text": "Synthetic Example Data Generation"
        },
        "policy": [
          "https://synderai.net/synderai-synthetic-data-policy"
        ],
        "agent": [
          {
            "type": {
              "text": "author"
            },
            "who": {
              "reference": "Device/5e35cdbb-7e62-4b84-aaa0-2a3d2a1f4330"
            }
          }
        ],
        "reason": [
          {
            "text": "Interoperability Testing and Training (non-clinical use)"
          }
        ],
        "text": {
          "status": "generated",
          "div": "<div xmlns=\"http://www.w3.org/1999/xhtml\">Provenance for SYNDERAI Synthetic Example Data Resource</div>"
        },
        "recorded": "2022-09-16T04:48:23Z"
      }
    },
    {
      "fullUrl": "urn:uuid:3f81352b-efc0-4b0f-bd58-7d398f694a80",
      "resource": {
        "resourceType": "PractitionerRole",
        "id": "3f81352b-efc0-4b0f-bd58-7d398f694a80",
        "meta": {
          "profile": [
            "http://hl7.eu/fhir/base/StructureDefinition/practitionerRole-eu"
          ]
        },
        "text": {
          "status": "generated",
          "div": "<div xmlns=\"http://www.w3.org/1999/xhtml\">Laboratory Role Id: 3f81352b-efc0-4b0f-bd58-7d398f694a80</div>"
        },
        "practitioner": {
          "reference": "urn:uuid:06b4611a-28d3-4a8e-906a-9eabf7999840"
        }
      }
    },
    {
      "fullUrl": "urn:uuid:06b4611a-28d3-4a8e-906a-9eabf7999840",
      "resource": {
        "resourceType": "Practitioner",
        "id": "06b4611a-28d3-4a8e-906a-9eabf7999840",
        "meta": {
          "profile": [
            "http://hl7.eu/fhir/base/StructureDefinition/practitioner-eu"
          ]
        },
        "identifier": [
          {
            "assigner": {
              "display": "HL7 Europe"
            },
            "system": "urn:oid:2.16.840.1.113883.2.51.999",
            "value": "8651e174-ab94-46c7-8172-51ab30165597"
          }
        ],
        "name": [
          {
            "prefix": [
              "dr"
            ],
            "given": [
              "Ex"
            ],
            "family": "Ample"
          }
        ],
        "address": [
          {
            "line": [
              "Laboratoire Central Européenne",
              "Boulevard du Jardin Botanique 32"
            ],
            "postalCode": "1000",
            "city": "Brussels",
            "country": "Belgium"
          }
        ],
        "text": {
          "status": "generated",
          "div": "<div xmlns=\"http://www.w3.org/1999/xhtml\">Laboratory: Laboratoire Central Européenne, 1000 Brussels, Belgium</div>"
        }
      }
    }
  ],
  "type": "document",
  "timestamp": "2022-09-16T04:48:23Z"
}
