{
  "resourceType": "Bundle",
  "id": "568c35bf-f2fe-47ba-944f-a10d8e5a7b68",
  "meta": {
    "profile": [
      "http://hl7.eu/fhir/laboratory/StructureDefinition/Bundle-eu-lab"
    ]
  },
  "identifier": {
    "assigner": {
      "display": "HL7 Europe"
    },
    "system": "urn:oid:2.16.840.1.113883.2.51.999",
    "value": "22d9d135-6f56-4f4e-b04c-05bc58b77ac8"
  },
  "entry": [
    {
      "fullUrl": "urn:uuid:87c6b3dc-de9f-482c-bc67-f81f7cb05852",
      "resource": {
        "resourceType": "Composition",
        "id": "87c6b3dc-de9f-482c-bc67-f81f7cb05852",
        "meta": {
          "profile": [
            "http://hl7.eu/fhir/laboratory/StructureDefinition/Composition-eu-lab"
          ]
        },
        "identifier": {
          "assigner": {
            "display": "HL7 Europe"
          },
          "system": "urn:oid:2.16.840.1.113883.2.51.999",
          "value": "4f20e9db-19eb-477d-904c-018f41410137"
        },
        "author": [
          {
            "reference": "urn:uuid:b8bd29d3-23cf-44ed-97b1-dc2ba8b5f913"
          }
        ],
        "category": [
          {
            "coding": [
              {
                "code": "26436-6",
                "system": "http://loinc.org",
                "display": "Laboratory studies (set)"
              }
            ]
          }
        ],
        "type": {
          "coding": [
            {
              "code": "11502-2",
              "system": "http://loinc.org",
              "display": "Laboratory report"
            }
          ],
          "text": "Laboratory Report"
        },
        "section": [
          {
            "code": {
              "coding": [
                {
                  "code": "26436-6",
                  "system": "http://loinc.org",
                  "display": "Laboratory studies (set)"
                }
              ],
              "text": "Laboratory studies"
            },
            "section": [
              {
                "code": {
                  "coding": [
                    {
                      "code": "$18719-5",
                      "system": "http://loinc.org",
                      "display": "Chemistry studies (set)"
                    }
                  ],
                  "text": "Chemistry"
                },
                "entry": [
                  {
                    "reference": "urn:uuid:1f979961-bd3b-4510-8a53-a279f34ec5de"
                  },
                  {
                    "reference": "urn:uuid:47b53cbb-1454-4b17-90be-01b3688af362"
                  },
                  {
                    "reference": "urn:uuid:aef8a2a5-c4e2-438c-bb3e-6739ea6cdc31"
                  },
                  {
                    "reference": "urn:uuid:d72e34e5-e09d-41db-938e-f5324ed4f6ab"
                  },
                  {
                    "reference": "urn:uuid:e193e632-09cd-433d-b125-cdffd1f22e40"
                  },
                  {
                    "reference": "urn:uuid:97bf6508-ed5e-4d28-acb2-487b1d81951f"
                  },
                  {
                    "reference": "urn:uuid:26cf1037-801e-423e-8c2c-c52bed55ade8"
                  },
                  {
                    "reference": "urn:uuid:78a27fb0-c017-46c4-96e3-d0d9612cdd0b"
                  },
                  {
                    "reference": "urn:uuid:4d69749b-65ea-4d46-9abf-1732e843c6d9"
                  },
                  {
                    "reference": "urn:uuid:39141339-2069-4ef8-807d-f98702286554"
                  },
                  {
                    "reference": "urn:uuid:3ab490e9-a01a-464c-a816-ad2b37fa2f91"
                  },
                  {
                    "reference": "urn:uuid:dfa92198-546d-4e2a-8b24-264007664690"
                  },
                  {
                    "reference": "urn:uuid:0a07efbe-b01d-4e19-8c9c-25e154678980"
                  },
                  {
                    "reference": "urn:uuid:3dccd6b9-6053-42a0-a9cf-8d570efa98ac"
                  },
                  {
                    "reference": "urn:uuid:a7f32919-710f-4687-bec2-33fa64f6b730"
                  },
                  {
                    "reference": "urn:uuid:0d107f9f-e159-4f72-a79c-06f1c49f9224"
                  }
                ],
                "text": {
                  "status": "generated",
                  "div": "<div xmlns=\"http://www.w3.org/1999/xhtml\"><h3>Chemistry</h3><table class=\"hl7__eu__lab__report\"><thead><tr><th>Test</th><th>25-MAR-2017</th><th>Reference&#xA0;Range</th><th>Unit</th></tr></thead><tbody><tr><td>Glucose [Mass/volume] in Blood</td><td>93.3</td><td>70 - 140</td><td>mg/dL</td></tr><tr><td>Urea nitrogen [Mass/volume] in Blood</td><td>14.2</td><td>7 - 30</td><td>mg/dL</td></tr><tr><td>Creatinine [Mass/volume] in Blood</td><td><strong>3.3 H</strong></td><td>0.5 - 1.3</td><td>mg/dL</td></tr><tr><td>Calcium [Mass/volume] in Blood</td><td>9.0</td><td>8.6 - 10.2</td><td>mg/dL</td></tr><tr><td>Sodium [Moles/volume] in Blood</td><td>140.4</td><td>135 - 145</td><td>mmol/L</td></tr><tr><td>Potassium [Moles/volume] in Blood</td><td>4.1</td><td>3.5 - 5.1</td><td>mmol/L</td></tr><tr><td>Chloride [Moles/volume] in Blood</td><td>104.2</td><td>98 - 114</td><td>mmol/L</td></tr><tr><td>Carbon dioxide, total [Moles/volume] in Blood</td><td>25.8</td><td>22 - 32</td><td>mmol/L</td></tr><tr><td>Protein [Mass/volume] in Serum or Plasma</td><td>7.0</td><td>6 - 8.3</td><td>g/dL</td></tr><tr><td>Albumin [Mass/volume] in Serum or Plasma</td><td>4.9</td><td>3.5 - 5.5</td><td>g/dL</td></tr><tr><td>Globulin [Mass/volume] in Serum by calculation</td><td>2.4</td><td>2 - 3.5</td><td>g/L</td></tr><tr><td>Bilirubin.total [Mass/volume] in Serum or Plasma</td><td>0.5</td><td>0.3 - 1.2</td><td>mg/dL</td></tr><tr><td>Alkaline phosphatase [Enzymatic activity/volume] in Serum or Plasma</td><td>124.1</td><td>44 - 142</td><td>U/L</td></tr><tr><td>Alanine aminotransferase [Enzymatic activity/volume] in Serum or Plasma</td><td>28.3</td><td>7 - 40</td><td>U/L</td></tr><tr><td>Aspartate aminotransferase [Enzymatic activity/volume] in Serum or Plasma</td><td>39.2</td><td>10 - 40</td><td>U/L</td></tr><tr><td>Ketones [Presence] in Urine by Test strip</td><td>Urine ketone test = +++</td><td></td><td></td></tr></tbody></table></div>"
                },
                "title": "Chemistry"
              },
              {
                "code": {
                  "coding": [
                    {
                      "code": "$18729-4",
                      "system": "http://loinc.org",
                      "display": "Urinalysis studies (set)"
                    }
                  ],
                  "text": "Urinalysis"
                },
                "entry": [
                  {
                    "reference": "urn:uuid:ed5af801-d5f1-43b8-9375-2c771abb6040"
                  },
                  {
                    "reference": "urn:uuid:eddff30b-ab38-46d4-b7e5-c6f3c0324057"
                  },
                  {
                    "reference": "urn:uuid:ab79fe69-d17d-4d89-92ef-6c8a539f6013"
                  },
                  {
                    "reference": "urn:uuid:6d276db2-80d7-4196-ae80-1b6ea5e1fbce"
                  },
                  {
                    "reference": "urn:uuid:06d5a2fd-73cc-4ef0-b0c1-b5f9aa3a30f7"
                  },
                  {
                    "reference": "urn:uuid:63327db0-af6b-4110-9675-67d6d7968669"
                  },
                  {
                    "reference": "urn:uuid:46e47fff-d856-472d-b1d8-ac86f61042ac"
                  },
                  {
                    "reference": "urn:uuid:28eac919-1261-4133-8137-df0315a3e30c"
                  },
                  {
                    "reference": "urn:uuid:c8162deb-93fb-418c-a6be-de2262109f79"
                  },
                  {
                    "reference": "urn:uuid:060d8b7d-20e7-44fd-b0a0-74d69bd2687c"
                  },
                  {
                    "reference": "urn:uuid:f7732f3c-ee7d-431d-91af-bce5935ba7b3"
                  },
                  {
                    "reference": "urn:uuid:165fa3b3-e046-4f47-a3e3-9e6bed8fe7b3"
                  }
                ],
                "text": {
                  "status": "generated",
                  "div": "<div xmlns=\"http://www.w3.org/1999/xhtml\"><h3>Urinalysis</h3><table class=\"hl7__eu__lab__report\"><thead><tr><th>Test</th><th>25-MAR-2017</th><th>Reference&#xA0;Range</th><th>Unit</th></tr></thead><tbody><tr><td>Glucose [Mass/volume] in Urine by Test strip</td><td><strong>1.3 H</strong></td><td>0.8 - 0</td><td>mg/dL</td></tr><tr><td>Glucose [Presence] in Urine by Test strip</td><td>++</td><td></td><td></td></tr><tr><td>Bilirubin.total [Mass/volume] in Urine by Test strip</td><td>0.3</td><td>0 - 1.5</td><td>mg/dL</td></tr><tr><td>Bilirubin.total [Presence] in Urine by Test strip</td><td>Finding of bilirubin in urine</td><td></td><td></td></tr><tr><td>Ketones [Mass/volume] in Urine by Test strip</td><td><strong>8.7 H</strong></td><td>0 - 8</td><td>mg/dL</td></tr><tr><td>Specific gravity of Urine by Test strip</td><td><strong>1.0 L</strong></td><td>1.01 - 1.03</td><td>{nominal}</td></tr><tr><td>pH of Urine by Test strip</td><td>5.2</td><td>4.6 - 7.5</td><td>pH</td></tr><tr><td>Protein [Mass/volume] in Urine by Test strip</td><td><strong>410.4 H</strong></td><td>0 - 14</td><td>mg/dL</td></tr><tr><td>Protein [Presence] in Urine by Test strip</td><td>Urine protein test = +++</td><td></td><td></td></tr><tr><td>Nitrite [Presence] in Urine by Test strip</td><td>Urine nitrite negative</td><td></td><td></td></tr><tr><td>Hemoglobin [Presence] in Urine by Test strip</td><td>Urine blood test = negative</td><td></td><td></td></tr><tr><td>Leukocyte esterase [Presence] in Urine by Test strip</td><td>Urine leukocyte test negative</td><td></td><td></td></tr></tbody></table></div>"
                },
                "title": "Urinalysis"
              },
              {
                "code": {
                  "coding": [
                    {
                      "code": "$LP7846-1",
                      "system": "http://loinc.org",
                      "display": "Specimen information"
                    }
                  ],
                  "text": "Specimen information"
                },
                "entry": [
                  {
                    "reference": "urn:uuid:29648c8d-3c35-48b0-8f1e-d64632492546"
                  },
                  {
                    "reference": "urn:uuid:64edf3dc-cdc2-40ed-92f1-fbc669c554b6"
                  },
                  {
                    "reference": "urn:uuid:d7a90e20-248b-47a9-aec3-9302adc6a633"
                  },
                  {
                    "reference": "urn:uuid:5653d28b-b5ce-4828-9df4-fde7fceb8e27"
                  }
                ],
                "text": {
                  "status": "generated",
                  "div": "<div xmlns=\"http://www.w3.org/1999/xhtml\"><h3>Specimen information</h3><table class=\"hl7__eu__lab__report\"><thead><tr><th>Test</th><th>25-MAR-2017</th><th>Specimen</th><th></th></tr></thead><tbody><tr><td>Appearance of Urine</td><td>Cloudy urine</td><td>Urine</td><td></td></tr><tr><td>Odor of Urine</td><td>Urine smell ammoniacal</td><td>Urine</td><td></td></tr><tr><td>Clarity of Urine</td><td>Translucent</td><td>Urine</td><td></td></tr><tr><td>Color of Urine</td><td>Brown color</td><td>Urine</td><td></td></tr></tbody></table></div>"
                },
                "title": "Specimen information"
              }
            ],
            "title": "Laboratory Report"
          },
          {
            "text": {
              "status": "generated",
              "div": "<div xmlns=\"http://www.w3.org/1999/xhtml\"><h3>Annotation</h3><table class=\"hl7__eu__lab__report\"><tr><th>Conclusion and Recommendations based on this report and previous findings known to us</th></tr><tr><td>The patient shows marked elevation of serum creatinine, indicating significant renal impairment. Urinalysis reveals proteinuria, glucosuria, and ketonuria, with low specific gravity and abnormal urine appearance, suggesting possible nephrotic syndrome or diabetic nephropathy with impaired concentrating ability. No evidence of urinary tract infection is present. Liver function and electrolytes are within normal limits. Recommend urgent nephrology evaluation and assessment for underlying causes of acute or chronic kidney disease.</td></tr></table></div>"
            },
            "code": {
              "coding": [
                {
                  "system": "http://loinc.org",
                  "code": "48767-8",
                  "display": "Annotation comment"
                }
              ]
            },
            "title": "Annotation comment"
          }
        ],
        "status": "final",
        "subject": {
          "reference": "urn:uuid:bf1bbba5-af6f-4761-9630-270f10f301ab",
          "display": "Maria Nohlmans"
        },
        "date": "2017-03-25T18:29:39Z",
        "title": "Laboratory Report",
        "confidentiality": "N"
      }
    },
    {
      "fullUrl": "urn:uuid:7ea68931-3a0d-43e8-abb4-84a5e6e7c36e",
      "resource": {
        "resourceType": "DiagnosticReport",
        "id": "7ea68931-3a0d-43e8-abb4-84a5e6e7c36e",
        "meta": {
          "profile": [
            "http://hl7.eu/fhir/laboratory/StructureDefinition/DiagnosticReport-eu-lab"
          ]
        },
        "identifier": [
          {
            "assigner": {
              "display": "HL7 Europe"
            },
            "system": "urn:oid:2.16.840.1.113883.2.51.999",
            "value": "119e31c5-20a9-4f84-a673-d91416e22b63"
          }
        ],
        "extension": [
          {
            "url": "http://hl7.org/fhir/5.0/StructureDefinition/extension-DiagnosticReport.composition",
            "valueReference": {
              "reference": "urn:uuid:4f20e9db-19eb-477d-904c-018f41410137"
            }
          }
        ],
        "category": [
          {
            "coding": [
              {
                "code": "26436-6",
                "system": "http://loinc.org",
                "display": "Laboratory studies (set)"
              }
            ]
          }
        ],
        "specimen": [
          {
            "reference": "urn:uuid:e5ce4fd0-244a-434f-be61-c006fa67b2c9"
          },
          {
            "reference": "urn:uuid:3a8f32e0-b284-4657-8ba2-94d025547993"
          },
          {
            "reference": "urn:uuid:1d2c7780-3b5b-4255-b5cd-67c70c68f855"
          },
          {
            "reference": "urn:uuid:16beeab3-5a89-4ddf-9b3d-eec2203d6f42"
          }
        ],
        "result": [
          {
            "reference": "urn:uuid:1f979961-bd3b-4510-8a53-a279f34ec5de"
          },
          {
            "reference": "urn:uuid:47b53cbb-1454-4b17-90be-01b3688af362"
          },
          {
            "reference": "urn:uuid:aef8a2a5-c4e2-438c-bb3e-6739ea6cdc31"
          },
          {
            "reference": "urn:uuid:d72e34e5-e09d-41db-938e-f5324ed4f6ab"
          },
          {
            "reference": "urn:uuid:e193e632-09cd-433d-b125-cdffd1f22e40"
          },
          {
            "reference": "urn:uuid:97bf6508-ed5e-4d28-acb2-487b1d81951f"
          },
          {
            "reference": "urn:uuid:26cf1037-801e-423e-8c2c-c52bed55ade8"
          },
          {
            "reference": "urn:uuid:78a27fb0-c017-46c4-96e3-d0d9612cdd0b"
          },
          {
            "reference": "urn:uuid:4d69749b-65ea-4d46-9abf-1732e843c6d9"
          },
          {
            "reference": "urn:uuid:39141339-2069-4ef8-807d-f98702286554"
          },
          {
            "reference": "urn:uuid:3ab490e9-a01a-464c-a816-ad2b37fa2f91"
          },
          {
            "reference": "urn:uuid:dfa92198-546d-4e2a-8b24-264007664690"
          },
          {
            "reference": "urn:uuid:0a07efbe-b01d-4e19-8c9c-25e154678980"
          },
          {
            "reference": "urn:uuid:3dccd6b9-6053-42a0-a9cf-8d570efa98ac"
          },
          {
            "reference": "urn:uuid:a7f32919-710f-4687-bec2-33fa64f6b730"
          },
          {
            "reference": "urn:uuid:29648c8d-3c35-48b0-8f1e-d64632492546"
          },
          {
            "reference": "urn:uuid:64edf3dc-cdc2-40ed-92f1-fbc669c554b6"
          },
          {
            "reference": "urn:uuid:d7a90e20-248b-47a9-aec3-9302adc6a633"
          },
          {
            "reference": "urn:uuid:5653d28b-b5ce-4828-9df4-fde7fceb8e27"
          },
          {
            "reference": "urn:uuid:ed5af801-d5f1-43b8-9375-2c771abb6040"
          },
          {
            "reference": "urn:uuid:eddff30b-ab38-46d4-b7e5-c6f3c0324057"
          },
          {
            "reference": "urn:uuid:ab79fe69-d17d-4d89-92ef-6c8a539f6013"
          },
          {
            "reference": "urn:uuid:6d276db2-80d7-4196-ae80-1b6ea5e1fbce"
          },
          {
            "reference": "urn:uuid:06d5a2fd-73cc-4ef0-b0c1-b5f9aa3a30f7"
          },
          {
            "reference": "urn:uuid:0d107f9f-e159-4f72-a79c-06f1c49f9224"
          },
          {
            "reference": "urn:uuid:63327db0-af6b-4110-9675-67d6d7968669"
          },
          {
            "reference": "urn:uuid:46e47fff-d856-472d-b1d8-ac86f61042ac"
          },
          {
            "reference": "urn:uuid:28eac919-1261-4133-8137-df0315a3e30c"
          },
          {
            "reference": "urn:uuid:c8162deb-93fb-418c-a6be-de2262109f79"
          },
          {
            "reference": "urn:uuid:060d8b7d-20e7-44fd-b0a0-74d69bd2687c"
          },
          {
            "reference": "urn:uuid:f7732f3c-ee7d-431d-91af-bce5935ba7b3"
          },
          {
            "reference": "urn:uuid:165fa3b3-e046-4f47-a3e3-9e6bed8fe7b3"
          }
        ],
        "status": "registered",
        "code": {
          "coding": [
            {
              "code": "11502-2",
              "system": "http://loinc.org",
              "display": "Laboratory report"
            }
          ]
        },
        "subject": {
          "reference": "urn:uuid:bf1bbba5-af6f-4761-9630-270f10f301ab",
          "display": "Maria Nohlmans"
        }
      }
    },
    {
      "fullUrl": "urn:uuid:bf1bbba5-af6f-4761-9630-270f10f301ab",
      "resource": {
        "resourceType": "Patient",
        "id": "bf1bbba5-af6f-4761-9630-270f10f301ab",
        "meta": {
          "security": [
            {
              "system": "http://terminology.hl7.org/CodeSystem/v3-ActReason",
              "code": "HTEST"
            },
            {
              "system": "http://terminology.hl7.org/CodeSystem/v3-ActReason",
              "code": "TRAIN"
            }
          ],
          "tag": [
            {
              "system": "https://synderai.net/fhir/CodeSystem/tags",
              "code": "synthetic",
              "display": "SYNDERAI Synthetic data"
            }
          ],
          "profile": [
            "http://hl7.eu/fhir/base/StructureDefinition/patient-eu-core"
          ]
        },
        "identifier": [
          {
            "type": {
              "coding": [
                {
                  "code": "PT",
                  "system": "http://terminology.hl7.org/CodeSystem/v2-0203"
                }
              ]
            },
            "system": "http://ec.europa.eu/identifier/eci",
            "value": "6886-506417-1"
          },
          {
            "type": {
              "coding": [
                {
                  "code": "MR",
                  "system": "http://terminology.hl7.org/CodeSystem/v2-0203"
                }
              ]
            },
            "system": "http://local.setting.eu/identifier",
            "value": "2cb21ed6-b617-b1f3-2290-589a710de5ee"
          }
        ],
        "name": [
          {
            "family": "Nohlmans"
          },
          {
            "given": [
              "Maria"
            ]
          },
          {
            "text": "Maria Nohlmans"
          }
        ],
        "address": [
          {
            "line": [
              "Alfons-Wulff-Weg 1"
            ],
            "use": "home",
            "type": "physical",
            "postalCode": "25813",
            "city": "Husum",
            "country": "Germany"
          }
        ],
        "telecom": [
          {
            "system": "phone",
            "value": "+49(0)1911 105501"
          }
        ],
        "extension": [
          {
            "url": "http://hl7.org/fhir/StructureDefinition/patient-nationality",
            "valueCodeableConcept": {
              "coding": [
                {
                  "code": "DE",
                  "system": "http://hl7.org/fhir/ValueSet/country"
                }
              ]
            }
          }
        ],
        "text": {
          "status": "generated",
          "div": "<div xmlns=\"http://www.w3.org/1999/xhtml\"><table class=\"hl7__ips\"><tr><td>Maria Nohlmans</td><td>female</td><td>11-Jun-1947</td></tr></table></div>"
        },
        "gender": "female",
        "birthDate": "1947-06-11"
      }
    },
    {
      "fullUrl": "urn:uuid:0102ef31-a283-435f-b336-2ec73993f0a1",
      "resource": {
        "resourceType": "ServiceRequest",
        "id": "0102ef31-a283-435f-b336-2ec73993f0a1",
        "meta": {
          "profile": [
            "http://hl7.eu/fhir/laboratory/StructureDefinition/ServiceRequest-eu-lab"
          ]
        },
        "identifier": [
          {
            "system": "http://example.org",
            "value": "6e9f0660-8bf2-429c-a46c-8bb2e7e005c7"
          }
        ],
        "specimen": [
          {
            "reference": "urn:uuid:e5ce4fd0-244a-434f-be61-c006fa67b2c9"
          },
          {
            "reference": "urn:uuid:3a8f32e0-b284-4657-8ba2-94d025547993"
          },
          {
            "reference": "urn:uuid:1d2c7780-3b5b-4255-b5cd-67c70c68f855"
          },
          {
            "reference": "urn:uuid:16beeab3-5a89-4ddf-9b3d-eec2203d6f42"
          }
        ],
        "reasonCode": [
          {
            "coding": [
              {
                "code": "401314000",
                "system": "http://snomed.info/sct",
                "display": "Acute non-ST segment elevation myocardial infarction"
              }
            ]
          },
          {
            "coding": [
              {
                "code": "157141000119108",
                "system": "http://snomed.info/sct",
                "display": "Proteinuria due to type 2 diabetes mellitus"
              }
            ]
          },
          {
            "coding": [
              {
                "code": "237602007",
                "system": "http://snomed.info/sct",
                "display": "Metabolic syndrome X"
              }
            ]
          },
          {
            "coding": [
              {
                "code": "90781000119102",
                "system": "http://snomed.info/sct",
                "display": "Microalbuminuria due to type 2 diabetes mellitus"
              }
            ]
          },
          {
            "coding": [
              {
                "code": "127013003",
                "system": "http://snomed.info/sct",
                "display": "Disorder of kidney due to diabetes mellitus"
              }
            ]
          },
          {
            "coding": [
              {
                "code": "59621000",
                "system": "http://snomed.info/sct",
                "display": "Essential hypertension"
              }
            ]
          },
          {
            "coding": [
              {
                "code": "271737000",
                "system": "http://snomed.info/sct",
                "display": "Anemia"
              }
            ]
          },
          {
            "coding": [
              {
                "code": "15777000",
                "system": "http://snomed.info/sct",
                "display": "Prediabetes"
              }
            ]
          }
        ],
        "status": "active",
        "intent": "order",
        "code": {
          "coding": [
            {
              "code": "108252007",
              "system": "http://snomed.info/sct",
              "display": "Laboratory procedure"
            }
          ]
        },
        "subject": {
          "reference": "urn:uuid:bf1bbba5-af6f-4761-9630-270f10f301ab",
          "display": "Maria Nohlmans"
        },
        "requester": {
          "reference": "urn:uuid:946c5e67-cc4a-4aa8-8862-5464c2f9a7c6"
        }
      }
    },
    {
      "fullUrl": "urn:uuid:946c5e67-cc4a-4aa8-8862-5464c2f9a7c6",
      "resource": {
        "resourceType": "PractitionerRole",
        "id": "946c5e67-cc4a-4aa8-8862-5464c2f9a7c6",
        "meta": {
          "profile": [
            "http://hl7.eu/fhir/base/StructureDefinition/practitionerRole-eu"
          ]
        },
        "text": {
          "status": "generated",
          "div": "<div xmlns=\"http://www.w3.org/1999/xhtml\">Provider Role Id: 946c5e67-cc4a-4aa8-8862-5464c2f9a7c6</div>"
        },
        "organization": {
          "reference": "urn:uuid:238ec0d4-bf4f-40d2-a2d5-e1b9a846fba2"
        }
      }
    },
    {
      "fullUrl": "urn:uuid:238ec0d4-bf4f-40d2-a2d5-e1b9a846fba2",
      "resource": {
        "resourceType": "Organization",
        "id": "238ec0d4-bf4f-40d2-a2d5-e1b9a846fba2",
        "meta": {
          "profile": [
            "http://hl7.eu/fhir/base/StructureDefinition/organization-eu"
          ]
        },
        "identifier": [
          {
            "assigner": {
              "display": "HL7 Europe"
            },
            "system": "urn:oid:2.16.840.1.113883.2.51.999",
            "value": "3ba41b3e-9975-477e-875b-cf030c49bee1"
          }
        ],
        "address": [
          {
            "line": [
              "Brinckmannstraße 35"
            ],
            "city": "Husum",
            "postalCode": "25813",
            "country": "Germany"
          }
        ],
        "text": {
          "status": "generated",
          "div": "<div xmlns=\"http://www.w3.org/1999/xhtml\">Provider Organization: Dr. Wolfram Hussels Kieferorthopäde</div>"
        },
        "name": "Dr. Wolfram Hussels Kieferorthopäde"
      }
    },
    {
      "fullUrl": "urn:uuid:e5ce4fd0-244a-434f-be61-c006fa67b2c9",
      "resource": {
        "resourceType": "Specimen",
        "id": "e5ce4fd0-244a-434f-be61-c006fa67b2c9",
        "meta": {
          "profile": [
            "http://hl7.eu/fhir/laboratory/StructureDefinition/Specimen-eu-lab"
          ]
        },
        "collection": {
          "collectedDateTime": "2017-03-25"
        },
        "text": {
          "status": "generated",
          "div": "<div xmlns=\"http://www.w3.org/1999/xhtml\"><table class=\"hl7__eu__lab__report\"><tr><th>Specimen</th><th>Collection Date</th></tr><tr><td>Whole blood specimen (specimen)</td><td><span class=\"nb\">25-Mar-2017</span></td></tr></table></div>"
        },
        "type": {
          "coding": [
            {
              "code": "258580003",
              "system": "http://snomed.info/sct",
              "display": "Whole blood specimen (specimen)"
            }
          ]
        }
      }
    },
    {
      "fullUrl": "urn:uuid:3a8f32e0-b284-4657-8ba2-94d025547993",
      "resource": {
        "resourceType": "Specimen",
        "id": "3a8f32e0-b284-4657-8ba2-94d025547993",
        "meta": {
          "profile": [
            "http://hl7.eu/fhir/laboratory/StructureDefinition/Specimen-eu-lab"
          ]
        },
        "collection": {
          "collectedDateTime": "2017-03-25"
        },
        "text": {
          "status": "generated",
          "div": "<div xmlns=\"http://www.w3.org/1999/xhtml\"><table class=\"hl7__eu__lab__report\"><tr><th>Specimen</th><th>Collection Date</th></tr><tr><td>Acellular blood (serum or plasma) specimen</td><td><span class=\"nb\">25-Mar-2017</span></td></tr></table></div>"
        },
        "type": {
          "coding": [
            {
              "code": "122592007",
              "system": "http://snomed.info/sct",
              "display": "Acellular blood (serum or plasma) specimen"
            }
          ]
        }
      }
    },
    {
      "fullUrl": "urn:uuid:1d2c7780-3b5b-4255-b5cd-67c70c68f855",
      "resource": {
        "resourceType": "Specimen",
        "id": "1d2c7780-3b5b-4255-b5cd-67c70c68f855",
        "meta": {
          "profile": [
            "http://hl7.eu/fhir/laboratory/StructureDefinition/Specimen-eu-lab"
          ]
        },
        "collection": {
          "collectedDateTime": "2017-03-25"
        },
        "text": {
          "status": "generated",
          "div": "<div xmlns=\"http://www.w3.org/1999/xhtml\"><table class=\"hl7__eu__lab__report\"><tr><th>Specimen</th><th>Collection Date</th></tr><tr><td>Serum specimen</td><td><span class=\"nb\">25-Mar-2017</span></td></tr></table></div>"
        },
        "type": {
          "coding": [
            {
              "code": "119364003",
              "system": "http://snomed.info/sct",
              "display": "Serum specimen"
            }
          ]
        }
      }
    },
    {
      "fullUrl": "urn:uuid:16beeab3-5a89-4ddf-9b3d-eec2203d6f42",
      "resource": {
        "resourceType": "Specimen",
        "id": "16beeab3-5a89-4ddf-9b3d-eec2203d6f42",
        "meta": {
          "profile": [
            "http://hl7.eu/fhir/laboratory/StructureDefinition/Specimen-eu-lab"
          ]
        },
        "collection": {
          "collectedDateTime": "2017-03-25"
        },
        "text": {
          "status": "generated",
          "div": "<div xmlns=\"http://www.w3.org/1999/xhtml\"><table class=\"hl7__eu__lab__report\"><tr><th>Specimen</th><th>Collection Date</th></tr><tr><td>Urine specimen</td><td><span class=\"nb\">25-Mar-2017</span></td></tr></table></div>"
        },
        "type": {
          "coding": [
            {
              "code": "122575003",
              "system": "http://snomed.info/sct",
              "display": "Urine specimen"
            }
          ]
        }
      }
    },
    {
      "fullUrl": "urn:uuid:1f979961-bd3b-4510-8a53-a279f34ec5de",
      "resource": {
        "resourceType": "Observation",
        "id": "1f979961-bd3b-4510-8a53-a279f34ec5de",
        "meta": {
          "profile": [
            "http://hl7.eu/fhir/laboratory/StructureDefinition/Observation-resultslab-eu-lab"
          ]
        },
        "performer": [
          {
            "display": "The Central European Lab"
          }
        ],
        "category": [
          {
            "coding": [
              {
                "system": "http://terminology.hl7.org/CodeSystem/observation-category",
                "code": "laboratory"
              }
            ]
          }
        ],
        "code": {
          "coding": [
            {
              "code": "2339-0",
              "system": "http://loinc.org",
              "display": "Glucose [Mass/volume] in Blood"
            }
          ],
          "text": "Glucose [Mass/volume] in Blood"
        },
        "valueQuantity": {
          "system": "http://unitsofmeasure.org",
          "value": 93.3,
          "unit": "mg/dL",
          "code": "mg/dL"
        },
        "referenceRange": [
          {
            "low": {
              "value": 70,
              "code": "mg/dL",
              "system": "http://unitsofmeasure.org"
            }
          },
          {
            "high": {
              "value": 140,
              "code": "mg/dL",
              "system": "http://unitsofmeasure.org"
            }
          }
        ],
        "text": {
          "status": "generated",
          "div": "<div xmlns=\"http://www.w3.org/1999/xhtml\"><table class=\"hl7__eu__lab__report\"><tr><th>Test</th><th>25-Mar-2017</th><th>Reference&#xA0;Range</th><th>Unit</th></tr><tr><td>Glucose [Mass/volume] in Blood</td><td>93.3</td><td>70 - 140</td><td></td><td>mg/dL</td></tr></table></div>"
        },
        "status": "final",
        "subject": {
          "reference": "urn:uuid:bf1bbba5-af6f-4761-9630-270f10f301ab",
          "display": "Maria Nohlmans"
        },
        "effectiveDateTime": "2017-03-25T17:29:39Z",
        "specimen": {
          "reference": "urn:uuid:e5ce4fd0-244a-434f-be61-c006fa67b2c9"
        }
      }
    },
    {
      "fullUrl": "urn:uuid:47b53cbb-1454-4b17-90be-01b3688af362",
      "resource": {
        "resourceType": "Observation",
        "id": "47b53cbb-1454-4b17-90be-01b3688af362",
        "meta": {
          "profile": [
            "http://hl7.eu/fhir/laboratory/StructureDefinition/Observation-resultslab-eu-lab"
          ]
        },
        "performer": [
          {
            "display": "The Central European Lab"
          }
        ],
        "category": [
          {
            "coding": [
              {
                "system": "http://terminology.hl7.org/CodeSystem/observation-category",
                "code": "laboratory"
              }
            ]
          }
        ],
        "code": {
          "coding": [
            {
              "code": "6299-2",
              "system": "http://loinc.org",
              "display": "Urea nitrogen [Mass/volume] in Blood"
            }
          ],
          "text": "Urea nitrogen [Mass/volume] in Blood"
        },
        "valueQuantity": {
          "system": "http://unitsofmeasure.org",
          "value": 14.2,
          "unit": "mg/dL",
          "code": "mg/dL"
        },
        "referenceRange": [
          {
            "low": {
              "value": 7,
              "code": "mg/dL",
              "system": "http://unitsofmeasure.org"
            }
          },
          {
            "high": {
              "value": 30,
              "code": "mg/dL",
              "system": "http://unitsofmeasure.org"
            }
          }
        ],
        "text": {
          "status": "generated",
          "div": "<div xmlns=\"http://www.w3.org/1999/xhtml\"><table class=\"hl7__eu__lab__report\"><tr><th>Test</th><th>25-Mar-2017</th><th>Reference&#xA0;Range</th><th>Unit</th></tr><tr><td>Urea nitrogen [Mass/volume] in Blood</td><td>14.2</td><td>7 - 30</td><td></td><td>mg/dL</td></tr></table></div>"
        },
        "status": "final",
        "subject": {
          "reference": "urn:uuid:bf1bbba5-af6f-4761-9630-270f10f301ab",
          "display": "Maria Nohlmans"
        },
        "effectiveDateTime": "2017-03-25T17:29:39Z",
        "specimen": {
          "reference": "urn:uuid:e5ce4fd0-244a-434f-be61-c006fa67b2c9"
        }
      }
    },
    {
      "fullUrl": "urn:uuid:aef8a2a5-c4e2-438c-bb3e-6739ea6cdc31",
      "resource": {
        "resourceType": "Observation",
        "id": "aef8a2a5-c4e2-438c-bb3e-6739ea6cdc31",
        "meta": {
          "profile": [
            "http://hl7.eu/fhir/laboratory/StructureDefinition/Observation-resultslab-eu-lab"
          ]
        },
        "performer": [
          {
            "display": "The Central European Lab"
          }
        ],
        "category": [
          {
            "coding": [
              {
                "system": "http://terminology.hl7.org/CodeSystem/observation-category",
                "code": "laboratory"
              }
            ]
          }
        ],
        "code": {
          "coding": [
            {
              "code": "38483-4",
              "system": "http://loinc.org",
              "display": "Creatinine [Mass/volume] in Blood"
            }
          ],
          "text": "Creatinine [Mass/volume] in Blood"
        },
        "valueQuantity": {
          "system": "http://unitsofmeasure.org",
          "value": 3.3,
          "unit": "mg/dL",
          "code": "mg/dL"
        },
        "referenceRange": [
          {
            "low": {
              "value": 0.5,
              "code": "mg/dL",
              "system": "http://unitsofmeasure.org"
            }
          },
          {
            "high": {
              "value": 1.3,
              "code": "mg/dL",
              "system": "http://unitsofmeasure.org"
            }
          }
        ],
        "interpretation": [
          {
            "coding": [
              {
                "code": "H",
                "system": "http://terminology.hl7.org/CodeSystem/v3-ObservationInterpretation",
                "display": "High"
              }
            ]
          }
        ],
        "text": {
          "status": "generated",
          "div": "<div xmlns=\"http://www.w3.org/1999/xhtml\"><table class=\"hl7__eu__lab__report\"><tr><th>Test</th><th>25-Mar-2017</th><th>Reference&#xA0;Range</th><th>Unit</th></tr><tr><td>Creatinine [Mass/volume] in Blood</td><td>3.3</td><td>0.5 - 1.3</td><td>H</td><td>mg/dL</td></tr></table></div>"
        },
        "status": "final",
        "subject": {
          "reference": "urn:uuid:bf1bbba5-af6f-4761-9630-270f10f301ab",
          "display": "Maria Nohlmans"
        },
        "effectiveDateTime": "2017-03-25T17:29:39Z",
        "specimen": {
          "reference": "urn:uuid:e5ce4fd0-244a-434f-be61-c006fa67b2c9"
        }
      }
    },
    {
      "fullUrl": "urn:uuid:d72e34e5-e09d-41db-938e-f5324ed4f6ab",
      "resource": {
        "resourceType": "Observation",
        "id": "d72e34e5-e09d-41db-938e-f5324ed4f6ab",
        "meta": {
          "profile": [
            "http://hl7.eu/fhir/laboratory/StructureDefinition/Observation-resultslab-eu-lab"
          ]
        },
        "performer": [
          {
            "display": "The Central European Lab"
          }
        ],
        "category": [
          {
            "coding": [
              {
                "system": "http://terminology.hl7.org/CodeSystem/observation-category",
                "code": "laboratory"
              }
            ]
          }
        ],
        "code": {
          "coding": [
            {
              "code": "49765-1",
              "system": "http://loinc.org",
              "display": "Calcium [Mass/volume] in Blood"
            }
          ],
          "text": "Calcium [Mass/volume] in Blood"
        },
        "valueQuantity": {
          "system": "http://unitsofmeasure.org",
          "value": 9,
          "unit": "mg/dL",
          "code": "mg/dL"
        },
        "referenceRange": [
          {
            "low": {
              "value": 8.6,
              "code": "mg/dL",
              "system": "http://unitsofmeasure.org"
            }
          },
          {
            "high": {
              "value": 10.2,
              "code": "mg/dL",
              "system": "http://unitsofmeasure.org"
            }
          }
        ],
        "text": {
          "status": "generated",
          "div": "<div xmlns=\"http://www.w3.org/1999/xhtml\"><table class=\"hl7__eu__lab__report\"><tr><th>Test</th><th>25-Mar-2017</th><th>Reference&#xA0;Range</th><th>Unit</th></tr><tr><td>Calcium [Mass/volume] in Blood</td><td>9.0</td><td>8.6 - 10.2</td><td></td><td>mg/dL</td></tr></table></div>"
        },
        "status": "final",
        "subject": {
          "reference": "urn:uuid:bf1bbba5-af6f-4761-9630-270f10f301ab",
          "display": "Maria Nohlmans"
        },
        "effectiveDateTime": "2017-03-25T17:29:39Z",
        "specimen": {
          "reference": "urn:uuid:e5ce4fd0-244a-434f-be61-c006fa67b2c9"
        }
      }
    },
    {
      "fullUrl": "urn:uuid:e193e632-09cd-433d-b125-cdffd1f22e40",
      "resource": {
        "resourceType": "Observation",
        "id": "e193e632-09cd-433d-b125-cdffd1f22e40",
        "meta": {
          "profile": [
            "http://hl7.eu/fhir/laboratory/StructureDefinition/Observation-resultslab-eu-lab"
          ]
        },
        "performer": [
          {
            "display": "The Central European Lab"
          }
        ],
        "category": [
          {
            "coding": [
              {
                "system": "http://terminology.hl7.org/CodeSystem/observation-category",
                "code": "laboratory"
              }
            ]
          }
        ],
        "code": {
          "coding": [
            {
              "code": "2947-0",
              "system": "http://loinc.org",
              "display": "Sodium [Moles/volume] in Blood"
            }
          ],
          "text": "Sodium [Moles/volume] in Blood"
        },
        "valueQuantity": {
          "system": "http://unitsofmeasure.org",
          "value": 140.4,
          "unit": "mmol/L",
          "code": "mmol/L"
        },
        "referenceRange": [
          {
            "low": {
              "value": 135,
              "code": "mmol/L",
              "system": "http://unitsofmeasure.org"
            }
          },
          {
            "high": {
              "value": 145,
              "code": "mmol/L",
              "system": "http://unitsofmeasure.org"
            }
          }
        ],
        "text": {
          "status": "generated",
          "div": "<div xmlns=\"http://www.w3.org/1999/xhtml\"><table class=\"hl7__eu__lab__report\"><tr><th>Test</th><th>25-Mar-2017</th><th>Reference&#xA0;Range</th><th>Unit</th></tr><tr><td>Sodium [Moles/volume] in Blood</td><td>140.4</td><td>135 - 145</td><td></td><td>mmol/L</td></tr></table></div>"
        },
        "status": "final",
        "subject": {
          "reference": "urn:uuid:bf1bbba5-af6f-4761-9630-270f10f301ab",
          "display": "Maria Nohlmans"
        },
        "effectiveDateTime": "2017-03-25T17:29:39Z",
        "specimen": {
          "reference": "urn:uuid:e5ce4fd0-244a-434f-be61-c006fa67b2c9"
        }
      }
    },
    {
      "fullUrl": "urn:uuid:97bf6508-ed5e-4d28-acb2-487b1d81951f",
      "resource": {
        "resourceType": "Observation",
        "id": "97bf6508-ed5e-4d28-acb2-487b1d81951f",
        "meta": {
          "profile": [
            "http://hl7.eu/fhir/laboratory/StructureDefinition/Observation-resultslab-eu-lab"
          ]
        },
        "performer": [
          {
            "display": "The Central European Lab"
          }
        ],
        "category": [
          {
            "coding": [
              {
                "system": "http://terminology.hl7.org/CodeSystem/observation-category",
                "code": "laboratory"
              }
            ]
          }
        ],
        "code": {
          "coding": [
            {
              "code": "6298-4",
              "system": "http://loinc.org",
              "display": "Potassium [Moles/volume] in Blood"
            }
          ],
          "text": "Potassium [Moles/volume] in Blood"
        },
        "valueQuantity": {
          "system": "http://unitsofmeasure.org",
          "value": 4.1,
          "unit": "mmol/L",
          "code": "mmol/L"
        },
        "referenceRange": [
          {
            "low": {
              "value": 3.5,
              "code": "mmol/L",
              "system": "http://unitsofmeasure.org"
            }
          },
          {
            "high": {
              "value": 5.1,
              "code": "mmol/L",
              "system": "http://unitsofmeasure.org"
            }
          }
        ],
        "text": {
          "status": "generated",
          "div": "<div xmlns=\"http://www.w3.org/1999/xhtml\"><table class=\"hl7__eu__lab__report\"><tr><th>Test</th><th>25-Mar-2017</th><th>Reference&#xA0;Range</th><th>Unit</th></tr><tr><td>Potassium [Moles/volume] in Blood</td><td>4.1</td><td>3.5 - 5.1</td><td></td><td>mmol/L</td></tr></table></div>"
        },
        "status": "final",
        "subject": {
          "reference": "urn:uuid:bf1bbba5-af6f-4761-9630-270f10f301ab",
          "display": "Maria Nohlmans"
        },
        "effectiveDateTime": "2017-03-25T17:29:39Z",
        "specimen": {
          "reference": "urn:uuid:e5ce4fd0-244a-434f-be61-c006fa67b2c9"
        }
      }
    },
    {
      "fullUrl": "urn:uuid:26cf1037-801e-423e-8c2c-c52bed55ade8",
      "resource": {
        "resourceType": "Observation",
        "id": "26cf1037-801e-423e-8c2c-c52bed55ade8",
        "meta": {
          "profile": [
            "http://hl7.eu/fhir/laboratory/StructureDefinition/Observation-resultslab-eu-lab"
          ]
        },
        "performer": [
          {
            "display": "The Central European Lab"
          }
        ],
        "category": [
          {
            "coding": [
              {
                "system": "http://terminology.hl7.org/CodeSystem/observation-category",
                "code": "laboratory"
              }
            ]
          }
        ],
        "code": {
          "coding": [
            {
              "code": "2069-3",
              "system": "http://loinc.org",
              "display": "Chloride [Moles/volume] in Blood"
            }
          ],
          "text": "Chloride [Moles/volume] in Blood"
        },
        "valueQuantity": {
          "system": "http://unitsofmeasure.org",
          "value": 104.2,
          "unit": "mmol/L",
          "code": "mmol/L"
        },
        "referenceRange": [
          {
            "low": {
              "value": 98,
              "code": "mmol/L",
              "system": "http://unitsofmeasure.org"
            }
          },
          {
            "high": {
              "value": 114,
              "code": "mmol/L",
              "system": "http://unitsofmeasure.org"
            }
          }
        ],
        "text": {
          "status": "generated",
          "div": "<div xmlns=\"http://www.w3.org/1999/xhtml\"><table class=\"hl7__eu__lab__report\"><tr><th>Test</th><th>25-Mar-2017</th><th>Reference&#xA0;Range</th><th>Unit</th></tr><tr><td>Chloride [Moles/volume] in Blood</td><td>104.2</td><td>98 - 114</td><td></td><td>mmol/L</td></tr></table></div>"
        },
        "status": "final",
        "subject": {
          "reference": "urn:uuid:bf1bbba5-af6f-4761-9630-270f10f301ab",
          "display": "Maria Nohlmans"
        },
        "effectiveDateTime": "2017-03-25T17:29:39Z",
        "specimen": {
          "reference": "urn:uuid:e5ce4fd0-244a-434f-be61-c006fa67b2c9"
        }
      }
    },
    {
      "fullUrl": "urn:uuid:78a27fb0-c017-46c4-96e3-d0d9612cdd0b",
      "resource": {
        "resourceType": "Observation",
        "id": "78a27fb0-c017-46c4-96e3-d0d9612cdd0b",
        "meta": {
          "profile": [
            "http://hl7.eu/fhir/laboratory/StructureDefinition/Observation-resultslab-eu-lab"
          ]
        },
        "performer": [
          {
            "display": "The Central European Lab"
          }
        ],
        "category": [
          {
            "coding": [
              {
                "system": "http://terminology.hl7.org/CodeSystem/observation-category",
                "code": "laboratory"
              }
            ]
          }
        ],
        "code": {
          "coding": [
            {
              "code": "20565-8",
              "system": "http://loinc.org",
              "display": "Carbon dioxide, total [Moles/volume] in Blood"
            }
          ],
          "text": "Carbon dioxide, total [Moles/volume] in Blood"
        },
        "valueQuantity": {
          "system": "http://unitsofmeasure.org",
          "value": 25.8,
          "unit": "mmol/L",
          "code": "mmol/L"
        },
        "referenceRange": [
          {
            "low": {
              "value": 22,
              "code": "mmol/L",
              "system": "http://unitsofmeasure.org"
            }
          },
          {
            "high": {
              "value": 32,
              "code": "mmol/L",
              "system": "http://unitsofmeasure.org"
            }
          }
        ],
        "text": {
          "status": "generated",
          "div": "<div xmlns=\"http://www.w3.org/1999/xhtml\"><table class=\"hl7__eu__lab__report\"><tr><th>Test</th><th>25-Mar-2017</th><th>Reference&#xA0;Range</th><th>Unit</th></tr><tr><td>Carbon dioxide, total [Moles/volume] in Blood</td><td>25.8</td><td>22 - 32</td><td></td><td>mmol/L</td></tr></table></div>"
        },
        "status": "final",
        "subject": {
          "reference": "urn:uuid:bf1bbba5-af6f-4761-9630-270f10f301ab",
          "display": "Maria Nohlmans"
        },
        "effectiveDateTime": "2017-03-25T17:29:39Z",
        "specimen": {
          "reference": "urn:uuid:e5ce4fd0-244a-434f-be61-c006fa67b2c9"
        }
      }
    },
    {
      "fullUrl": "urn:uuid:4d69749b-65ea-4d46-9abf-1732e843c6d9",
      "resource": {
        "resourceType": "Observation",
        "id": "4d69749b-65ea-4d46-9abf-1732e843c6d9",
        "meta": {
          "profile": [
            "http://hl7.eu/fhir/laboratory/StructureDefinition/Observation-resultslab-eu-lab"
          ]
        },
        "performer": [
          {
            "display": "The Central European Lab"
          }
        ],
        "category": [
          {
            "coding": [
              {
                "system": "http://terminology.hl7.org/CodeSystem/observation-category",
                "code": "laboratory"
              }
            ]
          }
        ],
        "code": {
          "coding": [
            {
              "code": "2885-2",
              "system": "http://loinc.org",
              "display": "Protein [Mass/volume] in Serum or Plasma"
            }
          ],
          "text": "Protein [Mass/volume] in Serum or Plasma"
        },
        "valueQuantity": {
          "system": "http://unitsofmeasure.org",
          "value": 7,
          "unit": "g/dL",
          "code": "g/dL"
        },
        "referenceRange": [
          {
            "low": {
              "value": 6,
              "code": "g/dL",
              "system": "http://unitsofmeasure.org"
            }
          },
          {
            "high": {
              "value": 8.3,
              "code": "g/dL",
              "system": "http://unitsofmeasure.org"
            }
          }
        ],
        "text": {
          "status": "generated",
          "div": "<div xmlns=\"http://www.w3.org/1999/xhtml\"><table class=\"hl7__eu__lab__report\"><tr><th>Test</th><th>25-Mar-2017</th><th>Reference&#xA0;Range</th><th>Unit</th></tr><tr><td>Protein [Mass/volume] in Serum or Plasma</td><td>7.0</td><td>6 - 8.3</td><td></td><td>g/dL</td></tr></table></div>"
        },
        "status": "final",
        "subject": {
          "reference": "urn:uuid:bf1bbba5-af6f-4761-9630-270f10f301ab",
          "display": "Maria Nohlmans"
        },
        "effectiveDateTime": "2017-03-25T17:29:39Z",
        "specimen": {
          "reference": "urn:uuid:3a8f32e0-b284-4657-8ba2-94d025547993"
        }
      }
    },
    {
      "fullUrl": "urn:uuid:39141339-2069-4ef8-807d-f98702286554",
      "resource": {
        "resourceType": "Observation",
        "id": "39141339-2069-4ef8-807d-f98702286554",
        "meta": {
          "profile": [
            "http://hl7.eu/fhir/laboratory/StructureDefinition/Observation-resultslab-eu-lab"
          ]
        },
        "performer": [
          {
            "display": "The Central European Lab"
          }
        ],
        "category": [
          {
            "coding": [
              {
                "system": "http://terminology.hl7.org/CodeSystem/observation-category",
                "code": "laboratory"
              }
            ]
          }
        ],
        "code": {
          "coding": [
            {
              "code": "1751-7",
              "system": "http://loinc.org",
              "display": "Albumin [Mass/volume] in Serum or Plasma"
            }
          ],
          "text": "Albumin [Mass/volume] in Serum or Plasma"
        },
        "valueQuantity": {
          "system": "http://unitsofmeasure.org",
          "value": 4.9,
          "unit": "g/dL",
          "code": "g/dL"
        },
        "referenceRange": [
          {
            "low": {
              "value": 3.5,
              "code": "g/dL",
              "system": "http://unitsofmeasure.org"
            }
          },
          {
            "high": {
              "value": 5.5,
              "code": "g/dL",
              "system": "http://unitsofmeasure.org"
            }
          }
        ],
        "text": {
          "status": "generated",
          "div": "<div xmlns=\"http://www.w3.org/1999/xhtml\"><table class=\"hl7__eu__lab__report\"><tr><th>Test</th><th>25-Mar-2017</th><th>Reference&#xA0;Range</th><th>Unit</th></tr><tr><td>Albumin [Mass/volume] in Serum or Plasma</td><td>4.9</td><td>3.5 - 5.5</td><td></td><td>g/dL</td></tr></table></div>"
        },
        "status": "final",
        "subject": {
          "reference": "urn:uuid:bf1bbba5-af6f-4761-9630-270f10f301ab",
          "display": "Maria Nohlmans"
        },
        "effectiveDateTime": "2017-03-25T17:29:39Z",
        "specimen": {
          "reference": "urn:uuid:3a8f32e0-b284-4657-8ba2-94d025547993"
        }
      }
    },
    {
      "fullUrl": "urn:uuid:3ab490e9-a01a-464c-a816-ad2b37fa2f91",
      "resource": {
        "resourceType": "Observation",
        "id": "3ab490e9-a01a-464c-a816-ad2b37fa2f91",
        "meta": {
          "profile": [
            "http://hl7.eu/fhir/laboratory/StructureDefinition/Observation-resultslab-eu-lab"
          ]
        },
        "performer": [
          {
            "display": "The Central European Lab"
          }
        ],
        "category": [
          {
            "coding": [
              {
                "system": "http://terminology.hl7.org/CodeSystem/observation-category",
                "code": "laboratory"
              }
            ]
          }
        ],
        "code": {
          "coding": [
            {
              "code": "10834-0",
              "system": "http://loinc.org",
              "display": "Globulin [Mass/volume] in Serum by calculation"
            }
          ],
          "text": "Globulin [Mass/volume] in Serum by calculation"
        },
        "valueQuantity": {
          "system": "http://unitsofmeasure.org",
          "value": 2.4,
          "unit": "g/L",
          "code": "g/L"
        },
        "referenceRange": [
          {
            "low": {
              "value": 2,
              "code": "g/L",
              "system": "http://unitsofmeasure.org"
            }
          },
          {
            "high": {
              "value": 3.5,
              "code": "g/L",
              "system": "http://unitsofmeasure.org"
            }
          }
        ],
        "text": {
          "status": "generated",
          "div": "<div xmlns=\"http://www.w3.org/1999/xhtml\"><table class=\"hl7__eu__lab__report\"><tr><th>Test</th><th>25-Mar-2017</th><th>Reference&#xA0;Range</th><th>Unit</th></tr><tr><td>Globulin [Mass/volume] in Serum by calculation</td><td>2.4</td><td>2 - 3.5</td><td></td><td>g/L</td></tr></table></div>"
        },
        "status": "final",
        "subject": {
          "reference": "urn:uuid:bf1bbba5-af6f-4761-9630-270f10f301ab",
          "display": "Maria Nohlmans"
        },
        "effectiveDateTime": "2017-03-25T17:29:39Z",
        "specimen": {
          "reference": "urn:uuid:1d2c7780-3b5b-4255-b5cd-67c70c68f855"
        }
      }
    },
    {
      "fullUrl": "urn:uuid:dfa92198-546d-4e2a-8b24-264007664690",
      "resource": {
        "resourceType": "Observation",
        "id": "dfa92198-546d-4e2a-8b24-264007664690",
        "meta": {
          "profile": [
            "http://hl7.eu/fhir/laboratory/StructureDefinition/Observation-resultslab-eu-lab"
          ]
        },
        "performer": [
          {
            "display": "The Central European Lab"
          }
        ],
        "category": [
          {
            "coding": [
              {
                "system": "http://terminology.hl7.org/CodeSystem/observation-category",
                "code": "laboratory"
              }
            ]
          }
        ],
        "code": {
          "coding": [
            {
              "code": "1975-2",
              "system": "http://loinc.org",
              "display": "Bilirubin.total [Mass/volume] in Serum or Plasma"
            }
          ],
          "text": "Bilirubin.total [Mass/volume] in Serum or Plasma"
        },
        "valueQuantity": {
          "system": "http://unitsofmeasure.org",
          "value": 0.5,
          "unit": "mg/dL",
          "code": "mg/dL"
        },
        "referenceRange": [
          {
            "low": {
              "value": 0.3,
              "code": "mg/dL",
              "system": "http://unitsofmeasure.org"
            }
          },
          {
            "high": {
              "value": 1.2,
              "code": "mg/dL",
              "system": "http://unitsofmeasure.org"
            }
          }
        ],
        "text": {
          "status": "generated",
          "div": "<div xmlns=\"http://www.w3.org/1999/xhtml\"><table class=\"hl7__eu__lab__report\"><tr><th>Test</th><th>25-Mar-2017</th><th>Reference&#xA0;Range</th><th>Unit</th></tr><tr><td>Bilirubin.total [Mass/volume] in Serum or Plasma</td><td>0.5</td><td>0.3 - 1.2</td><td></td><td>mg/dL</td></tr></table></div>"
        },
        "status": "final",
        "subject": {
          "reference": "urn:uuid:bf1bbba5-af6f-4761-9630-270f10f301ab",
          "display": "Maria Nohlmans"
        },
        "effectiveDateTime": "2017-03-25T17:29:39Z",
        "specimen": {
          "reference": "urn:uuid:3a8f32e0-b284-4657-8ba2-94d025547993"
        }
      }
    },
    {
      "fullUrl": "urn:uuid:0a07efbe-b01d-4e19-8c9c-25e154678980",
      "resource": {
        "resourceType": "Observation",
        "id": "0a07efbe-b01d-4e19-8c9c-25e154678980",
        "meta": {
          "profile": [
            "http://hl7.eu/fhir/laboratory/StructureDefinition/Observation-resultslab-eu-lab"
          ]
        },
        "performer": [
          {
            "display": "The Central European Lab"
          }
        ],
        "category": [
          {
            "coding": [
              {
                "system": "http://terminology.hl7.org/CodeSystem/observation-category",
                "code": "laboratory"
              }
            ]
          }
        ],
        "code": {
          "coding": [
            {
              "code": "6768-6",
              "system": "http://loinc.org",
              "display": "Alkaline phosphatase [Enzymatic activity/volume] in Serum or Plasma"
            }
          ],
          "text": "Alkaline phosphatase [Enzymatic activity/volume] in Serum or Plasma"
        },
        "valueQuantity": {
          "system": "http://unitsofmeasure.org",
          "value": 124.1,
          "unit": "U/L",
          "code": "U/L"
        },
        "referenceRange": [
          {
            "low": {
              "value": 44,
              "code": "U/L",
              "system": "http://unitsofmeasure.org"
            }
          },
          {
            "high": {
              "value": 142,
              "code": "U/L",
              "system": "http://unitsofmeasure.org"
            }
          }
        ],
        "text": {
          "status": "generated",
          "div": "<div xmlns=\"http://www.w3.org/1999/xhtml\"><table class=\"hl7__eu__lab__report\"><tr><th>Test</th><th>25-Mar-2017</th><th>Reference&#xA0;Range</th><th>Unit</th></tr><tr><td>Alkaline phosphatase [Enzymatic activity/volume] in Serum or Plasma</td><td>124.1</td><td>44 - 142</td><td></td><td>U/L</td></tr></table></div>"
        },
        "status": "final",
        "subject": {
          "reference": "urn:uuid:bf1bbba5-af6f-4761-9630-270f10f301ab",
          "display": "Maria Nohlmans"
        },
        "effectiveDateTime": "2017-03-25T17:29:39Z",
        "specimen": {
          "reference": "urn:uuid:3a8f32e0-b284-4657-8ba2-94d025547993"
        }
      }
    },
    {
      "fullUrl": "urn:uuid:3dccd6b9-6053-42a0-a9cf-8d570efa98ac",
      "resource": {
        "resourceType": "Observation",
        "id": "3dccd6b9-6053-42a0-a9cf-8d570efa98ac",
        "meta": {
          "profile": [
            "http://hl7.eu/fhir/laboratory/StructureDefinition/Observation-resultslab-eu-lab"
          ]
        },
        "performer": [
          {
            "display": "The Central European Lab"
          }
        ],
        "category": [
          {
            "coding": [
              {
                "system": "http://terminology.hl7.org/CodeSystem/observation-category",
                "code": "laboratory"
              }
            ]
          }
        ],
        "code": {
          "coding": [
            {
              "code": "1742-6",
              "system": "http://loinc.org",
              "display": "Alanine aminotransferase [Enzymatic activity/volume] in Serum or Plasma"
            }
          ],
          "text": "Alanine aminotransferase [Enzymatic activity/volume] in Serum or Plasma"
        },
        "valueQuantity": {
          "system": "http://unitsofmeasure.org",
          "value": 28.3,
          "unit": "U/L",
          "code": "U/L"
        },
        "referenceRange": [
          {
            "low": {
              "value": 7,
              "code": "U/L",
              "system": "http://unitsofmeasure.org"
            }
          },
          {
            "high": {
              "value": 40,
              "code": "U/L",
              "system": "http://unitsofmeasure.org"
            }
          }
        ],
        "text": {
          "status": "generated",
          "div": "<div xmlns=\"http://www.w3.org/1999/xhtml\"><table class=\"hl7__eu__lab__report\"><tr><th>Test</th><th>25-Mar-2017</th><th>Reference&#xA0;Range</th><th>Unit</th></tr><tr><td>Alanine aminotransferase [Enzymatic activity/volume] in Serum or Plasma</td><td>28.3</td><td>7 - 40</td><td></td><td>U/L</td></tr></table></div>"
        },
        "status": "final",
        "subject": {
          "reference": "urn:uuid:bf1bbba5-af6f-4761-9630-270f10f301ab",
          "display": "Maria Nohlmans"
        },
        "effectiveDateTime": "2017-03-25T17:29:39Z",
        "specimen": {
          "reference": "urn:uuid:3a8f32e0-b284-4657-8ba2-94d025547993"
        }
      }
    },
    {
      "fullUrl": "urn:uuid:a7f32919-710f-4687-bec2-33fa64f6b730",
      "resource": {
        "resourceType": "Observation",
        "id": "a7f32919-710f-4687-bec2-33fa64f6b730",
        "meta": {
          "profile": [
            "http://hl7.eu/fhir/laboratory/StructureDefinition/Observation-resultslab-eu-lab"
          ]
        },
        "performer": [
          {
            "display": "The Central European Lab"
          }
        ],
        "category": [
          {
            "coding": [
              {
                "system": "http://terminology.hl7.org/CodeSystem/observation-category",
                "code": "laboratory"
              }
            ]
          }
        ],
        "code": {
          "coding": [
            {
              "code": "1920-8",
              "system": "http://loinc.org",
              "display": "Aspartate aminotransferase [Enzymatic activity/volume] in Serum or Plasma"
            }
          ],
          "text": "Aspartate aminotransferase [Enzymatic activity/volume] in Serum or Plasma"
        },
        "valueQuantity": {
          "system": "http://unitsofmeasure.org",
          "value": 39.2,
          "unit": "U/L",
          "code": "U/L"
        },
        "referenceRange": [
          {
            "low": {
              "value": 10,
              "code": "U/L",
              "system": "http://unitsofmeasure.org"
            }
          },
          {
            "high": {
              "value": 40,
              "code": "U/L",
              "system": "http://unitsofmeasure.org"
            }
          }
        ],
        "text": {
          "status": "generated",
          "div": "<div xmlns=\"http://www.w3.org/1999/xhtml\"><table class=\"hl7__eu__lab__report\"><tr><th>Test</th><th>25-Mar-2017</th><th>Reference&#xA0;Range</th><th>Unit</th></tr><tr><td>Aspartate aminotransferase [Enzymatic activity/volume] in Serum or Plasma</td><td>39.2</td><td>10 - 40</td><td></td><td>U/L</td></tr></table></div>"
        },
        "status": "final",
        "subject": {
          "reference": "urn:uuid:bf1bbba5-af6f-4761-9630-270f10f301ab",
          "display": "Maria Nohlmans"
        },
        "effectiveDateTime": "2017-03-25T17:29:39Z",
        "specimen": {
          "reference": "urn:uuid:3a8f32e0-b284-4657-8ba2-94d025547993"
        }
      }
    },
    {
      "fullUrl": "urn:uuid:29648c8d-3c35-48b0-8f1e-d64632492546",
      "resource": {
        "resourceType": "Observation",
        "id": "29648c8d-3c35-48b0-8f1e-d64632492546",
        "meta": {
          "profile": [
            "http://hl7.eu/fhir/laboratory/StructureDefinition/Observation-resultslab-eu-lab"
          ]
        },
        "performer": [
          {
            "display": "The Central European Lab"
          }
        ],
        "category": [
          {
            "coding": [
              {
                "system": "http://terminology.hl7.org/CodeSystem/observation-category",
                "code": "laboratory"
              }
            ]
          }
        ],
        "code": {
          "coding": [
            {
              "code": "5767-9",
              "system": "http://loinc.org",
              "display": "Appearance of Urine"
            }
          ],
          "text": "Appearance of Urine"
        },
        "text": {
          "status": "generated",
          "div": "<div xmlns=\"http://www.w3.org/1999/xhtml\"><table class=\"hl7__eu__lab__report\"><tr><th>Test</th><th>25-Mar-2017</th><th>Reference&#xA0;Range</th><th>Unit</th></tr><tr><td>Appearance of Urine</td></tr></table></div>"
        },
        "status": "final",
        "subject": {
          "reference": "urn:uuid:bf1bbba5-af6f-4761-9630-270f10f301ab",
          "display": "Maria Nohlmans"
        },
        "effectiveDateTime": "2017-03-25T17:29:39Z",
        "specimen": {
          "reference": "urn:uuid:16beeab3-5a89-4ddf-9b3d-eec2203d6f42"
        }
      }
    },
    {
      "fullUrl": "urn:uuid:64edf3dc-cdc2-40ed-92f1-fbc669c554b6",
      "resource": {
        "resourceType": "Observation",
        "id": "64edf3dc-cdc2-40ed-92f1-fbc669c554b6",
        "meta": {
          "profile": [
            "http://hl7.eu/fhir/laboratory/StructureDefinition/Observation-resultslab-eu-lab"
          ]
        },
        "performer": [
          {
            "display": "The Central European Lab"
          }
        ],
        "category": [
          {
            "coding": [
              {
                "system": "http://terminology.hl7.org/CodeSystem/observation-category",
                "code": "laboratory"
              }
            ]
          }
        ],
        "code": {
          "coding": [
            {
              "code": "34533-0",
              "system": "http://loinc.org",
              "display": "Odor of Urine"
            }
          ],
          "text": "Odor of Urine"
        },
        "text": {
          "status": "generated",
          "div": "<div xmlns=\"http://www.w3.org/1999/xhtml\"><table class=\"hl7__eu__lab__report\"><tr><th>Test</th><th>25-Mar-2017</th><th>Reference&#xA0;Range</th><th>Unit</th></tr><tr><td>Odor of Urine</td></tr></table></div>"
        },
        "status": "final",
        "subject": {
          "reference": "urn:uuid:bf1bbba5-af6f-4761-9630-270f10f301ab",
          "display": "Maria Nohlmans"
        },
        "effectiveDateTime": "2017-03-25T17:29:39Z",
        "specimen": {
          "reference": "urn:uuid:16beeab3-5a89-4ddf-9b3d-eec2203d6f42"
        }
      }
    },
    {
      "fullUrl": "urn:uuid:d7a90e20-248b-47a9-aec3-9302adc6a633",
      "resource": {
        "resourceType": "Observation",
        "id": "d7a90e20-248b-47a9-aec3-9302adc6a633",
        "meta": {
          "profile": [
            "http://hl7.eu/fhir/laboratory/StructureDefinition/Observation-resultslab-eu-lab"
          ]
        },
        "performer": [
          {
            "display": "The Central European Lab"
          }
        ],
        "category": [
          {
            "coding": [
              {
                "system": "http://terminology.hl7.org/CodeSystem/observation-category",
                "code": "laboratory"
              }
            ]
          }
        ],
        "code": {
          "coding": [
            {
              "code": "32167-9",
              "system": "http://loinc.org",
              "display": "Clarity of Urine"
            }
          ],
          "text": "Clarity of Urine"
        },
        "text": {
          "status": "generated",
          "div": "<div xmlns=\"http://www.w3.org/1999/xhtml\"><table class=\"hl7__eu__lab__report\"><tr><th>Test</th><th>25-Mar-2017</th><th>Reference&#xA0;Range</th><th>Unit</th></tr><tr><td>Clarity of Urine</td></tr></table></div>"
        },
        "status": "final",
        "subject": {
          "reference": "urn:uuid:bf1bbba5-af6f-4761-9630-270f10f301ab",
          "display": "Maria Nohlmans"
        },
        "effectiveDateTime": "2017-03-25T17:29:39Z",
        "specimen": {
          "reference": "urn:uuid:16beeab3-5a89-4ddf-9b3d-eec2203d6f42"
        }
      }
    },
    {
      "fullUrl": "urn:uuid:5653d28b-b5ce-4828-9df4-fde7fceb8e27",
      "resource": {
        "resourceType": "Observation",
        "id": "5653d28b-b5ce-4828-9df4-fde7fceb8e27",
        "meta": {
          "profile": [
            "http://hl7.eu/fhir/laboratory/StructureDefinition/Observation-resultslab-eu-lab"
          ]
        },
        "performer": [
          {
            "display": "The Central European Lab"
          }
        ],
        "category": [
          {
            "coding": [
              {
                "system": "http://terminology.hl7.org/CodeSystem/observation-category",
                "code": "laboratory"
              }
            ]
          }
        ],
        "code": {
          "coding": [
            {
              "code": "5778-6",
              "system": "http://loinc.org",
              "display": "Color of Urine"
            }
          ],
          "text": "Color of Urine"
        },
        "text": {
          "status": "generated",
          "div": "<div xmlns=\"http://www.w3.org/1999/xhtml\"><table class=\"hl7__eu__lab__report\"><tr><th>Test</th><th>25-Mar-2017</th><th>Reference&#xA0;Range</th><th>Unit</th></tr><tr><td>Color of Urine</td></tr></table></div>"
        },
        "status": "final",
        "subject": {
          "reference": "urn:uuid:bf1bbba5-af6f-4761-9630-270f10f301ab",
          "display": "Maria Nohlmans"
        },
        "effectiveDateTime": "2017-03-25T17:29:39Z",
        "specimen": {
          "reference": "urn:uuid:16beeab3-5a89-4ddf-9b3d-eec2203d6f42"
        }
      }
    },
    {
      "fullUrl": "urn:uuid:ed5af801-d5f1-43b8-9375-2c771abb6040",
      "resource": {
        "resourceType": "Observation",
        "id": "ed5af801-d5f1-43b8-9375-2c771abb6040",
        "meta": {
          "profile": [
            "http://hl7.eu/fhir/laboratory/StructureDefinition/Observation-resultslab-eu-lab"
          ]
        },
        "performer": [
          {
            "display": "The Central European Lab"
          }
        ],
        "category": [
          {
            "coding": [
              {
                "system": "http://terminology.hl7.org/CodeSystem/observation-category",
                "code": "laboratory"
              }
            ]
          }
        ],
        "code": {
          "coding": [
            {
              "code": "5792-7",
              "system": "http://loinc.org",
              "display": "Glucose [Mass/volume] in Urine by Test strip"
            }
          ],
          "text": "Glucose [Mass/volume] in Urine by Test strip"
        },
        "valueQuantity": {
          "system": "http://unitsofmeasure.org",
          "value": 1.3,
          "unit": "mg/dL",
          "code": "mg/dL"
        },
        "referenceRange": [
          {
            "low": {
              "value": 0.8,
              "code": "mg/dL",
              "system": "http://unitsofmeasure.org"
            }
          },
          {
            "high": {
              "value": 0,
              "code": "mg/dL",
              "system": "http://unitsofmeasure.org"
            }
          }
        ],
        "interpretation": [
          {
            "coding": [
              {
                "code": "H",
                "system": "http://terminology.hl7.org/CodeSystem/v3-ObservationInterpretation",
                "display": "High"
              }
            ]
          }
        ],
        "text": {
          "status": "generated",
          "div": "<div xmlns=\"http://www.w3.org/1999/xhtml\"><table class=\"hl7__eu__lab__report\"><tr><th>Test</th><th>25-Mar-2017</th><th>Reference&#xA0;Range</th><th>Unit</th></tr><tr><td>Glucose [Mass/volume] in Urine by Test strip</td><td>1.3</td><td>0.8 - 0</td><td>H</td><td>mg/dL</td></tr></table></div>"
        },
        "status": "final",
        "subject": {
          "reference": "urn:uuid:bf1bbba5-af6f-4761-9630-270f10f301ab",
          "display": "Maria Nohlmans"
        },
        "effectiveDateTime": "2017-03-25T17:29:39Z",
        "specimen": {
          "reference": "urn:uuid:16beeab3-5a89-4ddf-9b3d-eec2203d6f42"
        }
      }
    },
    {
      "fullUrl": "urn:uuid:eddff30b-ab38-46d4-b7e5-c6f3c0324057",
      "resource": {
        "resourceType": "Observation",
        "id": "eddff30b-ab38-46d4-b7e5-c6f3c0324057",
        "meta": {
          "profile": [
            "http://hl7.eu/fhir/laboratory/StructureDefinition/Observation-resultslab-eu-lab"
          ]
        },
        "performer": [
          {
            "display": "The Central European Lab"
          }
        ],
        "category": [
          {
            "coding": [
              {
                "system": "http://terminology.hl7.org/CodeSystem/observation-category",
                "code": "laboratory"
              }
            ]
          }
        ],
        "code": {
          "coding": [
            {
              "code": "25428-4",
              "system": "http://loinc.org",
              "display": "Glucose [Presence] in Urine by Test strip"
            }
          ],
          "text": "Glucose [Presence] in Urine by Test strip"
        },
        "text": {
          "status": "generated",
          "div": "<div xmlns=\"http://www.w3.org/1999/xhtml\"><table class=\"hl7__eu__lab__report\"><tr><th>Test</th><th>25-Mar-2017</th><th>Reference&#xA0;Range</th><th>Unit</th></tr><tr><td>Glucose [Presence] in Urine by Test strip</td></tr></table></div>"
        },
        "status": "final",
        "subject": {
          "reference": "urn:uuid:bf1bbba5-af6f-4761-9630-270f10f301ab",
          "display": "Maria Nohlmans"
        },
        "effectiveDateTime": "2017-03-25T17:29:39Z",
        "specimen": {
          "reference": "urn:uuid:16beeab3-5a89-4ddf-9b3d-eec2203d6f42"
        }
      }
    },
    {
      "fullUrl": "urn:uuid:ab79fe69-d17d-4d89-92ef-6c8a539f6013",
      "resource": {
        "resourceType": "Observation",
        "id": "ab79fe69-d17d-4d89-92ef-6c8a539f6013",
        "meta": {
          "profile": [
            "http://hl7.eu/fhir/laboratory/StructureDefinition/Observation-resultslab-eu-lab"
          ]
        },
        "performer": [
          {
            "display": "The Central European Lab"
          }
        ],
        "category": [
          {
            "coding": [
              {
                "system": "http://terminology.hl7.org/CodeSystem/observation-category",
                "code": "laboratory"
              }
            ]
          }
        ],
        "code": {
          "coding": [
            {
              "code": "20505-4",
              "system": "http://loinc.org",
              "display": "Bilirubin.total [Mass/volume] in Urine by Test strip"
            }
          ],
          "text": "Bilirubin.total [Mass/volume] in Urine by Test strip"
        },
        "valueQuantity": {
          "system": "http://unitsofmeasure.org",
          "value": 0.3,
          "unit": "mg/dL",
          "code": "mg/dL"
        },
        "referenceRange": [
          {
            "low": {
              "value": 0,
              "code": "mg/dL",
              "system": "http://unitsofmeasure.org"
            }
          },
          {
            "high": {
              "value": 1.5,
              "code": "mg/dL",
              "system": "http://unitsofmeasure.org"
            }
          }
        ],
        "text": {
          "status": "generated",
          "div": "<div xmlns=\"http://www.w3.org/1999/xhtml\"><table class=\"hl7__eu__lab__report\"><tr><th>Test</th><th>25-Mar-2017</th><th>Reference&#xA0;Range</th><th>Unit</th></tr><tr><td>Bilirubin.total [Mass/volume] in Urine by Test strip</td><td>0.3</td><td>0 - 1.5</td><td></td><td>mg/dL</td></tr></table></div>"
        },
        "status": "final",
        "subject": {
          "reference": "urn:uuid:bf1bbba5-af6f-4761-9630-270f10f301ab",
          "display": "Maria Nohlmans"
        },
        "effectiveDateTime": "2017-03-25T17:29:39Z",
        "specimen": {
          "reference": "urn:uuid:16beeab3-5a89-4ddf-9b3d-eec2203d6f42"
        }
      }
    },
    {
      "fullUrl": "urn:uuid:6d276db2-80d7-4196-ae80-1b6ea5e1fbce",
      "resource": {
        "resourceType": "Observation",
        "id": "6d276db2-80d7-4196-ae80-1b6ea5e1fbce",
        "meta": {
          "profile": [
            "http://hl7.eu/fhir/laboratory/StructureDefinition/Observation-resultslab-eu-lab"
          ]
        },
        "performer": [
          {
            "display": "The Central European Lab"
          }
        ],
        "category": [
          {
            "coding": [
              {
                "system": "http://terminology.hl7.org/CodeSystem/observation-category",
                "code": "laboratory"
              }
            ]
          }
        ],
        "code": {
          "coding": [
            {
              "code": "5770-3",
              "system": "http://loinc.org",
              "display": "Bilirubin.total [Presence] in Urine by Test strip"
            }
          ],
          "text": "Bilirubin.total [Presence] in Urine by Test strip"
        },
        "text": {
          "status": "generated",
          "div": "<div xmlns=\"http://www.w3.org/1999/xhtml\"><table class=\"hl7__eu__lab__report\"><tr><th>Test</th><th>25-Mar-2017</th><th>Reference&#xA0;Range</th><th>Unit</th></tr><tr><td>Bilirubin.total [Presence] in Urine by Test strip</td></tr></table></div>"
        },
        "status": "final",
        "subject": {
          "reference": "urn:uuid:bf1bbba5-af6f-4761-9630-270f10f301ab",
          "display": "Maria Nohlmans"
        },
        "effectiveDateTime": "2017-03-25T17:29:39Z",
        "specimen": {
          "reference": "urn:uuid:16beeab3-5a89-4ddf-9b3d-eec2203d6f42"
        }
      }
    },
    {
      "fullUrl": "urn:uuid:06d5a2fd-73cc-4ef0-b0c1-b5f9aa3a30f7",
      "resource": {
        "resourceType": "Observation",
        "id": "06d5a2fd-73cc-4ef0-b0c1-b5f9aa3a30f7",
        "meta": {
          "profile": [
            "http://hl7.eu/fhir/laboratory/StructureDefinition/Observation-resultslab-eu-lab"
          ]
        },
        "performer": [
          {
            "display": "The Central European Lab"
          }
        ],
        "category": [
          {
            "coding": [
              {
                "system": "http://terminology.hl7.org/CodeSystem/observation-category",
                "code": "laboratory"
              }
            ]
          }
        ],
        "code": {
          "coding": [
            {
              "code": "5797-6",
              "system": "http://loinc.org",
              "display": "Ketones [Mass/volume] in Urine by Test strip"
            }
          ],
          "text": "Ketones [Mass/volume] in Urine by Test strip"
        },
        "valueQuantity": {
          "system": "http://unitsofmeasure.org",
          "value": 8.7,
          "unit": "mg/dL",
          "code": "mg/dL"
        },
        "referenceRange": [
          {
            "low": {
              "value": 0,
              "code": "mg/dL",
              "system": "http://unitsofmeasure.org"
            }
          },
          {
            "high": {
              "value": 8,
              "code": "mg/dL",
              "system": "http://unitsofmeasure.org"
            }
          }
        ],
        "interpretation": [
          {
            "coding": [
              {
                "code": "H",
                "system": "http://terminology.hl7.org/CodeSystem/v3-ObservationInterpretation",
                "display": "High"
              }
            ]
          }
        ],
        "text": {
          "status": "generated",
          "div": "<div xmlns=\"http://www.w3.org/1999/xhtml\"><table class=\"hl7__eu__lab__report\"><tr><th>Test</th><th>25-Mar-2017</th><th>Reference&#xA0;Range</th><th>Unit</th></tr><tr><td>Ketones [Mass/volume] in Urine by Test strip</td><td>8.7</td><td>0 - 8</td><td>H</td><td>mg/dL</td></tr></table></div>"
        },
        "status": "final",
        "subject": {
          "reference": "urn:uuid:bf1bbba5-af6f-4761-9630-270f10f301ab",
          "display": "Maria Nohlmans"
        },
        "effectiveDateTime": "2017-03-25T17:29:39Z",
        "specimen": {
          "reference": "urn:uuid:16beeab3-5a89-4ddf-9b3d-eec2203d6f42"
        }
      }
    },
    {
      "fullUrl": "urn:uuid:0d107f9f-e159-4f72-a79c-06f1c49f9224",
      "resource": {
        "resourceType": "Observation",
        "id": "0d107f9f-e159-4f72-a79c-06f1c49f9224",
        "meta": {
          "profile": [
            "http://hl7.eu/fhir/laboratory/StructureDefinition/Observation-resultslab-eu-lab"
          ]
        },
        "performer": [
          {
            "display": "The Central European Lab"
          }
        ],
        "category": [
          {
            "coding": [
              {
                "system": "http://terminology.hl7.org/CodeSystem/observation-category",
                "code": "laboratory"
              }
            ]
          }
        ],
        "code": {
          "coding": [
            {
              "code": "2514-8",
              "system": "http://loinc.org",
              "display": "Ketones [Presence] in Urine by Test strip"
            }
          ],
          "text": "Ketones [Presence] in Urine by Test strip"
        },
        "text": {
          "status": "generated",
          "div": "<div xmlns=\"http://www.w3.org/1999/xhtml\"><table class=\"hl7__eu__lab__report\"><tr><th>Test</th><th>25-Mar-2017</th><th>Reference&#xA0;Range</th><th>Unit</th></tr><tr><td>Ketones [Presence] in Urine by Test strip</td></tr></table></div>"
        },
        "status": "final",
        "subject": {
          "reference": "urn:uuid:bf1bbba5-af6f-4761-9630-270f10f301ab",
          "display": "Maria Nohlmans"
        },
        "effectiveDateTime": "2017-03-25T17:29:39Z",
        "specimen": {
          "reference": "urn:uuid:16beeab3-5a89-4ddf-9b3d-eec2203d6f42"
        }
      }
    },
    {
      "fullUrl": "urn:uuid:63327db0-af6b-4110-9675-67d6d7968669",
      "resource": {
        "resourceType": "Observation",
        "id": "63327db0-af6b-4110-9675-67d6d7968669",
        "meta": {
          "profile": [
            "http://hl7.eu/fhir/laboratory/StructureDefinition/Observation-resultslab-eu-lab"
          ]
        },
        "performer": [
          {
            "display": "The Central European Lab"
          }
        ],
        "category": [
          {
            "coding": [
              {
                "system": "http://terminology.hl7.org/CodeSystem/observation-category",
                "code": "laboratory"
              }
            ]
          }
        ],
        "code": {
          "coding": [
            {
              "code": "5811-5",
              "system": "http://loinc.org",
              "display": "Specific gravity of Urine by Test strip"
            }
          ],
          "text": "Specific gravity of Urine by Test strip"
        },
        "valueQuantity": {
          "system": "http://unitsofmeasure.org",
          "value": 1,
          "unit": "{nominal}",
          "code": "{nominal}"
        },
        "referenceRange": [
          {
            "low": {
              "value": 1.01,
              "code": "g/mL",
              "system": "http://unitsofmeasure.org"
            }
          },
          {
            "high": {
              "value": 1.03,
              "code": "g/mL",
              "system": "http://unitsofmeasure.org"
            }
          }
        ],
        "interpretation": [
          {
            "coding": [
              {
                "code": "L",
                "system": "http://terminology.hl7.org/CodeSystem/v3-ObservationInterpretation",
                "display": "Low"
              }
            ]
          }
        ],
        "text": {
          "status": "generated",
          "div": "<div xmlns=\"http://www.w3.org/1999/xhtml\"><table class=\"hl7__eu__lab__report\"><tr><th>Test</th><th>25-Mar-2017</th><th>Reference&#xA0;Range</th><th>Unit</th></tr><tr><td>Specific gravity of Urine by Test strip</td><td>1.0</td><td>1.01 - 1.03</td><td>L</td><td>{nominal}</td></tr></table></div>"
        },
        "status": "final",
        "subject": {
          "reference": "urn:uuid:bf1bbba5-af6f-4761-9630-270f10f301ab",
          "display": "Maria Nohlmans"
        },
        "effectiveDateTime": "2017-03-25T17:29:39Z",
        "specimen": {
          "reference": "urn:uuid:16beeab3-5a89-4ddf-9b3d-eec2203d6f42"
        }
      }
    },
    {
      "fullUrl": "urn:uuid:46e47fff-d856-472d-b1d8-ac86f61042ac",
      "resource": {
        "resourceType": "Observation",
        "id": "46e47fff-d856-472d-b1d8-ac86f61042ac",
        "meta": {
          "profile": [
            "http://hl7.eu/fhir/laboratory/StructureDefinition/Observation-resultslab-eu-lab"
          ]
        },
        "performer": [
          {
            "display": "The Central European Lab"
          }
        ],
        "category": [
          {
            "coding": [
              {
                "system": "http://terminology.hl7.org/CodeSystem/observation-category",
                "code": "laboratory"
              }
            ]
          }
        ],
        "code": {
          "coding": [
            {
              "code": "5803-2",
              "system": "http://loinc.org",
              "display": "pH of Urine by Test strip"
            }
          ],
          "text": "pH of Urine by Test strip"
        },
        "valueQuantity": {
          "system": "http://unitsofmeasure.org",
          "value": 5.2,
          "unit": "pH",
          "code": "pH"
        },
        "referenceRange": [
          {
            "low": {
              "value": 4.6,
              "code": "pH",
              "system": "http://unitsofmeasure.org"
            }
          },
          {
            "high": {
              "value": 7.5,
              "code": "pH",
              "system": "http://unitsofmeasure.org"
            }
          }
        ],
        "text": {
          "status": "generated",
          "div": "<div xmlns=\"http://www.w3.org/1999/xhtml\"><table class=\"hl7__eu__lab__report\"><tr><th>Test</th><th>25-Mar-2017</th><th>Reference&#xA0;Range</th><th>Unit</th></tr><tr><td>pH of Urine by Test strip</td><td>5.2</td><td>4.6 - 7.5</td><td></td><td>pH</td></tr></table></div>"
        },
        "status": "final",
        "subject": {
          "reference": "urn:uuid:bf1bbba5-af6f-4761-9630-270f10f301ab",
          "display": "Maria Nohlmans"
        },
        "effectiveDateTime": "2017-03-25T17:29:39Z",
        "specimen": {
          "reference": "urn:uuid:16beeab3-5a89-4ddf-9b3d-eec2203d6f42"
        }
      }
    },
    {
      "fullUrl": "urn:uuid:28eac919-1261-4133-8137-df0315a3e30c",
      "resource": {
        "resourceType": "Observation",
        "id": "28eac919-1261-4133-8137-df0315a3e30c",
        "meta": {
          "profile": [
            "http://hl7.eu/fhir/laboratory/StructureDefinition/Observation-resultslab-eu-lab"
          ]
        },
        "performer": [
          {
            "display": "The Central European Lab"
          }
        ],
        "category": [
          {
            "coding": [
              {
                "system": "http://terminology.hl7.org/CodeSystem/observation-category",
                "code": "laboratory"
              }
            ]
          }
        ],
        "code": {
          "coding": [
            {
              "code": "5804-0",
              "system": "http://loinc.org",
              "display": "Protein [Mass/volume] in Urine by Test strip"
            }
          ],
          "text": "Protein [Mass/volume] in Urine by Test strip"
        },
        "valueQuantity": {
          "system": "http://unitsofmeasure.org",
          "value": 410.4,
          "unit": "mg/dL",
          "code": "mg/dL"
        },
        "referenceRange": [
          {
            "low": {
              "value": 0,
              "code": "mg/dL",
              "system": "http://unitsofmeasure.org"
            }
          },
          {
            "high": {
              "value": 14,
              "code": "mg/dL",
              "system": "http://unitsofmeasure.org"
            }
          }
        ],
        "interpretation": [
          {
            "coding": [
              {
                "code": "H",
                "system": "http://terminology.hl7.org/CodeSystem/v3-ObservationInterpretation",
                "display": "High"
              }
            ]
          }
        ],
        "text": {
          "status": "generated",
          "div": "<div xmlns=\"http://www.w3.org/1999/xhtml\"><table class=\"hl7__eu__lab__report\"><tr><th>Test</th><th>25-Mar-2017</th><th>Reference&#xA0;Range</th><th>Unit</th></tr><tr><td>Protein [Mass/volume] in Urine by Test strip</td><td>410.4</td><td>0 - 14</td><td>H</td><td>mg/dL</td></tr></table></div>"
        },
        "status": "final",
        "subject": {
          "reference": "urn:uuid:bf1bbba5-af6f-4761-9630-270f10f301ab",
          "display": "Maria Nohlmans"
        },
        "effectiveDateTime": "2017-03-25T17:29:39Z",
        "specimen": {
          "reference": "urn:uuid:16beeab3-5a89-4ddf-9b3d-eec2203d6f42"
        }
      }
    },
    {
      "fullUrl": "urn:uuid:c8162deb-93fb-418c-a6be-de2262109f79",
      "resource": {
        "resourceType": "Observation",
        "id": "c8162deb-93fb-418c-a6be-de2262109f79",
        "meta": {
          "profile": [
            "http://hl7.eu/fhir/laboratory/StructureDefinition/Observation-resultslab-eu-lab"
          ]
        },
        "performer": [
          {
            "display": "The Central European Lab"
          }
        ],
        "category": [
          {
            "coding": [
              {
                "system": "http://terminology.hl7.org/CodeSystem/observation-category",
                "code": "laboratory"
              }
            ]
          }
        ],
        "code": {
          "coding": [
            {
              "code": "20454-5",
              "system": "http://loinc.org",
              "display": "Protein [Presence] in Urine by Test strip"
            }
          ],
          "text": "Protein [Presence] in Urine by Test strip"
        },
        "text": {
          "status": "generated",
          "div": "<div xmlns=\"http://www.w3.org/1999/xhtml\"><table class=\"hl7__eu__lab__report\"><tr><th>Test</th><th>25-Mar-2017</th><th>Reference&#xA0;Range</th><th>Unit</th></tr><tr><td>Protein [Presence] in Urine by Test strip</td></tr></table></div>"
        },
        "status": "final",
        "subject": {
          "reference": "urn:uuid:bf1bbba5-af6f-4761-9630-270f10f301ab",
          "display": "Maria Nohlmans"
        },
        "effectiveDateTime": "2017-03-25T17:29:39Z",
        "specimen": {
          "reference": "urn:uuid:16beeab3-5a89-4ddf-9b3d-eec2203d6f42"
        }
      }
    },
    {
      "fullUrl": "urn:uuid:060d8b7d-20e7-44fd-b0a0-74d69bd2687c",
      "resource": {
        "resourceType": "Observation",
        "id": "060d8b7d-20e7-44fd-b0a0-74d69bd2687c",
        "meta": {
          "profile": [
            "http://hl7.eu/fhir/laboratory/StructureDefinition/Observation-resultslab-eu-lab"
          ]
        },
        "performer": [
          {
            "display": "The Central European Lab"
          }
        ],
        "category": [
          {
            "coding": [
              {
                "system": "http://terminology.hl7.org/CodeSystem/observation-category",
                "code": "laboratory"
              }
            ]
          }
        ],
        "code": {
          "coding": [
            {
              "code": "5802-4",
              "system": "http://loinc.org",
              "display": "Nitrite [Presence] in Urine by Test strip"
            }
          ],
          "text": "Nitrite [Presence] in Urine by Test strip"
        },
        "text": {
          "status": "generated",
          "div": "<div xmlns=\"http://www.w3.org/1999/xhtml\"><table class=\"hl7__eu__lab__report\"><tr><th>Test</th><th>25-Mar-2017</th><th>Reference&#xA0;Range</th><th>Unit</th></tr><tr><td>Nitrite [Presence] in Urine by Test strip</td></tr></table></div>"
        },
        "status": "final",
        "subject": {
          "reference": "urn:uuid:bf1bbba5-af6f-4761-9630-270f10f301ab",
          "display": "Maria Nohlmans"
        },
        "effectiveDateTime": "2017-03-25T17:29:39Z",
        "specimen": {
          "reference": "urn:uuid:16beeab3-5a89-4ddf-9b3d-eec2203d6f42"
        }
      }
    },
    {
      "fullUrl": "urn:uuid:f7732f3c-ee7d-431d-91af-bce5935ba7b3",
      "resource": {
        "resourceType": "Observation",
        "id": "f7732f3c-ee7d-431d-91af-bce5935ba7b3",
        "meta": {
          "profile": [
            "http://hl7.eu/fhir/laboratory/StructureDefinition/Observation-resultslab-eu-lab"
          ]
        },
        "performer": [
          {
            "display": "The Central European Lab"
          }
        ],
        "category": [
          {
            "coding": [
              {
                "system": "http://terminology.hl7.org/CodeSystem/observation-category",
                "code": "laboratory"
              }
            ]
          }
        ],
        "code": {
          "coding": [
            {
              "code": "5794-3",
              "system": "http://loinc.org",
              "display": "Hemoglobin [Presence] in Urine by Test strip"
            }
          ],
          "text": "Hemoglobin [Presence] in Urine by Test strip"
        },
        "text": {
          "status": "generated",
          "div": "<div xmlns=\"http://www.w3.org/1999/xhtml\"><table class=\"hl7__eu__lab__report\"><tr><th>Test</th><th>25-Mar-2017</th><th>Reference&#xA0;Range</th><th>Unit</th></tr><tr><td>Hemoglobin [Presence] in Urine by Test strip</td></tr></table></div>"
        },
        "status": "final",
        "subject": {
          "reference": "urn:uuid:bf1bbba5-af6f-4761-9630-270f10f301ab",
          "display": "Maria Nohlmans"
        },
        "effectiveDateTime": "2017-03-25T17:29:39Z",
        "specimen": {
          "reference": "urn:uuid:16beeab3-5a89-4ddf-9b3d-eec2203d6f42"
        }
      }
    },
    {
      "fullUrl": "urn:uuid:165fa3b3-e046-4f47-a3e3-9e6bed8fe7b3",
      "resource": {
        "resourceType": "Observation",
        "id": "165fa3b3-e046-4f47-a3e3-9e6bed8fe7b3",
        "meta": {
          "profile": [
            "http://hl7.eu/fhir/laboratory/StructureDefinition/Observation-resultslab-eu-lab"
          ]
        },
        "performer": [
          {
            "display": "The Central European Lab"
          }
        ],
        "category": [
          {
            "coding": [
              {
                "system": "http://terminology.hl7.org/CodeSystem/observation-category",
                "code": "laboratory"
              }
            ]
          }
        ],
        "code": {
          "coding": [
            {
              "code": "5799-2",
              "system": "http://loinc.org",
              "display": "Leukocyte esterase [Presence] in Urine by Test strip"
            }
          ],
          "text": "Leukocyte esterase [Presence] in Urine by Test strip"
        },
        "text": {
          "status": "generated",
          "div": "<div xmlns=\"http://www.w3.org/1999/xhtml\"><table class=\"hl7__eu__lab__report\"><tr><th>Test</th><th>25-Mar-2017</th><th>Reference&#xA0;Range</th><th>Unit</th></tr><tr><td>Leukocyte esterase [Presence] in Urine by Test strip</td></tr></table></div>"
        },
        "status": "final",
        "subject": {
          "reference": "urn:uuid:bf1bbba5-af6f-4761-9630-270f10f301ab",
          "display": "Maria Nohlmans"
        },
        "effectiveDateTime": "2017-03-25T17:29:39Z",
        "specimen": {
          "reference": "urn:uuid:16beeab3-5a89-4ddf-9b3d-eec2203d6f42"
        }
      }
    },
    {
      "fullUrl": "urn:uuid:245234cf-fd0a-42eb-9da5-3abc602bc9f6",
      "resource": {
        "resourceType": "Device",
        "id": "245234cf-fd0a-42eb-9da5-3abc602bc9f6",
        "deviceName": [
          {
            "name": "SYNDERAI Synthetic Generator",
            "type": "manufacturer-name"
          }
        ],
        "version": [
          {
            "value": "5.0"
          }
        ],
        "text": {
          "status": "generated",
          "div": "<div xmlns=\"http://www.w3.org/1999/xhtml\">SYNDERAI Synthetic Generator v5.0</div>"
        },
        "status": "active\"",
        "distinctIdentifier": "synderai-generator-50",
        "manufacturer": "SYNDERAI Project"
      }
    },
    {
      "fullUrl": "urn:uuid:8b93a385-33b2-4748-af77-be13ce51d95f",
      "resource": {
        "resourceType": "Provenance",
        "id": "8b93a385-33b2-4748-af77-be13ce51d95f",
        "target": [
          {
            "reference": "Patient/bf1bbba5-af6f-4761-9630-270f10f301ab"
          },
          {
            "reference": "Bundle/568c35bf-f2fe-47ba-944f-a10d8e5a7b68"
          },
          {
            "reference": "Composition/87c6b3dc-de9f-482c-bc67-f81f7cb05852"
          },
          {
            "reference": "PractitionerRole/b8bd29d3-23cf-44ed-97b1-dc2ba8b5f913"
          },
          {
            "reference": "Practitioner/717ab171-c90c-4cbf-a095-7670217c11d7"
          },
          {
            "reference": "PractitionerRole/946c5e67-cc4a-4aa8-8862-5464c2f9a7c6"
          },
          {
            "reference": "Organization/238ec0d4-bf4f-40d2-a2d5-e1b9a846fba2"
          }
        ],
        "activity": {
          "text": "Synthetic Example Data Generation"
        },
        "policy": [
          "https://synderai.net/synderai-synthetic-data-policy"
        ],
        "agent": [
          {
            "type": {
              "text": "author"
            },
            "who": {
              "reference": "Device/245234cf-fd0a-42eb-9da5-3abc602bc9f6"
            }
          }
        ],
        "reason": [
          {
            "text": "Interoperability Testing and Training (non-clinical use)"
          }
        ],
        "text": {
          "status": "generated",
          "div": "<div xmlns=\"http://www.w3.org/1999/xhtml\">Provenance for SYNDERAI Synthetic Example Data Resource</div>"
        },
        "recorded": "2017-03-25T18:29:39Z"
      }
    },
    {
      "fullUrl": "urn:uuid:b8bd29d3-23cf-44ed-97b1-dc2ba8b5f913",
      "resource": {
        "resourceType": "PractitionerRole",
        "id": "b8bd29d3-23cf-44ed-97b1-dc2ba8b5f913",
        "meta": {
          "profile": [
            "http://hl7.eu/fhir/base/StructureDefinition/practitionerRole-eu"
          ]
        },
        "text": {
          "status": "generated",
          "div": "<div xmlns=\"http://www.w3.org/1999/xhtml\">Laboratory Role Id: b8bd29d3-23cf-44ed-97b1-dc2ba8b5f913</div>"
        },
        "practitioner": {
          "reference": "urn:uuid:717ab171-c90c-4cbf-a095-7670217c11d7"
        }
      }
    },
    {
      "fullUrl": "urn:uuid:717ab171-c90c-4cbf-a095-7670217c11d7",
      "resource": {
        "resourceType": "Practitioner",
        "id": "717ab171-c90c-4cbf-a095-7670217c11d7",
        "meta": {
          "profile": [
            "http://hl7.eu/fhir/base/StructureDefinition/practitioner-eu"
          ]
        },
        "identifier": [
          {
            "assigner": {
              "display": "HL7 Europe"
            },
            "system": "urn:oid:2.16.840.1.113883.2.51.999",
            "value": "c2e500de-c32d-443e-959a-a929fbe5997a"
          }
        ],
        "name": [
          {
            "prefix": [
              "dr"
            ],
            "given": [
              "Ex"
            ],
            "family": "Ample"
          }
        ],
        "address": [
          {
            "line": [
              "Laboratoire Central Européenne",
              "Boulevard du Jardin Botanique 32"
            ],
            "postalCode": "1000",
            "city": "Brussels",
            "country": "Belgium"
          }
        ],
        "text": {
          "status": "generated",
          "div": "<div xmlns=\"http://www.w3.org/1999/xhtml\">Laboratory: Laboratoire Central Européenne, 1000 Brussels, Belgium</div>"
        }
      }
    }
  ],
  "type": "document",
  "timestamp": "2017-03-25T18:29:39Z"
}
