{
  "resourceType": "Bundle",
  "id": "45ee6cf0-e955-4688-9da2-a365b553971e",
  "meta": {
    "profile": [
      "http://hl7.eu/fhir/laboratory/StructureDefinition/Bundle-eu-lab"
    ]
  },
  "identifier": {
    "assigner": {
      "display": "HL7 Europe"
    },
    "system": "urn:oid:2.16.840.1.113883.2.51.999",
    "value": "b0e8b143-f6c0-4ab5-9737-b94de023f0bb"
  },
  "entry": [
    {
      "fullUrl": "urn:uuid:b87d9863-c06b-4b95-955b-89d271db1beb",
      "resource": {
        "resourceType": "Composition",
        "id": "b87d9863-c06b-4b95-955b-89d271db1beb",
        "meta": {
          "profile": [
            "http://hl7.eu/fhir/laboratory/StructureDefinition/Composition-eu-lab"
          ]
        },
        "identifier": {
          "assigner": {
            "display": "HL7 Europe"
          },
          "system": "urn:oid:2.16.840.1.113883.2.51.999",
          "value": "e9911085-7e03-4d78-86e8-26ac51572b2a"
        },
        "author": [
          {
            "reference": "urn:uuid:a53ff699-482c-4cdc-8cbd-f310e71d67b8"
          }
        ],
        "category": [
          {
            "coding": [
              {
                "code": "26436-6",
                "system": "http://loinc.org",
                "display": "Laboratory studies (set)"
              }
            ]
          }
        ],
        "type": {
          "coding": [
            {
              "code": "11502-2",
              "system": "http://loinc.org",
              "display": "Laboratory report"
            }
          ],
          "text": "Laboratory Report"
        },
        "section": [
          {
            "code": {
              "coding": [
                {
                  "code": "26436-6",
                  "system": "http://loinc.org",
                  "display": "Laboratory studies (set)"
                }
              ],
              "text": "Laboratory studies"
            },
            "section": [
              {
                "code": {
                  "coding": [
                    {
                      "code": "$18719-5",
                      "system": "http://loinc.org",
                      "display": "Chemistry studies (set)"
                    }
                  ],
                  "text": "Chemistry"
                },
                "entry": [
                  {
                    "reference": "urn:uuid:29726917-2b13-4193-ae06-692df053c297"
                  },
                  {
                    "reference": "urn:uuid:0dc5c4ff-5f3d-4c89-afcc-e23a26e7bcf2"
                  },
                  {
                    "reference": "urn:uuid:d53a540b-6a1a-44cf-a155-2658b43c8ab7"
                  },
                  {
                    "reference": "urn:uuid:73b16773-1af2-4396-adb6-fdee422040b5"
                  },
                  {
                    "reference": "urn:uuid:aee70f64-9386-473c-902d-6523312bea85"
                  },
                  {
                    "reference": "urn:uuid:e0b985ef-f782-4e1f-904c-502552ce0781"
                  },
                  {
                    "reference": "urn:uuid:2c161cdf-30ec-4a6a-8969-24021cbae70a"
                  },
                  {
                    "reference": "urn:uuid:67dfc096-c51e-41fc-b2d8-8662a8055ea4"
                  },
                  {
                    "reference": "urn:uuid:5d7e7a1b-0a1d-489c-b721-caf1ca7ec9b0"
                  },
                  {
                    "reference": "urn:uuid:57e07cc5-b9b7-4960-922b-e87e46b73ccf"
                  },
                  {
                    "reference": "urn:uuid:1426244c-98b0-4fca-a626-e21658a3b231"
                  },
                  {
                    "reference": "urn:uuid:ff36b694-567f-42ca-b590-9dcdf7c90843"
                  },
                  {
                    "reference": "urn:uuid:fb13aeb9-46d7-4475-95fb-a7a52e6b56a7"
                  }
                ],
                "text": {
                  "status": "generated",
                  "div": "<div xmlns=\"http://www.w3.org/1999/xhtml\"><h3>Chemistry</h3><table class=\"hl7__eu__lab__report\"><thead><tr><th>Test</th><th>01-APR-2019</th><th>Reference&#xA0;Range</th><th>Unit</th></tr></thead><tbody><tr><td>Hemoglobin A1c/Hemoglobin.total in Blood</td><td><strong>6.1 H</strong></td><td>4 - 6</td><td>%</td></tr><tr><td>Glucose [Mass/volume] in Blood</td><td>79.6</td><td>70 - 140</td><td>mg/dL</td></tr><tr><td>Urea nitrogen [Mass/volume] in Blood</td><td>7.5</td><td>7 - 20</td><td>mg/dL</td></tr><tr><td>Creatinine [Mass/volume] in Blood</td><td>0.9</td><td>0.9 - 1.3</td><td>mg/dL</td></tr><tr><td>Calcium [Mass/volume] in Blood</td><td>8.9</td><td>8.5 - 10.5</td><td>mg/dL</td></tr><tr><td>Sodium [Moles/volume] in Blood</td><td>138.5</td><td>135 - 145</td><td>mmol/L</td></tr><tr><td>Potassium [Moles/volume] in Blood</td><td>3.8</td><td>3.5 - 5</td><td>mmol/L</td></tr><tr><td>Chloride [Moles/volume] in Blood</td><td>105.6</td><td>98 - 110</td><td>mmol/L</td></tr><tr><td>Carbon dioxide, total [Moles/volume] in Blood</td><td>26.5</td><td>22 - 32</td><td>mmol/L</td></tr><tr><td>Cholesterol [Mass/volume] in Serum or Plasma</td><td>150.3</td><td>125 - 200</td><td>mg/dL</td></tr><tr><td>Triglyceride [Mass/volume] in Serum or Plasma</td><td>104.1</td><td>0 - 150</td><td>mg/dL</td></tr><tr><td>Cholesterol in LDL [Mass/volume] in Serum or Plasma by Direct assay</td><td>106.1</td><td>0 - 130</td><td>mg/dL</td></tr><tr><td>Cholesterol in HDL [Mass/volume] in Serum or Plasma</td><td><strong>23.4 L</strong></td><td>40 - 60</td><td>mg/dL</td></tr></tbody></table></div>"
                },
                "title": "Chemistry"
              }
            ],
            "title": "Laboratory Report"
          },
          {
            "text": {
              "status": "generated",
              "div": "<div xmlns=\"http://www.w3.org/1999/xhtml\"><h3>Annotation</h3><table class=\"hl7__eu__lab__report\"><tr><th>Conclusion and Recommendations based on this report and previous findings known to us</th></tr><tr><td>The laboratory results show a mildly elevated HbA1c, indicating impaired glucose metabolism or possible prediabetes. Lipid profile reveals low HDL cholesterol, which is a cardiovascular risk factor, while LDL and triglycerides are within target ranges. Renal function, electrolytes, and other parameters are within normal limits. Recommend clinical follow-up for glycemic control and measures to increase HDL.</td></tr></table></div>"
            },
            "code": {
              "coding": [
                {
                  "system": "http://loinc.org",
                  "code": "48767-8",
                  "display": "Annotation comment"
                }
              ]
            },
            "title": "Annotation comment"
          }
        ],
        "status": "final",
        "subject": {
          "reference": "urn:uuid:60d83b9f-952c-4d8e-bf86-f129dd3a8287",
          "display": "Alessio Fanucci"
        },
        "date": "2019-04-01T09:49:06Z",
        "title": "Laboratory Report",
        "confidentiality": "N"
      }
    },
    {
      "fullUrl": "urn:uuid:0abd97de-da85-4cb2-bfb4-5fb3a09148c4",
      "resource": {
        "resourceType": "DiagnosticReport",
        "id": "0abd97de-da85-4cb2-bfb4-5fb3a09148c4",
        "meta": {
          "profile": [
            "http://hl7.eu/fhir/laboratory/StructureDefinition/DiagnosticReport-eu-lab"
          ]
        },
        "identifier": [
          {
            "assigner": {
              "display": "HL7 Europe"
            },
            "system": "urn:oid:2.16.840.1.113883.2.51.999",
            "value": "3a46ca62-f7e8-4f24-a6fc-bd3e27c0c837"
          }
        ],
        "extension": [
          {
            "url": "http://hl7.org/fhir/5.0/StructureDefinition/extension-DiagnosticReport.composition",
            "valueReference": {
              "reference": "urn:uuid:e9911085-7e03-4d78-86e8-26ac51572b2a"
            }
          }
        ],
        "category": [
          {
            "coding": [
              {
                "code": "26436-6",
                "system": "http://loinc.org",
                "display": "Laboratory studies (set)"
              }
            ]
          }
        ],
        "specimen": [
          {
            "reference": "urn:uuid:5a3e2536-13f8-42ee-ad84-5fb2a26ef9cc"
          },
          {
            "reference": "urn:uuid:3a3a4a7b-452e-483d-b85c-36c2c41ccccb"
          }
        ],
        "result": [
          {
            "reference": "urn:uuid:29726917-2b13-4193-ae06-692df053c297"
          },
          {
            "reference": "urn:uuid:0dc5c4ff-5f3d-4c89-afcc-e23a26e7bcf2"
          },
          {
            "reference": "urn:uuid:d53a540b-6a1a-44cf-a155-2658b43c8ab7"
          },
          {
            "reference": "urn:uuid:73b16773-1af2-4396-adb6-fdee422040b5"
          },
          {
            "reference": "urn:uuid:aee70f64-9386-473c-902d-6523312bea85"
          },
          {
            "reference": "urn:uuid:e0b985ef-f782-4e1f-904c-502552ce0781"
          },
          {
            "reference": "urn:uuid:2c161cdf-30ec-4a6a-8969-24021cbae70a"
          },
          {
            "reference": "urn:uuid:67dfc096-c51e-41fc-b2d8-8662a8055ea4"
          },
          {
            "reference": "urn:uuid:5d7e7a1b-0a1d-489c-b721-caf1ca7ec9b0"
          },
          {
            "reference": "urn:uuid:57e07cc5-b9b7-4960-922b-e87e46b73ccf"
          },
          {
            "reference": "urn:uuid:1426244c-98b0-4fca-a626-e21658a3b231"
          },
          {
            "reference": "urn:uuid:ff36b694-567f-42ca-b590-9dcdf7c90843"
          },
          {
            "reference": "urn:uuid:fb13aeb9-46d7-4475-95fb-a7a52e6b56a7"
          }
        ],
        "status": "registered",
        "code": {
          "coding": [
            {
              "code": "11502-2",
              "system": "http://loinc.org",
              "display": "Laboratory report"
            }
          ]
        },
        "subject": {
          "reference": "urn:uuid:60d83b9f-952c-4d8e-bf86-f129dd3a8287",
          "display": "Alessio Fanucci"
        }
      }
    },
    {
      "fullUrl": "urn:uuid:60d83b9f-952c-4d8e-bf86-f129dd3a8287",
      "resource": {
        "resourceType": "Patient",
        "id": "60d83b9f-952c-4d8e-bf86-f129dd3a8287",
        "meta": {
          "security": [
            {
              "system": "http://terminology.hl7.org/CodeSystem/v3-ActReason",
              "code": "HTEST"
            },
            {
              "system": "http://terminology.hl7.org/CodeSystem/v3-ActReason",
              "code": "TRAIN"
            }
          ],
          "tag": [
            {
              "system": "https://synderai.net/fhir/CodeSystem/tags",
              "code": "synthetic",
              "display": "SYNDERAI Synthetic data"
            }
          ],
          "profile": [
            "http://hl7.eu/fhir/base/StructureDefinition/patient-eu-core"
          ]
        },
        "identifier": [
          {
            "type": {
              "coding": [
                {
                  "code": "PT",
                  "system": "http://terminology.hl7.org/CodeSystem/v2-0203"
                }
              ]
            },
            "system": "http://ec.europa.eu/identifier/eci",
            "value": "4754-874768-3"
          },
          {
            "type": {
              "coding": [
                {
                  "code": "MR",
                  "system": "http://terminology.hl7.org/CodeSystem/v2-0203"
                }
              ]
            },
            "system": "http://local.setting.eu/identifier",
            "value": "4b888823-bdd8-59a3-b785-e7ba28e6a7b5"
          }
        ],
        "name": [
          {
            "family": "Fanucci"
          },
          {
            "given": [
              "Alessio"
            ]
          },
          {
            "text": "Alessio Fanucci"
          }
        ],
        "address": [
          {
            "line": [
              "Incrocio Combi, 822"
            ],
            "use": "home",
            "type": "physical",
            "postalCode": "33015",
            "city": "Moggio Udinese",
            "country": "Italy"
          }
        ],
        "telecom": [
          {
            "system": "phone",
            "value": "0125684636"
          }
        ],
        "extension": [
          {
            "url": "http://hl7.org/fhir/StructureDefinition/patient-nationality",
            "valueCodeableConcept": {
              "coding": [
                {
                  "code": "IT",
                  "system": "http://hl7.org/fhir/ValueSet/country"
                }
              ]
            }
          }
        ],
        "text": {
          "status": "generated",
          "div": "<div xmlns=\"http://www.w3.org/1999/xhtml\"><table class=\"hl7__ips\"><tr><td>Alessio Fanucci</td><td>male</td><td>12-Sep-1964</td></tr></table></div>"
        },
        "gender": "male",
        "birthDate": "1964-09-12"
      }
    },
    {
      "fullUrl": "urn:uuid:d042d36d-d497-44b4-9794-e22a2e5fe5bb",
      "resource": {
        "resourceType": "ServiceRequest",
        "id": "d042d36d-d497-44b4-9794-e22a2e5fe5bb",
        "meta": {
          "profile": [
            "http://hl7.eu/fhir/laboratory/StructureDefinition/ServiceRequest-eu-lab"
          ]
        },
        "identifier": [
          {
            "system": "http://example.org",
            "value": "e93290c4-048d-4929-83e9-da50717dfdbd"
          }
        ],
        "specimen": [
          {
            "reference": "urn:uuid:5a3e2536-13f8-42ee-ad84-5fb2a26ef9cc"
          },
          {
            "reference": "urn:uuid:3a3a4a7b-452e-483d-b85c-36c2c41ccccb"
          }
        ],
        "reasonCode": [
          {
            "coding": [
              {
                "code": "15777000",
                "system": "http://snomed.info/sct",
                "display": "Prediabetes"
              }
            ]
          },
          {
            "coding": [
              {
                "code": "271737000",
                "system": "http://snomed.info/sct",
                "display": "Anemia"
              }
            ]
          },
          {
            "coding": [
              {
                "code": "40055000",
                "system": "http://snomed.info/sct",
                "display": "Chronic sinusitis"
              }
            ]
          }
        ],
        "status": "active",
        "intent": "order",
        "code": {
          "coding": [
            {
              "code": "108252007",
              "system": "http://snomed.info/sct",
              "display": "Laboratory procedure"
            }
          ]
        },
        "subject": {
          "reference": "urn:uuid:60d83b9f-952c-4d8e-bf86-f129dd3a8287",
          "display": "Alessio Fanucci"
        },
        "requester": {
          "reference": "urn:uuid:c37ceabf-bcae-4ecf-a8ca-8a1518b62440"
        }
      }
    },
    {
      "fullUrl": "urn:uuid:c37ceabf-bcae-4ecf-a8ca-8a1518b62440",
      "resource": {
        "resourceType": "PractitionerRole",
        "id": "c37ceabf-bcae-4ecf-a8ca-8a1518b62440",
        "meta": {
          "profile": [
            "http://hl7.eu/fhir/base/StructureDefinition/practitionerRole-eu"
          ]
        },
        "text": {
          "status": "generated",
          "div": "<div xmlns=\"http://www.w3.org/1999/xhtml\">Provider Role Id: c37ceabf-bcae-4ecf-a8ca-8a1518b62440</div>"
        },
        "organization": {
          "reference": "urn:uuid:e74df1cb-47bc-4a86-8116-1c55dc071d8a"
        }
      }
    },
    {
      "fullUrl": "urn:uuid:e74df1cb-47bc-4a86-8116-1c55dc071d8a",
      "resource": {
        "resourceType": "Organization",
        "id": "e74df1cb-47bc-4a86-8116-1c55dc071d8a",
        "meta": {
          "profile": [
            "http://hl7.eu/fhir/base/StructureDefinition/organization-eu"
          ]
        },
        "identifier": [
          {
            "assigner": {
              "display": "HL7 Europe"
            },
            "system": "urn:oid:2.16.840.1.113883.2.51.999",
            "value": "dc2e5830-df48-4295-9b0e-22fc8da81c32"
          }
        ],
        "address": [
          {
            "city": "Artegna",
            "postalCode": "33011",
            "country": "Italy"
          }
        ],
        "text": {
          "status": "generated",
          "div": "<div xmlns=\"http://www.w3.org/1999/xhtml\">Provider Organization: Ambulatori</div>"
        },
        "name": "Ambulatori"
      }
    },
    {
      "fullUrl": "urn:uuid:5a3e2536-13f8-42ee-ad84-5fb2a26ef9cc",
      "resource": {
        "resourceType": "Specimen",
        "id": "5a3e2536-13f8-42ee-ad84-5fb2a26ef9cc",
        "meta": {
          "profile": [
            "http://hl7.eu/fhir/laboratory/StructureDefinition/Specimen-eu-lab"
          ]
        },
        "collection": {
          "collectedDateTime": "2019-04-01"
        },
        "text": {
          "status": "generated",
          "div": "<div xmlns=\"http://www.w3.org/1999/xhtml\"><table class=\"hl7__eu__lab__report\"><tr><th>Specimen</th><th>Collection Date</th></tr><tr><td>Whole blood specimen (specimen)</td><td><span class=\"nb\">01-Apr-2019</span></td></tr></table></div>"
        },
        "type": {
          "coding": [
            {
              "code": "258580003",
              "system": "http://snomed.info/sct",
              "display": "Whole blood specimen (specimen)"
            }
          ]
        }
      }
    },
    {
      "fullUrl": "urn:uuid:3a3a4a7b-452e-483d-b85c-36c2c41ccccb",
      "resource": {
        "resourceType": "Specimen",
        "id": "3a3a4a7b-452e-483d-b85c-36c2c41ccccb",
        "meta": {
          "profile": [
            "http://hl7.eu/fhir/laboratory/StructureDefinition/Specimen-eu-lab"
          ]
        },
        "collection": {
          "collectedDateTime": "2019-04-01"
        },
        "text": {
          "status": "generated",
          "div": "<div xmlns=\"http://www.w3.org/1999/xhtml\"><table class=\"hl7__eu__lab__report\"><tr><th>Specimen</th><th>Collection Date</th></tr><tr><td>Acellular blood (serum or plasma) specimen</td><td><span class=\"nb\">01-Apr-2019</span></td></tr></table></div>"
        },
        "type": {
          "coding": [
            {
              "code": "122592007",
              "system": "http://snomed.info/sct",
              "display": "Acellular blood (serum or plasma) specimen"
            }
          ]
        }
      }
    },
    {
      "fullUrl": "urn:uuid:29726917-2b13-4193-ae06-692df053c297",
      "resource": {
        "resourceType": "Observation",
        "id": "29726917-2b13-4193-ae06-692df053c297",
        "meta": {
          "profile": [
            "http://hl7.eu/fhir/laboratory/StructureDefinition/Observation-resultslab-eu-lab"
          ]
        },
        "performer": [
          {
            "display": "The Central European Lab"
          }
        ],
        "category": [
          {
            "coding": [
              {
                "system": "http://terminology.hl7.org/CodeSystem/observation-category",
                "code": "laboratory"
              }
            ]
          }
        ],
        "code": {
          "coding": [
            {
              "code": "4548-4",
              "system": "http://loinc.org",
              "display": "Hemoglobin A1c/Hemoglobin.total in Blood"
            }
          ],
          "text": "Hemoglobin A1c/Hemoglobin.total in Blood"
        },
        "valueQuantity": {
          "system": "http://unitsofmeasure.org",
          "value": 6.1,
          "unit": "%",
          "code": "%"
        },
        "referenceRange": [
          {
            "low": {
              "value": 4,
              "code": "%",
              "system": "http://unitsofmeasure.org"
            }
          },
          {
            "high": {
              "value": 6,
              "code": "%",
              "system": "http://unitsofmeasure.org"
            }
          }
        ],
        "interpretation": [
          {
            "coding": [
              {
                "code": "H",
                "system": "http://terminology.hl7.org/CodeSystem/v3-ObservationInterpretation",
                "display": "High"
              }
            ]
          }
        ],
        "text": {
          "status": "generated",
          "div": "<div xmlns=\"http://www.w3.org/1999/xhtml\"><table class=\"hl7__eu__lab__report\"><tr><th>Test</th><th>01-Apr-2019</th><th>Reference&#xA0;Range</th><th>Unit</th></tr><tr><td>Hemoglobin A1c/Hemoglobin.total in Blood</td><td>6.1</td><td>4 - 6</td><td>H</td><td>%</td></tr></table></div>"
        },
        "status": "final",
        "subject": {
          "reference": "urn:uuid:60d83b9f-952c-4d8e-bf86-f129dd3a8287",
          "display": "Alessio Fanucci"
        },
        "effectiveDateTime": "2019-04-01T07:49:06Z",
        "specimen": {
          "reference": "urn:uuid:5a3e2536-13f8-42ee-ad84-5fb2a26ef9cc"
        }
      }
    },
    {
      "fullUrl": "urn:uuid:0dc5c4ff-5f3d-4c89-afcc-e23a26e7bcf2",
      "resource": {
        "resourceType": "Observation",
        "id": "0dc5c4ff-5f3d-4c89-afcc-e23a26e7bcf2",
        "meta": {
          "profile": [
            "http://hl7.eu/fhir/laboratory/StructureDefinition/Observation-resultslab-eu-lab"
          ]
        },
        "performer": [
          {
            "display": "The Central European Lab"
          }
        ],
        "category": [
          {
            "coding": [
              {
                "system": "http://terminology.hl7.org/CodeSystem/observation-category",
                "code": "laboratory"
              }
            ]
          }
        ],
        "code": {
          "coding": [
            {
              "code": "2339-0",
              "system": "http://loinc.org",
              "display": "Glucose [Mass/volume] in Blood"
            }
          ],
          "text": "Glucose [Mass/volume] in Blood"
        },
        "valueQuantity": {
          "system": "http://unitsofmeasure.org",
          "value": 79.6,
          "unit": "mg/dL",
          "code": "mg/dL"
        },
        "referenceRange": [
          {
            "low": {
              "value": 70,
              "code": "mg/dL",
              "system": "http://unitsofmeasure.org"
            }
          },
          {
            "high": {
              "value": 140,
              "code": "mg/dL",
              "system": "http://unitsofmeasure.org"
            }
          }
        ],
        "text": {
          "status": "generated",
          "div": "<div xmlns=\"http://www.w3.org/1999/xhtml\"><table class=\"hl7__eu__lab__report\"><tr><th>Test</th><th>01-Apr-2019</th><th>Reference&#xA0;Range</th><th>Unit</th></tr><tr><td>Glucose [Mass/volume] in Blood</td><td>79.6</td><td>70 - 140</td><td></td><td>mg/dL</td></tr></table></div>"
        },
        "status": "final",
        "subject": {
          "reference": "urn:uuid:60d83b9f-952c-4d8e-bf86-f129dd3a8287",
          "display": "Alessio Fanucci"
        },
        "effectiveDateTime": "2019-04-01T07:49:06Z",
        "specimen": {
          "reference": "urn:uuid:5a3e2536-13f8-42ee-ad84-5fb2a26ef9cc"
        }
      }
    },
    {
      "fullUrl": "urn:uuid:d53a540b-6a1a-44cf-a155-2658b43c8ab7",
      "resource": {
        "resourceType": "Observation",
        "id": "d53a540b-6a1a-44cf-a155-2658b43c8ab7",
        "meta": {
          "profile": [
            "http://hl7.eu/fhir/laboratory/StructureDefinition/Observation-resultslab-eu-lab"
          ]
        },
        "performer": [
          {
            "display": "The Central European Lab"
          }
        ],
        "category": [
          {
            "coding": [
              {
                "system": "http://terminology.hl7.org/CodeSystem/observation-category",
                "code": "laboratory"
              }
            ]
          }
        ],
        "code": {
          "coding": [
            {
              "code": "6299-2",
              "system": "http://loinc.org",
              "display": "Urea nitrogen [Mass/volume] in Blood"
            }
          ],
          "text": "Urea nitrogen [Mass/volume] in Blood"
        },
        "valueQuantity": {
          "system": "http://unitsofmeasure.org",
          "value": 7.5,
          "unit": "mg/dL",
          "code": "mg/dL"
        },
        "referenceRange": [
          {
            "low": {
              "value": 7,
              "code": "mg/dL",
              "system": "http://unitsofmeasure.org"
            }
          },
          {
            "high": {
              "value": 20,
              "code": "mg/dL",
              "system": "http://unitsofmeasure.org"
            }
          }
        ],
        "text": {
          "status": "generated",
          "div": "<div xmlns=\"http://www.w3.org/1999/xhtml\"><table class=\"hl7__eu__lab__report\"><tr><th>Test</th><th>01-Apr-2019</th><th>Reference&#xA0;Range</th><th>Unit</th></tr><tr><td>Urea nitrogen [Mass/volume] in Blood</td><td>7.5</td><td>7 - 20</td><td></td><td>mg/dL</td></tr></table></div>"
        },
        "status": "final",
        "subject": {
          "reference": "urn:uuid:60d83b9f-952c-4d8e-bf86-f129dd3a8287",
          "display": "Alessio Fanucci"
        },
        "effectiveDateTime": "2019-04-01T07:49:06Z",
        "specimen": {
          "reference": "urn:uuid:5a3e2536-13f8-42ee-ad84-5fb2a26ef9cc"
        }
      }
    },
    {
      "fullUrl": "urn:uuid:73b16773-1af2-4396-adb6-fdee422040b5",
      "resource": {
        "resourceType": "Observation",
        "id": "73b16773-1af2-4396-adb6-fdee422040b5",
        "meta": {
          "profile": [
            "http://hl7.eu/fhir/laboratory/StructureDefinition/Observation-resultslab-eu-lab"
          ]
        },
        "performer": [
          {
            "display": "The Central European Lab"
          }
        ],
        "category": [
          {
            "coding": [
              {
                "system": "http://terminology.hl7.org/CodeSystem/observation-category",
                "code": "laboratory"
              }
            ]
          }
        ],
        "code": {
          "coding": [
            {
              "code": "38483-4",
              "system": "http://loinc.org",
              "display": "Creatinine [Mass/volume] in Blood"
            }
          ],
          "text": "Creatinine [Mass/volume] in Blood"
        },
        "valueQuantity": {
          "system": "http://unitsofmeasure.org",
          "value": 0.9,
          "unit": "mg/dL",
          "code": "mg/dL"
        },
        "referenceRange": [
          {
            "low": {
              "value": 0.9,
              "code": "mg/dL",
              "system": "http://unitsofmeasure.org"
            }
          },
          {
            "high": {
              "value": 1.3,
              "code": "mg/dL",
              "system": "http://unitsofmeasure.org"
            }
          }
        ],
        "text": {
          "status": "generated",
          "div": "<div xmlns=\"http://www.w3.org/1999/xhtml\"><table class=\"hl7__eu__lab__report\"><tr><th>Test</th><th>01-Apr-2019</th><th>Reference&#xA0;Range</th><th>Unit</th></tr><tr><td>Creatinine [Mass/volume] in Blood</td><td>0.9</td><td>0.9 - 1.3</td><td></td><td>mg/dL</td></tr></table></div>"
        },
        "status": "final",
        "subject": {
          "reference": "urn:uuid:60d83b9f-952c-4d8e-bf86-f129dd3a8287",
          "display": "Alessio Fanucci"
        },
        "effectiveDateTime": "2019-04-01T07:49:06Z",
        "specimen": {
          "reference": "urn:uuid:5a3e2536-13f8-42ee-ad84-5fb2a26ef9cc"
        }
      }
    },
    {
      "fullUrl": "urn:uuid:aee70f64-9386-473c-902d-6523312bea85",
      "resource": {
        "resourceType": "Observation",
        "id": "aee70f64-9386-473c-902d-6523312bea85",
        "meta": {
          "profile": [
            "http://hl7.eu/fhir/laboratory/StructureDefinition/Observation-resultslab-eu-lab"
          ]
        },
        "performer": [
          {
            "display": "The Central European Lab"
          }
        ],
        "category": [
          {
            "coding": [
              {
                "system": "http://terminology.hl7.org/CodeSystem/observation-category",
                "code": "laboratory"
              }
            ]
          }
        ],
        "code": {
          "coding": [
            {
              "code": "49765-1",
              "system": "http://loinc.org",
              "display": "Calcium [Mass/volume] in Blood"
            }
          ],
          "text": "Calcium [Mass/volume] in Blood"
        },
        "valueQuantity": {
          "system": "http://unitsofmeasure.org",
          "value": 8.9,
          "unit": "mg/dL",
          "code": "mg/dL"
        },
        "referenceRange": [
          {
            "low": {
              "value": 8.5,
              "code": "mg/dL",
              "system": "http://unitsofmeasure.org"
            }
          },
          {
            "high": {
              "value": 10.5,
              "code": "mg/dL",
              "system": "http://unitsofmeasure.org"
            }
          }
        ],
        "text": {
          "status": "generated",
          "div": "<div xmlns=\"http://www.w3.org/1999/xhtml\"><table class=\"hl7__eu__lab__report\"><tr><th>Test</th><th>01-Apr-2019</th><th>Reference&#xA0;Range</th><th>Unit</th></tr><tr><td>Calcium [Mass/volume] in Blood</td><td>8.9</td><td>8.5 - 10.5</td><td></td><td>mg/dL</td></tr></table></div>"
        },
        "status": "final",
        "subject": {
          "reference": "urn:uuid:60d83b9f-952c-4d8e-bf86-f129dd3a8287",
          "display": "Alessio Fanucci"
        },
        "effectiveDateTime": "2019-04-01T07:49:06Z",
        "specimen": {
          "reference": "urn:uuid:5a3e2536-13f8-42ee-ad84-5fb2a26ef9cc"
        }
      }
    },
    {
      "fullUrl": "urn:uuid:e0b985ef-f782-4e1f-904c-502552ce0781",
      "resource": {
        "resourceType": "Observation",
        "id": "e0b985ef-f782-4e1f-904c-502552ce0781",
        "meta": {
          "profile": [
            "http://hl7.eu/fhir/laboratory/StructureDefinition/Observation-resultslab-eu-lab"
          ]
        },
        "performer": [
          {
            "display": "The Central European Lab"
          }
        ],
        "category": [
          {
            "coding": [
              {
                "system": "http://terminology.hl7.org/CodeSystem/observation-category",
                "code": "laboratory"
              }
            ]
          }
        ],
        "code": {
          "coding": [
            {
              "code": "2947-0",
              "system": "http://loinc.org",
              "display": "Sodium [Moles/volume] in Blood"
            }
          ],
          "text": "Sodium [Moles/volume] in Blood"
        },
        "valueQuantity": {
          "system": "http://unitsofmeasure.org",
          "value": 138.5,
          "unit": "mmol/L",
          "code": "mmol/L"
        },
        "referenceRange": [
          {
            "low": {
              "value": 135,
              "code": "mmol/L",
              "system": "http://unitsofmeasure.org"
            }
          },
          {
            "high": {
              "value": 145,
              "code": "mmol/L",
              "system": "http://unitsofmeasure.org"
            }
          }
        ],
        "text": {
          "status": "generated",
          "div": "<div xmlns=\"http://www.w3.org/1999/xhtml\"><table class=\"hl7__eu__lab__report\"><tr><th>Test</th><th>01-Apr-2019</th><th>Reference&#xA0;Range</th><th>Unit</th></tr><tr><td>Sodium [Moles/volume] in Blood</td><td>138.5</td><td>135 - 145</td><td></td><td>mmol/L</td></tr></table></div>"
        },
        "status": "final",
        "subject": {
          "reference": "urn:uuid:60d83b9f-952c-4d8e-bf86-f129dd3a8287",
          "display": "Alessio Fanucci"
        },
        "effectiveDateTime": "2019-04-01T07:49:06Z",
        "specimen": {
          "reference": "urn:uuid:5a3e2536-13f8-42ee-ad84-5fb2a26ef9cc"
        }
      }
    },
    {
      "fullUrl": "urn:uuid:2c161cdf-30ec-4a6a-8969-24021cbae70a",
      "resource": {
        "resourceType": "Observation",
        "id": "2c161cdf-30ec-4a6a-8969-24021cbae70a",
        "meta": {
          "profile": [
            "http://hl7.eu/fhir/laboratory/StructureDefinition/Observation-resultslab-eu-lab"
          ]
        },
        "performer": [
          {
            "display": "The Central European Lab"
          }
        ],
        "category": [
          {
            "coding": [
              {
                "system": "http://terminology.hl7.org/CodeSystem/observation-category",
                "code": "laboratory"
              }
            ]
          }
        ],
        "code": {
          "coding": [
            {
              "code": "6298-4",
              "system": "http://loinc.org",
              "display": "Potassium [Moles/volume] in Blood"
            }
          ],
          "text": "Potassium [Moles/volume] in Blood"
        },
        "valueQuantity": {
          "system": "http://unitsofmeasure.org",
          "value": 3.8,
          "unit": "mmol/L",
          "code": "mmol/L"
        },
        "referenceRange": [
          {
            "low": {
              "value": 3.5,
              "code": "mmol/L",
              "system": "http://unitsofmeasure.org"
            }
          },
          {
            "high": {
              "value": 5,
              "code": "mmol/L",
              "system": "http://unitsofmeasure.org"
            }
          }
        ],
        "text": {
          "status": "generated",
          "div": "<div xmlns=\"http://www.w3.org/1999/xhtml\"><table class=\"hl7__eu__lab__report\"><tr><th>Test</th><th>01-Apr-2019</th><th>Reference&#xA0;Range</th><th>Unit</th></tr><tr><td>Potassium [Moles/volume] in Blood</td><td>3.8</td><td>3.5 - 5</td><td></td><td>mmol/L</td></tr></table></div>"
        },
        "status": "final",
        "subject": {
          "reference": "urn:uuid:60d83b9f-952c-4d8e-bf86-f129dd3a8287",
          "display": "Alessio Fanucci"
        },
        "effectiveDateTime": "2019-04-01T07:49:06Z",
        "specimen": {
          "reference": "urn:uuid:5a3e2536-13f8-42ee-ad84-5fb2a26ef9cc"
        }
      }
    },
    {
      "fullUrl": "urn:uuid:67dfc096-c51e-41fc-b2d8-8662a8055ea4",
      "resource": {
        "resourceType": "Observation",
        "id": "67dfc096-c51e-41fc-b2d8-8662a8055ea4",
        "meta": {
          "profile": [
            "http://hl7.eu/fhir/laboratory/StructureDefinition/Observation-resultslab-eu-lab"
          ]
        },
        "performer": [
          {
            "display": "The Central European Lab"
          }
        ],
        "category": [
          {
            "coding": [
              {
                "system": "http://terminology.hl7.org/CodeSystem/observation-category",
                "code": "laboratory"
              }
            ]
          }
        ],
        "code": {
          "coding": [
            {
              "code": "2069-3",
              "system": "http://loinc.org",
              "display": "Chloride [Moles/volume] in Blood"
            }
          ],
          "text": "Chloride [Moles/volume] in Blood"
        },
        "valueQuantity": {
          "system": "http://unitsofmeasure.org",
          "value": 105.6,
          "unit": "mmol/L",
          "code": "mmol/L"
        },
        "referenceRange": [
          {
            "low": {
              "value": 98,
              "code": "mmol/L",
              "system": "http://unitsofmeasure.org"
            }
          },
          {
            "high": {
              "value": 110,
              "code": "mmol/L",
              "system": "http://unitsofmeasure.org"
            }
          }
        ],
        "text": {
          "status": "generated",
          "div": "<div xmlns=\"http://www.w3.org/1999/xhtml\"><table class=\"hl7__eu__lab__report\"><tr><th>Test</th><th>01-Apr-2019</th><th>Reference&#xA0;Range</th><th>Unit</th></tr><tr><td>Chloride [Moles/volume] in Blood</td><td>105.6</td><td>98 - 110</td><td></td><td>mmol/L</td></tr></table></div>"
        },
        "status": "final",
        "subject": {
          "reference": "urn:uuid:60d83b9f-952c-4d8e-bf86-f129dd3a8287",
          "display": "Alessio Fanucci"
        },
        "effectiveDateTime": "2019-04-01T07:49:06Z",
        "specimen": {
          "reference": "urn:uuid:5a3e2536-13f8-42ee-ad84-5fb2a26ef9cc"
        }
      }
    },
    {
      "fullUrl": "urn:uuid:5d7e7a1b-0a1d-489c-b721-caf1ca7ec9b0",
      "resource": {
        "resourceType": "Observation",
        "id": "5d7e7a1b-0a1d-489c-b721-caf1ca7ec9b0",
        "meta": {
          "profile": [
            "http://hl7.eu/fhir/laboratory/StructureDefinition/Observation-resultslab-eu-lab"
          ]
        },
        "performer": [
          {
            "display": "The Central European Lab"
          }
        ],
        "category": [
          {
            "coding": [
              {
                "system": "http://terminology.hl7.org/CodeSystem/observation-category",
                "code": "laboratory"
              }
            ]
          }
        ],
        "code": {
          "coding": [
            {
              "code": "20565-8",
              "system": "http://loinc.org",
              "display": "Carbon dioxide, total [Moles/volume] in Blood"
            }
          ],
          "text": "Carbon dioxide, total [Moles/volume] in Blood"
        },
        "valueQuantity": {
          "system": "http://unitsofmeasure.org",
          "value": 26.5,
          "unit": "mmol/L",
          "code": "mmol/L"
        },
        "referenceRange": [
          {
            "low": {
              "value": 22,
              "code": "mmol/L",
              "system": "http://unitsofmeasure.org"
            }
          },
          {
            "high": {
              "value": 32,
              "code": "mmol/L",
              "system": "http://unitsofmeasure.org"
            }
          }
        ],
        "text": {
          "status": "generated",
          "div": "<div xmlns=\"http://www.w3.org/1999/xhtml\"><table class=\"hl7__eu__lab__report\"><tr><th>Test</th><th>01-Apr-2019</th><th>Reference&#xA0;Range</th><th>Unit</th></tr><tr><td>Carbon dioxide, total [Moles/volume] in Blood</td><td>26.5</td><td>22 - 32</td><td></td><td>mmol/L</td></tr></table></div>"
        },
        "status": "final",
        "subject": {
          "reference": "urn:uuid:60d83b9f-952c-4d8e-bf86-f129dd3a8287",
          "display": "Alessio Fanucci"
        },
        "effectiveDateTime": "2019-04-01T07:49:06Z",
        "specimen": {
          "reference": "urn:uuid:5a3e2536-13f8-42ee-ad84-5fb2a26ef9cc"
        }
      }
    },
    {
      "fullUrl": "urn:uuid:57e07cc5-b9b7-4960-922b-e87e46b73ccf",
      "resource": {
        "resourceType": "Observation",
        "id": "57e07cc5-b9b7-4960-922b-e87e46b73ccf",
        "meta": {
          "profile": [
            "http://hl7.eu/fhir/laboratory/StructureDefinition/Observation-resultslab-eu-lab"
          ]
        },
        "performer": [
          {
            "display": "The Central European Lab"
          }
        ],
        "category": [
          {
            "coding": [
              {
                "system": "http://terminology.hl7.org/CodeSystem/observation-category",
                "code": "laboratory"
              }
            ]
          }
        ],
        "code": {
          "coding": [
            {
              "code": "2093-3",
              "system": "http://loinc.org",
              "display": "Cholesterol [Mass/volume] in Serum or Plasma"
            }
          ],
          "text": "Cholesterol [Mass/volume] in Serum or Plasma"
        },
        "valueQuantity": {
          "system": "http://unitsofmeasure.org",
          "value": 150.3,
          "unit": "mg/dL",
          "code": "mg/dL"
        },
        "referenceRange": [
          {
            "low": {
              "value": 125,
              "code": "mg/dL",
              "system": "http://unitsofmeasure.org"
            }
          },
          {
            "high": {
              "value": 200,
              "code": "mg/dL",
              "system": "http://unitsofmeasure.org"
            }
          }
        ],
        "text": {
          "status": "generated",
          "div": "<div xmlns=\"http://www.w3.org/1999/xhtml\"><table class=\"hl7__eu__lab__report\"><tr><th>Test</th><th>01-Apr-2019</th><th>Reference&#xA0;Range</th><th>Unit</th></tr><tr><td>Cholesterol [Mass/volume] in Serum or Plasma</td><td>150.3</td><td>125 - 200</td><td></td><td>mg/dL</td></tr></table></div>"
        },
        "status": "final",
        "subject": {
          "reference": "urn:uuid:60d83b9f-952c-4d8e-bf86-f129dd3a8287",
          "display": "Alessio Fanucci"
        },
        "effectiveDateTime": "2019-04-01T07:49:06Z",
        "specimen": {
          "reference": "urn:uuid:3a3a4a7b-452e-483d-b85c-36c2c41ccccb"
        }
      }
    },
    {
      "fullUrl": "urn:uuid:1426244c-98b0-4fca-a626-e21658a3b231",
      "resource": {
        "resourceType": "Observation",
        "id": "1426244c-98b0-4fca-a626-e21658a3b231",
        "meta": {
          "profile": [
            "http://hl7.eu/fhir/laboratory/StructureDefinition/Observation-resultslab-eu-lab"
          ]
        },
        "performer": [
          {
            "display": "The Central European Lab"
          }
        ],
        "category": [
          {
            "coding": [
              {
                "system": "http://terminology.hl7.org/CodeSystem/observation-category",
                "code": "laboratory"
              }
            ]
          }
        ],
        "code": {
          "coding": [
            {
              "code": "2571-8",
              "system": "http://loinc.org",
              "display": "Triglyceride [Mass/volume] in Serum or Plasma"
            }
          ],
          "text": "Triglyceride [Mass/volume] in Serum or Plasma"
        },
        "valueQuantity": {
          "system": "http://unitsofmeasure.org",
          "value": 104.1,
          "unit": "mg/dL",
          "code": "mg/dL"
        },
        "referenceRange": [
          {
            "low": {
              "value": 0,
              "code": "mg/dL",
              "system": "http://unitsofmeasure.org"
            }
          },
          {
            "high": {
              "value": 150,
              "code": "mg/dL",
              "system": "http://unitsofmeasure.org"
            }
          }
        ],
        "text": {
          "status": "generated",
          "div": "<div xmlns=\"http://www.w3.org/1999/xhtml\"><table class=\"hl7__eu__lab__report\"><tr><th>Test</th><th>01-Apr-2019</th><th>Reference&#xA0;Range</th><th>Unit</th></tr><tr><td>Triglyceride [Mass/volume] in Serum or Plasma</td><td>104.1</td><td>0 - 150</td><td></td><td>mg/dL</td></tr></table></div>"
        },
        "status": "final",
        "subject": {
          "reference": "urn:uuid:60d83b9f-952c-4d8e-bf86-f129dd3a8287",
          "display": "Alessio Fanucci"
        },
        "effectiveDateTime": "2019-04-01T07:49:06Z",
        "specimen": {
          "reference": "urn:uuid:3a3a4a7b-452e-483d-b85c-36c2c41ccccb"
        }
      }
    },
    {
      "fullUrl": "urn:uuid:ff36b694-567f-42ca-b590-9dcdf7c90843",
      "resource": {
        "resourceType": "Observation",
        "id": "ff36b694-567f-42ca-b590-9dcdf7c90843",
        "meta": {
          "profile": [
            "http://hl7.eu/fhir/laboratory/StructureDefinition/Observation-resultslab-eu-lab"
          ]
        },
        "performer": [
          {
            "display": "The Central European Lab"
          }
        ],
        "category": [
          {
            "coding": [
              {
                "system": "http://terminology.hl7.org/CodeSystem/observation-category",
                "code": "laboratory"
              }
            ]
          }
        ],
        "code": {
          "coding": [
            {
              "code": "18262-6",
              "system": "http://loinc.org",
              "display": "Cholesterol in LDL [Mass/volume] in Serum or Plasma by Direct assay"
            }
          ],
          "text": "Cholesterol in LDL [Mass/volume] in Serum or Plasma by Direct assay"
        },
        "valueQuantity": {
          "system": "http://unitsofmeasure.org",
          "value": 106.1,
          "unit": "mg/dL",
          "code": "mg/dL"
        },
        "referenceRange": [
          {
            "low": {
              "value": 0,
              "code": "mg/dL",
              "system": "http://unitsofmeasure.org"
            }
          },
          {
            "high": {
              "value": 130,
              "code": "mg/dL",
              "system": "http://unitsofmeasure.org"
            }
          }
        ],
        "text": {
          "status": "generated",
          "div": "<div xmlns=\"http://www.w3.org/1999/xhtml\"><table class=\"hl7__eu__lab__report\"><tr><th>Test</th><th>01-Apr-2019</th><th>Reference&#xA0;Range</th><th>Unit</th></tr><tr><td>Cholesterol in LDL [Mass/volume] in Serum or Plasma by Direct assay</td><td>106.1</td><td>0 - 130</td><td></td><td>mg/dL</td></tr></table></div>"
        },
        "status": "final",
        "subject": {
          "reference": "urn:uuid:60d83b9f-952c-4d8e-bf86-f129dd3a8287",
          "display": "Alessio Fanucci"
        },
        "effectiveDateTime": "2019-04-01T07:49:06Z",
        "specimen": {
          "reference": "urn:uuid:3a3a4a7b-452e-483d-b85c-36c2c41ccccb"
        }
      }
    },
    {
      "fullUrl": "urn:uuid:fb13aeb9-46d7-4475-95fb-a7a52e6b56a7",
      "resource": {
        "resourceType": "Observation",
        "id": "fb13aeb9-46d7-4475-95fb-a7a52e6b56a7",
        "meta": {
          "profile": [
            "http://hl7.eu/fhir/laboratory/StructureDefinition/Observation-resultslab-eu-lab"
          ]
        },
        "performer": [
          {
            "display": "The Central European Lab"
          }
        ],
        "category": [
          {
            "coding": [
              {
                "system": "http://terminology.hl7.org/CodeSystem/observation-category",
                "code": "laboratory"
              }
            ]
          }
        ],
        "code": {
          "coding": [
            {
              "code": "2085-9",
              "system": "http://loinc.org",
              "display": "Cholesterol in HDL [Mass/volume] in Serum or Plasma"
            }
          ],
          "text": "Cholesterol in HDL [Mass/volume] in Serum or Plasma"
        },
        "valueQuantity": {
          "system": "http://unitsofmeasure.org",
          "value": 23.4,
          "unit": "mg/dL",
          "code": "mg/dL"
        },
        "referenceRange": [
          {
            "low": {
              "value": 40,
              "code": "mg/dL",
              "system": "http://unitsofmeasure.org"
            }
          },
          {
            "high": {
              "value": 60,
              "code": "mg/dL",
              "system": "http://unitsofmeasure.org"
            }
          }
        ],
        "interpretation": [
          {
            "coding": [
              {
                "code": "L",
                "system": "http://terminology.hl7.org/CodeSystem/v3-ObservationInterpretation",
                "display": "Low"
              }
            ]
          }
        ],
        "text": {
          "status": "generated",
          "div": "<div xmlns=\"http://www.w3.org/1999/xhtml\"><table class=\"hl7__eu__lab__report\"><tr><th>Test</th><th>01-Apr-2019</th><th>Reference&#xA0;Range</th><th>Unit</th></tr><tr><td>Cholesterol in HDL [Mass/volume] in Serum or Plasma</td><td>23.4</td><td>40 - 60</td><td>L</td><td>mg/dL</td></tr></table></div>"
        },
        "status": "final",
        "subject": {
          "reference": "urn:uuid:60d83b9f-952c-4d8e-bf86-f129dd3a8287",
          "display": "Alessio Fanucci"
        },
        "effectiveDateTime": "2019-04-01T07:49:06Z",
        "specimen": {
          "reference": "urn:uuid:3a3a4a7b-452e-483d-b85c-36c2c41ccccb"
        }
      }
    },
    {
      "fullUrl": "urn:uuid:fc35d894-8170-4233-a5fb-0b48ec6f7be8",
      "resource": {
        "resourceType": "Device",
        "id": "fc35d894-8170-4233-a5fb-0b48ec6f7be8",
        "deviceName": [
          {
            "name": "SYNDERAI Synthetic Generator",
            "type": "manufacturer-name"
          }
        ],
        "version": [
          {
            "value": "5.0"
          }
        ],
        "text": {
          "status": "generated",
          "div": "<div xmlns=\"http://www.w3.org/1999/xhtml\">SYNDERAI Synthetic Generator v5.0</div>"
        },
        "status": "active\"",
        "distinctIdentifier": "synderai-generator-50",
        "manufacturer": "SYNDERAI Project"
      }
    },
    {
      "fullUrl": "urn:uuid:507427df-4c0f-416c-9d6e-ac2c0ad84b59",
      "resource": {
        "resourceType": "Provenance",
        "id": "507427df-4c0f-416c-9d6e-ac2c0ad84b59",
        "target": [
          {
            "reference": "Patient/60d83b9f-952c-4d8e-bf86-f129dd3a8287"
          },
          {
            "reference": "Bundle/45ee6cf0-e955-4688-9da2-a365b553971e"
          },
          {
            "reference": "Composition/b87d9863-c06b-4b95-955b-89d271db1beb"
          },
          {
            "reference": "PractitionerRole/a53ff699-482c-4cdc-8cbd-f310e71d67b8"
          },
          {
            "reference": "Practitioner/5bd9732f-42c5-43f6-9a84-12bc3dbd4797"
          },
          {
            "reference": "PractitionerRole/c37ceabf-bcae-4ecf-a8ca-8a1518b62440"
          },
          {
            "reference": "Organization/e74df1cb-47bc-4a86-8116-1c55dc071d8a"
          }
        ],
        "activity": {
          "text": "Synthetic Example Data Generation"
        },
        "policy": [
          "https://synderai.net/synderai-synthetic-data-policy"
        ],
        "agent": [
          {
            "type": {
              "text": "author"
            },
            "who": {
              "reference": "Device/fc35d894-8170-4233-a5fb-0b48ec6f7be8"
            }
          }
        ],
        "reason": [
          {
            "text": "Interoperability Testing and Training (non-clinical use)"
          }
        ],
        "text": {
          "status": "generated",
          "div": "<div xmlns=\"http://www.w3.org/1999/xhtml\">Provenance for SYNDERAI Synthetic Example Data Resource</div>"
        },
        "recorded": "2019-04-01T09:49:06Z"
      }
    },
    {
      "fullUrl": "urn:uuid:a53ff699-482c-4cdc-8cbd-f310e71d67b8",
      "resource": {
        "resourceType": "PractitionerRole",
        "id": "a53ff699-482c-4cdc-8cbd-f310e71d67b8",
        "meta": {
          "profile": [
            "http://hl7.eu/fhir/base/StructureDefinition/practitionerRole-eu"
          ]
        },
        "text": {
          "status": "generated",
          "div": "<div xmlns=\"http://www.w3.org/1999/xhtml\">Laboratory Role Id: a53ff699-482c-4cdc-8cbd-f310e71d67b8</div>"
        },
        "practitioner": {
          "reference": "urn:uuid:5bd9732f-42c5-43f6-9a84-12bc3dbd4797"
        }
      }
    },
    {
      "fullUrl": "urn:uuid:5bd9732f-42c5-43f6-9a84-12bc3dbd4797",
      "resource": {
        "resourceType": "Practitioner",
        "id": "5bd9732f-42c5-43f6-9a84-12bc3dbd4797",
        "meta": {
          "profile": [
            "http://hl7.eu/fhir/base/StructureDefinition/practitioner-eu"
          ]
        },
        "identifier": [
          {
            "assigner": {
              "display": "HL7 Europe"
            },
            "system": "urn:oid:2.16.840.1.113883.2.51.999",
            "value": "f0f4921c-c3e7-4403-a6c6-9af864039b65"
          }
        ],
        "name": [
          {
            "prefix": [
              "dr"
            ],
            "given": [
              "Ex"
            ],
            "family": "Ample"
          }
        ],
        "address": [
          {
            "line": [
              "Laboratoire Central Europenne",
              "Boulevard du Jardin Botanique 32"
            ],
            "postalCode": "1000",
            "city": "Brussels",
            "country": "Belgium"
          }
        ],
        "text": {
          "status": "generated",
          "div": "<div xmlns=\"http://www.w3.org/1999/xhtml\">Laboratory: Laboratoire Central Europenne, 1000 Brussels, Belgium</div>"
        }
      }
    }
  ],
  "type": "document",
  "timestamp": "2019-04-01T09:49:06Z"
}
