{
  "resourceType": "Bundle",
  "id": "8ce76264-e727-4e00-900f-87550c8e454c",
  "meta": {
    "profile": [
      "http://hl7.eu/fhir/laboratory/StructureDefinition/Bundle-eu-lab"
    ]
  },
  "identifier": {
    "assigner": {
      "display": "HL7 Europe"
    },
    "system": "urn:oid:2.16.840.1.113883.2.51.999",
    "value": "fcf255fb-4ac6-4860-ac30-945d253a3624"
  },
  "entry": [
    {
      "fullUrl": "urn:uuid:ae4e6040-14fe-4fa6-9311-b93a97253868",
      "resource": {
        "resourceType": "Composition",
        "id": "ae4e6040-14fe-4fa6-9311-b93a97253868",
        "meta": {
          "profile": [
            "http://hl7.eu/fhir/laboratory/StructureDefinition/Composition-eu-lab"
          ]
        },
        "identifier": {
          "assigner": {
            "display": "HL7 Europe"
          },
          "system": "urn:oid:2.16.840.1.113883.2.51.999",
          "value": "4f4ff5df-7734-48af-8d46-bec0f9cec9dd"
        },
        "author": [
          {
            "reference": "urn:uuid:aaac96b0-9b49-40b5-a3f1-68acbf8e1f8e"
          }
        ],
        "category": [
          {
            "coding": [
              {
                "code": "26436-6",
                "system": "http://loinc.org",
                "display": "Laboratory studies (set)"
              }
            ]
          }
        ],
        "type": {
          "coding": [
            {
              "code": "11502-2",
              "system": "http://loinc.org",
              "display": "Laboratory report"
            }
          ],
          "text": "Laboratory Report"
        },
        "section": [
          {
            "code": {
              "coding": [
                {
                  "code": "26436-6",
                  "system": "http://loinc.org",
                  "display": "Laboratory studies (set)"
                }
              ],
              "text": "Laboratory studies"
            },
            "section": [
              {
                "code": {
                  "coding": [
                    {
                      "code": "$18719-5",
                      "system": "http://loinc.org",
                      "display": "Chemistry studies (set)"
                    }
                  ],
                  "text": "Chemistry"
                },
                "entry": [
                  {
                    "reference": "urn:uuid:48cc7a9e-e091-48c1-a5cc-fc21ccc5bc54"
                  },
                  {
                    "reference": "urn:uuid:66eeb869-8af2-4f59-bf52-b4b3ce742e3a"
                  },
                  {
                    "reference": "urn:uuid:5ed26f2d-38e9-4a1e-b669-fe370cf3cc8f"
                  },
                  {
                    "reference": "urn:uuid:3fdf9a95-8278-4abc-8845-a6d64cba385f"
                  },
                  {
                    "reference": "urn:uuid:a3ced213-415c-4ba2-9e67-b9322f92eeaa"
                  },
                  {
                    "reference": "urn:uuid:a16684e5-125a-46cf-ae45-03abed64fa72"
                  },
                  {
                    "reference": "urn:uuid:8112f44a-8772-4579-a6bd-5c04ce6084d3"
                  },
                  {
                    "reference": "urn:uuid:b164cf97-e131-4f87-be55-4259bd0f94fc"
                  },
                  {
                    "reference": "urn:uuid:56f30f3a-0e5b-437b-8258-497a2c44cc0f"
                  },
                  {
                    "reference": "urn:uuid:65d06e4c-f776-46d9-bd73-41c07a6ef845"
                  },
                  {
                    "reference": "urn:uuid:fc96ba65-d38e-4898-94f7-9b9d87ed92e4"
                  },
                  {
                    "reference": "urn:uuid:325a545f-a414-4f05-9e7b-9619f49650c4"
                  },
                  {
                    "reference": "urn:uuid:f9c49de1-5570-404e-a95e-fbc78b843358"
                  },
                  {
                    "reference": "urn:uuid:b219a636-3aab-4d65-94b6-933984836183"
                  },
                  {
                    "reference": "urn:uuid:e712a867-efab-43c9-984a-357de2a1ef3b"
                  },
                  {
                    "reference": "urn:uuid:d07ec55f-f8e8-4e12-97d8-caff39ffbe33"
                  }
                ],
                "text": {
                  "status": "generated",
                  "div": "<div xmlns=\"http://www.w3.org/1999/xhtml\"><h3>Chemistry</h3><table class=\"hl7__eu__lab__report\"><thead><tr><th>Test</th><th>28-SEP-2017</th><th>Reference&#xA0;Range</th><th>Unit</th></tr></thead><tbody><tr><td>Glucose [Mass/volume] in Blood</td><td>85.6</td><td>70 - 140</td><td>mg/dL</td></tr><tr><td>Urea nitrogen [Mass/volume] in Blood</td><td>16.1</td><td>7 - 30</td><td>mg/dL</td></tr><tr><td>Creatinine [Mass/volume] in Blood</td><td><strong>2.6 H</strong></td><td>0.5 - 1.3</td><td>mg/dL</td></tr><tr><td>Calcium [Mass/volume] in Blood</td><td>9.8</td><td>8.6 - 10.2</td><td>mg/dL</td></tr><tr><td>Sodium [Moles/volume] in Blood</td><td>140.2</td><td>135 - 145</td><td>mmol/L</td></tr><tr><td>Potassium [Moles/volume] in Blood</td><td>4.0</td><td>3.5 - 5.1</td><td>mmol/L</td></tr><tr><td>Chloride [Moles/volume] in Blood</td><td>101.5</td><td>98 - 114</td><td>mmol/L</td></tr><tr><td>Carbon dioxide, total [Moles/volume] in Blood</td><td>25.6</td><td>22 - 32</td><td>mmol/L</td></tr><tr><td>Protein [Mass/volume] in Serum or Plasma</td><td>7.0</td><td>6 - 8.3</td><td>g/dL</td></tr><tr><td>Albumin [Mass/volume] in Serum or Plasma</td><td>4.5</td><td>3.5 - 5.5</td><td>g/dL</td></tr><tr><td>Globulin [Mass/volume] in Serum by calculation</td><td>2.2</td><td>2 - 3.5</td><td>g/L</td></tr><tr><td>Bilirubin.total [Mass/volume] in Serum or Plasma</td><td>1.0</td><td>0.3 - 1.2</td><td>mg/dL</td></tr><tr><td>Alkaline phosphatase [Enzymatic activity/volume] in Serum or Plasma</td><td><strong>38.5 L</strong></td><td>44 - 142</td><td>U/L</td></tr><tr><td>Alanine aminotransferase [Enzymatic activity/volume] in Serum or Plasma</td><td>38.9</td><td>7 - 40</td><td>U/L</td></tr><tr><td>Aspartate aminotransferase [Enzymatic activity/volume] in Serum or Plasma</td><td>23.4</td><td>10 - 40</td><td>U/L</td></tr><tr><td>Ketones [Presence] in Urine by Test strip</td><td>Urine ketone test = +++</td><td></td><td></td></tr></tbody></table></div>"
                },
                "title": "Chemistry"
              },
              {
                "code": {
                  "coding": [
                    {
                      "code": "$18729-4",
                      "system": "http://loinc.org",
                      "display": "Urinalysis studies (set)"
                    }
                  ],
                  "text": "Urinalysis"
                },
                "entry": [
                  {
                    "reference": "urn:uuid:8ecf2a2f-b455-41e2-a038-24c2b05d7c71"
                  },
                  {
                    "reference": "urn:uuid:4992cdd7-0fbb-4175-89ae-5e45a6e4d54b"
                  },
                  {
                    "reference": "urn:uuid:70b6ec24-0666-44b9-b4be-32c61f0a4e31"
                  },
                  {
                    "reference": "urn:uuid:c8cee5b7-5b0d-4509-995a-84f87f52a2e6"
                  },
                  {
                    "reference": "urn:uuid:8129ff68-301e-4463-bfe7-23d79b2e3d0f"
                  },
                  {
                    "reference": "urn:uuid:afac09df-f149-407e-8ed1-6b21037eb324"
                  },
                  {
                    "reference": "urn:uuid:d13c0f99-1927-48ac-a6f4-cfb9403b1593"
                  },
                  {
                    "reference": "urn:uuid:78867eab-715f-45db-8184-f35ac94386cf"
                  },
                  {
                    "reference": "urn:uuid:3eb21470-03ce-4d17-a10b-3f068f94e844"
                  },
                  {
                    "reference": "urn:uuid:74512f46-aaac-49a2-971e-78816d8b5c90"
                  },
                  {
                    "reference": "urn:uuid:e82cc7b1-c8b5-4c4a-b08c-28f0cf3aa526"
                  },
                  {
                    "reference": "urn:uuid:675b7349-95cb-429e-90cf-fa1289a643d6"
                  }
                ],
                "text": {
                  "status": "generated",
                  "div": "<div xmlns=\"http://www.w3.org/1999/xhtml\"><h3>Urinalysis</h3><table class=\"hl7__eu__lab__report\"><thead><tr><th>Test</th><th>28-SEP-2017</th><th>Reference&#xA0;Range</th><th>Unit</th></tr></thead><tbody><tr><td>Glucose [Mass/volume] in Urine by Test strip</td><td><strong>2.2 H</strong></td><td>0.8 - 0</td><td>mg/dL</td></tr><tr><td>Glucose [Presence] in Urine by Test strip</td><td>++</td><td></td><td></td></tr><tr><td>Bilirubin.total [Mass/volume] in Urine by Test strip</td><td>1.0</td><td>0 - 1.5</td><td>mg/dL</td></tr><tr><td>Bilirubin.total [Presence] in Urine by Test strip</td><td>Finding of bilirubin in urine</td><td></td><td></td></tr><tr><td>Ketones [Mass/volume] in Urine by Test strip</td><td><strong>16.1 H</strong></td><td>0 - 8</td><td>mg/dL</td></tr><tr><td>Specific gravity of Urine by Test strip</td><td><strong>1.0 L</strong></td><td>1.01 - 1.03</td><td>{nominal}</td></tr><tr><td>pH of Urine by Test strip</td><td>5.5</td><td>4.6 - 7.5</td><td>pH</td></tr><tr><td>Protein [Mass/volume] in Urine by Test strip</td><td><strong>334.3 H</strong></td><td>0 - 14</td><td>mg/dL</td></tr><tr><td>Protein [Presence] in Urine by Test strip</td><td>Urine protein test = +++</td><td></td><td></td></tr><tr><td>Nitrite [Presence] in Urine by Test strip</td><td>Urine nitrite negative</td><td></td><td></td></tr><tr><td>Hemoglobin [Presence] in Urine by Test strip</td><td>Urine blood test = negative</td><td></td><td></td></tr><tr><td>Leukocyte esterase [Presence] in Urine by Test strip</td><td>Urine leukocyte test negative</td><td></td><td></td></tr></tbody></table></div>"
                },
                "title": "Urinalysis"
              },
              {
                "code": {
                  "coding": [
                    {
                      "code": "$LP7846-1",
                      "system": "http://loinc.org",
                      "display": "Specimen information"
                    }
                  ],
                  "text": "Specimen information"
                },
                "entry": [
                  {
                    "reference": "urn:uuid:05d93f9c-b323-4e8a-9c89-21127f817c85"
                  },
                  {
                    "reference": "urn:uuid:7ffbf3be-8ed9-4e8b-af9c-a23fd5876af9"
                  },
                  {
                    "reference": "urn:uuid:d14bac90-dd71-4717-9f76-bcf6338c5c9b"
                  },
                  {
                    "reference": "urn:uuid:6862cba1-0357-425b-82f4-2935e2d7b14f"
                  }
                ],
                "text": {
                  "status": "generated",
                  "div": "<div xmlns=\"http://www.w3.org/1999/xhtml\"><h3>Specimen information</h3><table class=\"hl7__eu__lab__report\"><thead><tr><th>Test</th><th>28-SEP-2017</th><th>Specimen</th><th></th></tr></thead><tbody><tr><td>Appearance of Urine</td><td>Cloudy urine</td><td>Urine</td><td></td></tr><tr><td>Odor of Urine</td><td>Urine smell ammoniacal</td><td>Urine</td><td></td></tr><tr><td>Clarity of Urine</td><td>Translucent</td><td>Urine</td><td></td></tr><tr><td>Color of Urine</td><td>Brown color</td><td>Urine</td><td></td></tr></tbody></table></div>"
                },
                "title": "Specimen information"
              }
            ],
            "title": "Laboratory Report"
          },
          {
            "text": {
              "status": "generated",
              "div": "<div xmlns=\"http://www.w3.org/1999/xhtml\"><h3>Annotation</h3><table class=\"hl7__eu__lab__report\"><tr><th>Conclusion and Recommendations based on this report and previous findings known to us</th></tr><tr><td>The patient shows significantly elevated serum creatinine, indicating impaired renal function, and marked proteinuria, glycosuria, and ketonuria, suggesting possible diabetic nephropathy or acute kidney injury with metabolic derangement. Urine is abnormal in appearance and color, but no evidence of infection. Low urine specific gravity may indicate impaired concentrating ability. Liver enzymes and electrolytes are within normal limits. Recommend urgent clinical evaluation for renal dysfunction and metabolic status.</td></tr></table></div>"
            },
            "code": {
              "coding": [
                {
                  "system": "http://loinc.org",
                  "code": "48767-8",
                  "display": "Annotation comment"
                }
              ]
            },
            "title": "Annotation comment"
          }
        ],
        "status": "final",
        "subject": {
          "reference": "urn:uuid:2b5a7458-a8c7-4da0-a650-5a0d18e6eef9",
          "display": "Maria Nohlmans"
        },
        "date": "2017-09-28T16:11:39Z",
        "title": "Laboratory Report",
        "confidentiality": "N"
      }
    },
    {
      "fullUrl": "urn:uuid:eee64bd4-541c-4ef0-a596-7450deede2d9",
      "resource": {
        "resourceType": "DiagnosticReport",
        "id": "eee64bd4-541c-4ef0-a596-7450deede2d9",
        "meta": {
          "profile": [
            "http://hl7.eu/fhir/laboratory/StructureDefinition/DiagnosticReport-eu-lab"
          ]
        },
        "identifier": [
          {
            "assigner": {
              "display": "HL7 Europe"
            },
            "system": "urn:oid:2.16.840.1.113883.2.51.999",
            "value": "184ea50c-e7c1-4953-b640-da96bbe16615"
          }
        ],
        "extension": [
          {
            "url": "http://hl7.org/fhir/5.0/StructureDefinition/extension-DiagnosticReport.composition",
            "valueReference": {
              "reference": "urn:uuid:4f4ff5df-7734-48af-8d46-bec0f9cec9dd"
            }
          }
        ],
        "category": [
          {
            "coding": [
              {
                "code": "26436-6",
                "system": "http://loinc.org",
                "display": "Laboratory studies (set)"
              }
            ]
          }
        ],
        "specimen": [
          {
            "reference": "urn:uuid:25ace9f1-7f9f-424d-9d74-089d5279985a"
          },
          {
            "reference": "urn:uuid:df2f60ae-4bac-4518-910a-396ff77fd8a2"
          },
          {
            "reference": "urn:uuid:bd673e4a-ae12-4436-94ec-8e3799e8c0b2"
          },
          {
            "reference": "urn:uuid:7ab511c5-8038-44bf-b0be-af47659bcad2"
          }
        ],
        "result": [
          {
            "reference": "urn:uuid:48cc7a9e-e091-48c1-a5cc-fc21ccc5bc54"
          },
          {
            "reference": "urn:uuid:66eeb869-8af2-4f59-bf52-b4b3ce742e3a"
          },
          {
            "reference": "urn:uuid:5ed26f2d-38e9-4a1e-b669-fe370cf3cc8f"
          },
          {
            "reference": "urn:uuid:3fdf9a95-8278-4abc-8845-a6d64cba385f"
          },
          {
            "reference": "urn:uuid:a3ced213-415c-4ba2-9e67-b9322f92eeaa"
          },
          {
            "reference": "urn:uuid:a16684e5-125a-46cf-ae45-03abed64fa72"
          },
          {
            "reference": "urn:uuid:8112f44a-8772-4579-a6bd-5c04ce6084d3"
          },
          {
            "reference": "urn:uuid:b164cf97-e131-4f87-be55-4259bd0f94fc"
          },
          {
            "reference": "urn:uuid:56f30f3a-0e5b-437b-8258-497a2c44cc0f"
          },
          {
            "reference": "urn:uuid:65d06e4c-f776-46d9-bd73-41c07a6ef845"
          },
          {
            "reference": "urn:uuid:fc96ba65-d38e-4898-94f7-9b9d87ed92e4"
          },
          {
            "reference": "urn:uuid:325a545f-a414-4f05-9e7b-9619f49650c4"
          },
          {
            "reference": "urn:uuid:f9c49de1-5570-404e-a95e-fbc78b843358"
          },
          {
            "reference": "urn:uuid:b219a636-3aab-4d65-94b6-933984836183"
          },
          {
            "reference": "urn:uuid:e712a867-efab-43c9-984a-357de2a1ef3b"
          },
          {
            "reference": "urn:uuid:05d93f9c-b323-4e8a-9c89-21127f817c85"
          },
          {
            "reference": "urn:uuid:7ffbf3be-8ed9-4e8b-af9c-a23fd5876af9"
          },
          {
            "reference": "urn:uuid:d14bac90-dd71-4717-9f76-bcf6338c5c9b"
          },
          {
            "reference": "urn:uuid:6862cba1-0357-425b-82f4-2935e2d7b14f"
          },
          {
            "reference": "urn:uuid:8ecf2a2f-b455-41e2-a038-24c2b05d7c71"
          },
          {
            "reference": "urn:uuid:4992cdd7-0fbb-4175-89ae-5e45a6e4d54b"
          },
          {
            "reference": "urn:uuid:70b6ec24-0666-44b9-b4be-32c61f0a4e31"
          },
          {
            "reference": "urn:uuid:c8cee5b7-5b0d-4509-995a-84f87f52a2e6"
          },
          {
            "reference": "urn:uuid:8129ff68-301e-4463-bfe7-23d79b2e3d0f"
          },
          {
            "reference": "urn:uuid:d07ec55f-f8e8-4e12-97d8-caff39ffbe33"
          },
          {
            "reference": "urn:uuid:afac09df-f149-407e-8ed1-6b21037eb324"
          },
          {
            "reference": "urn:uuid:d13c0f99-1927-48ac-a6f4-cfb9403b1593"
          },
          {
            "reference": "urn:uuid:78867eab-715f-45db-8184-f35ac94386cf"
          },
          {
            "reference": "urn:uuid:3eb21470-03ce-4d17-a10b-3f068f94e844"
          },
          {
            "reference": "urn:uuid:74512f46-aaac-49a2-971e-78816d8b5c90"
          },
          {
            "reference": "urn:uuid:e82cc7b1-c8b5-4c4a-b08c-28f0cf3aa526"
          },
          {
            "reference": "urn:uuid:675b7349-95cb-429e-90cf-fa1289a643d6"
          }
        ],
        "status": "registered",
        "code": {
          "coding": [
            {
              "code": "11502-2",
              "system": "http://loinc.org",
              "display": "Laboratory report"
            }
          ]
        },
        "subject": {
          "reference": "urn:uuid:2b5a7458-a8c7-4da0-a650-5a0d18e6eef9",
          "display": "Maria Nohlmans"
        }
      }
    },
    {
      "fullUrl": "urn:uuid:2b5a7458-a8c7-4da0-a650-5a0d18e6eef9",
      "resource": {
        "resourceType": "Patient",
        "id": "2b5a7458-a8c7-4da0-a650-5a0d18e6eef9",
        "meta": {
          "security": [
            {
              "system": "http://terminology.hl7.org/CodeSystem/v3-ActReason",
              "code": "HTEST"
            },
            {
              "system": "http://terminology.hl7.org/CodeSystem/v3-ActReason",
              "code": "TRAIN"
            }
          ],
          "tag": [
            {
              "system": "https://synderai.net/fhir/CodeSystem/tags",
              "code": "synthetic",
              "display": "SYNDERAI Synthetic data"
            }
          ],
          "profile": [
            "http://hl7.eu/fhir/base/StructureDefinition/patient-eu-core"
          ]
        },
        "identifier": [
          {
            "type": {
              "coding": [
                {
                  "code": "PT",
                  "system": "http://terminology.hl7.org/CodeSystem/v2-0203"
                }
              ]
            },
            "system": "http://ec.europa.eu/identifier/eci",
            "value": "6886-506417-1"
          },
          {
            "type": {
              "coding": [
                {
                  "code": "MR",
                  "system": "http://terminology.hl7.org/CodeSystem/v2-0203"
                }
              ]
            },
            "system": "http://local.setting.eu/identifier",
            "value": "2cb21ed6-b617-b1f3-2290-589a710de5ee"
          }
        ],
        "name": [
          {
            "family": "Nohlmans"
          },
          {
            "given": [
              "Maria"
            ]
          },
          {
            "text": "Maria Nohlmans"
          }
        ],
        "address": [
          {
            "line": [
              "Alfons-Wulff-Weg 1"
            ],
            "use": "home",
            "type": "physical",
            "postalCode": "25813",
            "city": "Husum",
            "country": "Germany"
          }
        ],
        "telecom": [
          {
            "system": "phone",
            "value": "+49(0)1911 105501"
          }
        ],
        "extension": [
          {
            "url": "http://hl7.org/fhir/StructureDefinition/patient-nationality",
            "valueCodeableConcept": {
              "coding": [
                {
                  "code": "DE",
                  "system": "http://hl7.org/fhir/ValueSet/country"
                }
              ]
            }
          }
        ],
        "text": {
          "status": "generated",
          "div": "<div xmlns=\"http://www.w3.org/1999/xhtml\"><table class=\"hl7__ips\"><tr><td>Maria Nohlmans</td><td>female</td><td>11-Jun-1947</td></tr></table></div>"
        },
        "gender": "female",
        "birthDate": "1947-06-11"
      }
    },
    {
      "fullUrl": "urn:uuid:b74ee88c-ceb4-447c-9843-c16e98c99835",
      "resource": {
        "resourceType": "ServiceRequest",
        "id": "b74ee88c-ceb4-447c-9843-c16e98c99835",
        "meta": {
          "profile": [
            "http://hl7.eu/fhir/laboratory/StructureDefinition/ServiceRequest-eu-lab"
          ]
        },
        "identifier": [
          {
            "system": "http://example.org",
            "value": "5267fb9b-4627-41b6-bcec-ba55cc039d02"
          }
        ],
        "specimen": [
          {
            "reference": "urn:uuid:25ace9f1-7f9f-424d-9d74-089d5279985a"
          },
          {
            "reference": "urn:uuid:df2f60ae-4bac-4518-910a-396ff77fd8a2"
          },
          {
            "reference": "urn:uuid:bd673e4a-ae12-4436-94ec-8e3799e8c0b2"
          },
          {
            "reference": "urn:uuid:7ab511c5-8038-44bf-b0be-af47659bcad2"
          }
        ],
        "reasonCode": [
          {
            "coding": [
              {
                "code": "401314000",
                "system": "http://snomed.info/sct",
                "display": "Acute non-ST segment elevation myocardial infarction"
              }
            ]
          },
          {
            "coding": [
              {
                "code": "157141000119108",
                "system": "http://snomed.info/sct",
                "display": "Proteinuria due to type 2 diabetes mellitus"
              }
            ]
          },
          {
            "coding": [
              {
                "code": "237602007",
                "system": "http://snomed.info/sct",
                "display": "Metabolic syndrome X"
              }
            ]
          },
          {
            "coding": [
              {
                "code": "90781000119102",
                "system": "http://snomed.info/sct",
                "display": "Microalbuminuria due to type 2 diabetes mellitus"
              }
            ]
          },
          {
            "coding": [
              {
                "code": "127013003",
                "system": "http://snomed.info/sct",
                "display": "Disorder of kidney due to diabetes mellitus"
              }
            ]
          },
          {
            "coding": [
              {
                "code": "59621000",
                "system": "http://snomed.info/sct",
                "display": "Essential hypertension"
              }
            ]
          },
          {
            "coding": [
              {
                "code": "271737000",
                "system": "http://snomed.info/sct",
                "display": "Anemia"
              }
            ]
          },
          {
            "coding": [
              {
                "code": "15777000",
                "system": "http://snomed.info/sct",
                "display": "Prediabetes"
              }
            ]
          }
        ],
        "status": "active",
        "intent": "order",
        "code": {
          "coding": [
            {
              "code": "108252007",
              "system": "http://snomed.info/sct",
              "display": "Laboratory procedure"
            }
          ]
        },
        "subject": {
          "reference": "urn:uuid:2b5a7458-a8c7-4da0-a650-5a0d18e6eef9",
          "display": "Maria Nohlmans"
        },
        "requester": {
          "reference": "urn:uuid:d40bca0d-a798-4614-b904-9542c411bb7a"
        }
      }
    },
    {
      "fullUrl": "urn:uuid:d40bca0d-a798-4614-b904-9542c411bb7a",
      "resource": {
        "resourceType": "PractitionerRole",
        "id": "d40bca0d-a798-4614-b904-9542c411bb7a",
        "meta": {
          "profile": [
            "http://hl7.eu/fhir/base/StructureDefinition/practitionerRole-eu"
          ]
        },
        "text": {
          "status": "generated",
          "div": "<div xmlns=\"http://www.w3.org/1999/xhtml\">Provider Role Id: d40bca0d-a798-4614-b904-9542c411bb7a</div>"
        },
        "organization": {
          "reference": "urn:uuid:be5b9d0b-a3f5-4969-948a-308088e02021"
        }
      }
    },
    {
      "fullUrl": "urn:uuid:be5b9d0b-a3f5-4969-948a-308088e02021",
      "resource": {
        "resourceType": "Organization",
        "id": "be5b9d0b-a3f5-4969-948a-308088e02021",
        "meta": {
          "profile": [
            "http://hl7.eu/fhir/base/StructureDefinition/organization-eu"
          ]
        },
        "identifier": [
          {
            "assigner": {
              "display": "HL7 Europe"
            },
            "system": "urn:oid:2.16.840.1.113883.2.51.999",
            "value": "16c42665-70a9-44db-b6c3-4842c2bee06a"
          }
        ],
        "address": [
          {
            "line": [
              "Brinckmannstraße 35"
            ],
            "city": "Husum",
            "postalCode": "25813",
            "country": "Germany"
          }
        ],
        "text": {
          "status": "generated",
          "div": "<div xmlns=\"http://www.w3.org/1999/xhtml\">Provider Organization: Dr. Wolfram Hussels Kieferorthopäde</div>"
        },
        "name": "Dr. Wolfram Hussels Kieferorthopäde"
      }
    },
    {
      "fullUrl": "urn:uuid:25ace9f1-7f9f-424d-9d74-089d5279985a",
      "resource": {
        "resourceType": "Specimen",
        "id": "25ace9f1-7f9f-424d-9d74-089d5279985a",
        "meta": {
          "profile": [
            "http://hl7.eu/fhir/laboratory/StructureDefinition/Specimen-eu-lab"
          ]
        },
        "collection": {
          "collectedDateTime": "2017-09-28"
        },
        "text": {
          "status": "generated",
          "div": "<div xmlns=\"http://www.w3.org/1999/xhtml\"><table class=\"hl7__eu__lab__report\"><tr><th>Specimen</th><th>Collection Date</th></tr><tr><td>Whole blood specimen (specimen)</td><td><span class=\"nb\">28-Sep-2017</span></td></tr></table></div>"
        },
        "type": {
          "coding": [
            {
              "code": "258580003",
              "system": "http://snomed.info/sct",
              "display": "Whole blood specimen (specimen)"
            }
          ]
        }
      }
    },
    {
      "fullUrl": "urn:uuid:df2f60ae-4bac-4518-910a-396ff77fd8a2",
      "resource": {
        "resourceType": "Specimen",
        "id": "df2f60ae-4bac-4518-910a-396ff77fd8a2",
        "meta": {
          "profile": [
            "http://hl7.eu/fhir/laboratory/StructureDefinition/Specimen-eu-lab"
          ]
        },
        "collection": {
          "collectedDateTime": "2017-09-28"
        },
        "text": {
          "status": "generated",
          "div": "<div xmlns=\"http://www.w3.org/1999/xhtml\"><table class=\"hl7__eu__lab__report\"><tr><th>Specimen</th><th>Collection Date</th></tr><tr><td>Acellular blood (serum or plasma) specimen</td><td><span class=\"nb\">28-Sep-2017</span></td></tr></table></div>"
        },
        "type": {
          "coding": [
            {
              "code": "122592007",
              "system": "http://snomed.info/sct",
              "display": "Acellular blood (serum or plasma) specimen"
            }
          ]
        }
      }
    },
    {
      "fullUrl": "urn:uuid:bd673e4a-ae12-4436-94ec-8e3799e8c0b2",
      "resource": {
        "resourceType": "Specimen",
        "id": "bd673e4a-ae12-4436-94ec-8e3799e8c0b2",
        "meta": {
          "profile": [
            "http://hl7.eu/fhir/laboratory/StructureDefinition/Specimen-eu-lab"
          ]
        },
        "collection": {
          "collectedDateTime": "2017-09-28"
        },
        "text": {
          "status": "generated",
          "div": "<div xmlns=\"http://www.w3.org/1999/xhtml\"><table class=\"hl7__eu__lab__report\"><tr><th>Specimen</th><th>Collection Date</th></tr><tr><td>Serum specimen</td><td><span class=\"nb\">28-Sep-2017</span></td></tr></table></div>"
        },
        "type": {
          "coding": [
            {
              "code": "119364003",
              "system": "http://snomed.info/sct",
              "display": "Serum specimen"
            }
          ]
        }
      }
    },
    {
      "fullUrl": "urn:uuid:7ab511c5-8038-44bf-b0be-af47659bcad2",
      "resource": {
        "resourceType": "Specimen",
        "id": "7ab511c5-8038-44bf-b0be-af47659bcad2",
        "meta": {
          "profile": [
            "http://hl7.eu/fhir/laboratory/StructureDefinition/Specimen-eu-lab"
          ]
        },
        "collection": {
          "collectedDateTime": "2017-09-28"
        },
        "text": {
          "status": "generated",
          "div": "<div xmlns=\"http://www.w3.org/1999/xhtml\"><table class=\"hl7__eu__lab__report\"><tr><th>Specimen</th><th>Collection Date</th></tr><tr><td>Urine specimen</td><td><span class=\"nb\">28-Sep-2017</span></td></tr></table></div>"
        },
        "type": {
          "coding": [
            {
              "code": "122575003",
              "system": "http://snomed.info/sct",
              "display": "Urine specimen"
            }
          ]
        }
      }
    },
    {
      "fullUrl": "urn:uuid:48cc7a9e-e091-48c1-a5cc-fc21ccc5bc54",
      "resource": {
        "resourceType": "Observation",
        "id": "48cc7a9e-e091-48c1-a5cc-fc21ccc5bc54",
        "meta": {
          "profile": [
            "http://hl7.eu/fhir/laboratory/StructureDefinition/Observation-resultslab-eu-lab"
          ]
        },
        "performer": [
          {
            "display": "The Central European Lab"
          }
        ],
        "category": [
          {
            "coding": [
              {
                "system": "http://terminology.hl7.org/CodeSystem/observation-category",
                "code": "laboratory"
              }
            ]
          }
        ],
        "code": {
          "coding": [
            {
              "code": "2339-0",
              "system": "http://loinc.org",
              "display": "Glucose [Mass/volume] in Blood"
            }
          ],
          "text": "Glucose [Mass/volume] in Blood"
        },
        "valueQuantity": {
          "system": "http://unitsofmeasure.org",
          "value": 85.6,
          "unit": "mg/dL",
          "code": "mg/dL"
        },
        "referenceRange": [
          {
            "low": {
              "value": 70,
              "code": "mg/dL",
              "system": "http://unitsofmeasure.org"
            }
          },
          {
            "high": {
              "value": 140,
              "code": "mg/dL",
              "system": "http://unitsofmeasure.org"
            }
          }
        ],
        "text": {
          "status": "generated",
          "div": "<div xmlns=\"http://www.w3.org/1999/xhtml\"><table class=\"hl7__eu__lab__report\"><tr><th>Test</th><th>28-Sep-2017</th><th>Reference&#xA0;Range</th><th>Unit</th></tr><tr><td>Glucose [Mass/volume] in Blood</td><td>85.6</td><td>70 - 140</td><td></td><td>mg/dL</td></tr></table></div>"
        },
        "status": "final",
        "subject": {
          "reference": "urn:uuid:2b5a7458-a8c7-4da0-a650-5a0d18e6eef9",
          "display": "Maria Nohlmans"
        },
        "effectiveDateTime": "2017-09-28T14:11:39Z",
        "specimen": {
          "reference": "urn:uuid:25ace9f1-7f9f-424d-9d74-089d5279985a"
        }
      }
    },
    {
      "fullUrl": "urn:uuid:66eeb869-8af2-4f59-bf52-b4b3ce742e3a",
      "resource": {
        "resourceType": "Observation",
        "id": "66eeb869-8af2-4f59-bf52-b4b3ce742e3a",
        "meta": {
          "profile": [
            "http://hl7.eu/fhir/laboratory/StructureDefinition/Observation-resultslab-eu-lab"
          ]
        },
        "performer": [
          {
            "display": "The Central European Lab"
          }
        ],
        "category": [
          {
            "coding": [
              {
                "system": "http://terminology.hl7.org/CodeSystem/observation-category",
                "code": "laboratory"
              }
            ]
          }
        ],
        "code": {
          "coding": [
            {
              "code": "6299-2",
              "system": "http://loinc.org",
              "display": "Urea nitrogen [Mass/volume] in Blood"
            }
          ],
          "text": "Urea nitrogen [Mass/volume] in Blood"
        },
        "valueQuantity": {
          "system": "http://unitsofmeasure.org",
          "value": 16.1,
          "unit": "mg/dL",
          "code": "mg/dL"
        },
        "referenceRange": [
          {
            "low": {
              "value": 7,
              "code": "mg/dL",
              "system": "http://unitsofmeasure.org"
            }
          },
          {
            "high": {
              "value": 30,
              "code": "mg/dL",
              "system": "http://unitsofmeasure.org"
            }
          }
        ],
        "text": {
          "status": "generated",
          "div": "<div xmlns=\"http://www.w3.org/1999/xhtml\"><table class=\"hl7__eu__lab__report\"><tr><th>Test</th><th>28-Sep-2017</th><th>Reference&#xA0;Range</th><th>Unit</th></tr><tr><td>Urea nitrogen [Mass/volume] in Blood</td><td>16.1</td><td>7 - 30</td><td></td><td>mg/dL</td></tr></table></div>"
        },
        "status": "final",
        "subject": {
          "reference": "urn:uuid:2b5a7458-a8c7-4da0-a650-5a0d18e6eef9",
          "display": "Maria Nohlmans"
        },
        "effectiveDateTime": "2017-09-28T14:11:39Z",
        "specimen": {
          "reference": "urn:uuid:25ace9f1-7f9f-424d-9d74-089d5279985a"
        }
      }
    },
    {
      "fullUrl": "urn:uuid:5ed26f2d-38e9-4a1e-b669-fe370cf3cc8f",
      "resource": {
        "resourceType": "Observation",
        "id": "5ed26f2d-38e9-4a1e-b669-fe370cf3cc8f",
        "meta": {
          "profile": [
            "http://hl7.eu/fhir/laboratory/StructureDefinition/Observation-resultslab-eu-lab"
          ]
        },
        "performer": [
          {
            "display": "The Central European Lab"
          }
        ],
        "category": [
          {
            "coding": [
              {
                "system": "http://terminology.hl7.org/CodeSystem/observation-category",
                "code": "laboratory"
              }
            ]
          }
        ],
        "code": {
          "coding": [
            {
              "code": "38483-4",
              "system": "http://loinc.org",
              "display": "Creatinine [Mass/volume] in Blood"
            }
          ],
          "text": "Creatinine [Mass/volume] in Blood"
        },
        "valueQuantity": {
          "system": "http://unitsofmeasure.org",
          "value": 2.6,
          "unit": "mg/dL",
          "code": "mg/dL"
        },
        "referenceRange": [
          {
            "low": {
              "value": 0.5,
              "code": "mg/dL",
              "system": "http://unitsofmeasure.org"
            }
          },
          {
            "high": {
              "value": 1.3,
              "code": "mg/dL",
              "system": "http://unitsofmeasure.org"
            }
          }
        ],
        "interpretation": [
          {
            "coding": [
              {
                "code": "H",
                "system": "http://terminology.hl7.org/CodeSystem/v3-ObservationInterpretation",
                "display": "High"
              }
            ]
          }
        ],
        "text": {
          "status": "generated",
          "div": "<div xmlns=\"http://www.w3.org/1999/xhtml\"><table class=\"hl7__eu__lab__report\"><tr><th>Test</th><th>28-Sep-2017</th><th>Reference&#xA0;Range</th><th>Unit</th></tr><tr><td>Creatinine [Mass/volume] in Blood</td><td>2.6</td><td>0.5 - 1.3</td><td>H</td><td>mg/dL</td></tr></table></div>"
        },
        "status": "final",
        "subject": {
          "reference": "urn:uuid:2b5a7458-a8c7-4da0-a650-5a0d18e6eef9",
          "display": "Maria Nohlmans"
        },
        "effectiveDateTime": "2017-09-28T14:11:39Z",
        "specimen": {
          "reference": "urn:uuid:25ace9f1-7f9f-424d-9d74-089d5279985a"
        }
      }
    },
    {
      "fullUrl": "urn:uuid:3fdf9a95-8278-4abc-8845-a6d64cba385f",
      "resource": {
        "resourceType": "Observation",
        "id": "3fdf9a95-8278-4abc-8845-a6d64cba385f",
        "meta": {
          "profile": [
            "http://hl7.eu/fhir/laboratory/StructureDefinition/Observation-resultslab-eu-lab"
          ]
        },
        "performer": [
          {
            "display": "The Central European Lab"
          }
        ],
        "category": [
          {
            "coding": [
              {
                "system": "http://terminology.hl7.org/CodeSystem/observation-category",
                "code": "laboratory"
              }
            ]
          }
        ],
        "code": {
          "coding": [
            {
              "code": "49765-1",
              "system": "http://loinc.org",
              "display": "Calcium [Mass/volume] in Blood"
            }
          ],
          "text": "Calcium [Mass/volume] in Blood"
        },
        "valueQuantity": {
          "system": "http://unitsofmeasure.org",
          "value": 9.8,
          "unit": "mg/dL",
          "code": "mg/dL"
        },
        "referenceRange": [
          {
            "low": {
              "value": 8.6,
              "code": "mg/dL",
              "system": "http://unitsofmeasure.org"
            }
          },
          {
            "high": {
              "value": 10.2,
              "code": "mg/dL",
              "system": "http://unitsofmeasure.org"
            }
          }
        ],
        "text": {
          "status": "generated",
          "div": "<div xmlns=\"http://www.w3.org/1999/xhtml\"><table class=\"hl7__eu__lab__report\"><tr><th>Test</th><th>28-Sep-2017</th><th>Reference&#xA0;Range</th><th>Unit</th></tr><tr><td>Calcium [Mass/volume] in Blood</td><td>9.8</td><td>8.6 - 10.2</td><td></td><td>mg/dL</td></tr></table></div>"
        },
        "status": "final",
        "subject": {
          "reference": "urn:uuid:2b5a7458-a8c7-4da0-a650-5a0d18e6eef9",
          "display": "Maria Nohlmans"
        },
        "effectiveDateTime": "2017-09-28T14:11:39Z",
        "specimen": {
          "reference": "urn:uuid:25ace9f1-7f9f-424d-9d74-089d5279985a"
        }
      }
    },
    {
      "fullUrl": "urn:uuid:a3ced213-415c-4ba2-9e67-b9322f92eeaa",
      "resource": {
        "resourceType": "Observation",
        "id": "a3ced213-415c-4ba2-9e67-b9322f92eeaa",
        "meta": {
          "profile": [
            "http://hl7.eu/fhir/laboratory/StructureDefinition/Observation-resultslab-eu-lab"
          ]
        },
        "performer": [
          {
            "display": "The Central European Lab"
          }
        ],
        "category": [
          {
            "coding": [
              {
                "system": "http://terminology.hl7.org/CodeSystem/observation-category",
                "code": "laboratory"
              }
            ]
          }
        ],
        "code": {
          "coding": [
            {
              "code": "2947-0",
              "system": "http://loinc.org",
              "display": "Sodium [Moles/volume] in Blood"
            }
          ],
          "text": "Sodium [Moles/volume] in Blood"
        },
        "valueQuantity": {
          "system": "http://unitsofmeasure.org",
          "value": 140.2,
          "unit": "mmol/L",
          "code": "mmol/L"
        },
        "referenceRange": [
          {
            "low": {
              "value": 135,
              "code": "mmol/L",
              "system": "http://unitsofmeasure.org"
            }
          },
          {
            "high": {
              "value": 145,
              "code": "mmol/L",
              "system": "http://unitsofmeasure.org"
            }
          }
        ],
        "text": {
          "status": "generated",
          "div": "<div xmlns=\"http://www.w3.org/1999/xhtml\"><table class=\"hl7__eu__lab__report\"><tr><th>Test</th><th>28-Sep-2017</th><th>Reference&#xA0;Range</th><th>Unit</th></tr><tr><td>Sodium [Moles/volume] in Blood</td><td>140.2</td><td>135 - 145</td><td></td><td>mmol/L</td></tr></table></div>"
        },
        "status": "final",
        "subject": {
          "reference": "urn:uuid:2b5a7458-a8c7-4da0-a650-5a0d18e6eef9",
          "display": "Maria Nohlmans"
        },
        "effectiveDateTime": "2017-09-28T14:11:39Z",
        "specimen": {
          "reference": "urn:uuid:25ace9f1-7f9f-424d-9d74-089d5279985a"
        }
      }
    },
    {
      "fullUrl": "urn:uuid:a16684e5-125a-46cf-ae45-03abed64fa72",
      "resource": {
        "resourceType": "Observation",
        "id": "a16684e5-125a-46cf-ae45-03abed64fa72",
        "meta": {
          "profile": [
            "http://hl7.eu/fhir/laboratory/StructureDefinition/Observation-resultslab-eu-lab"
          ]
        },
        "performer": [
          {
            "display": "The Central European Lab"
          }
        ],
        "category": [
          {
            "coding": [
              {
                "system": "http://terminology.hl7.org/CodeSystem/observation-category",
                "code": "laboratory"
              }
            ]
          }
        ],
        "code": {
          "coding": [
            {
              "code": "6298-4",
              "system": "http://loinc.org",
              "display": "Potassium [Moles/volume] in Blood"
            }
          ],
          "text": "Potassium [Moles/volume] in Blood"
        },
        "valueQuantity": {
          "system": "http://unitsofmeasure.org",
          "value": 4,
          "unit": "mmol/L",
          "code": "mmol/L"
        },
        "referenceRange": [
          {
            "low": {
              "value": 3.5,
              "code": "mmol/L",
              "system": "http://unitsofmeasure.org"
            }
          },
          {
            "high": {
              "value": 5.1,
              "code": "mmol/L",
              "system": "http://unitsofmeasure.org"
            }
          }
        ],
        "text": {
          "status": "generated",
          "div": "<div xmlns=\"http://www.w3.org/1999/xhtml\"><table class=\"hl7__eu__lab__report\"><tr><th>Test</th><th>28-Sep-2017</th><th>Reference&#xA0;Range</th><th>Unit</th></tr><tr><td>Potassium [Moles/volume] in Blood</td><td>4.0</td><td>3.5 - 5.1</td><td></td><td>mmol/L</td></tr></table></div>"
        },
        "status": "final",
        "subject": {
          "reference": "urn:uuid:2b5a7458-a8c7-4da0-a650-5a0d18e6eef9",
          "display": "Maria Nohlmans"
        },
        "effectiveDateTime": "2017-09-28T14:11:39Z",
        "specimen": {
          "reference": "urn:uuid:25ace9f1-7f9f-424d-9d74-089d5279985a"
        }
      }
    },
    {
      "fullUrl": "urn:uuid:8112f44a-8772-4579-a6bd-5c04ce6084d3",
      "resource": {
        "resourceType": "Observation",
        "id": "8112f44a-8772-4579-a6bd-5c04ce6084d3",
        "meta": {
          "profile": [
            "http://hl7.eu/fhir/laboratory/StructureDefinition/Observation-resultslab-eu-lab"
          ]
        },
        "performer": [
          {
            "display": "The Central European Lab"
          }
        ],
        "category": [
          {
            "coding": [
              {
                "system": "http://terminology.hl7.org/CodeSystem/observation-category",
                "code": "laboratory"
              }
            ]
          }
        ],
        "code": {
          "coding": [
            {
              "code": "2069-3",
              "system": "http://loinc.org",
              "display": "Chloride [Moles/volume] in Blood"
            }
          ],
          "text": "Chloride [Moles/volume] in Blood"
        },
        "valueQuantity": {
          "system": "http://unitsofmeasure.org",
          "value": 101.5,
          "unit": "mmol/L",
          "code": "mmol/L"
        },
        "referenceRange": [
          {
            "low": {
              "value": 98,
              "code": "mmol/L",
              "system": "http://unitsofmeasure.org"
            }
          },
          {
            "high": {
              "value": 114,
              "code": "mmol/L",
              "system": "http://unitsofmeasure.org"
            }
          }
        ],
        "text": {
          "status": "generated",
          "div": "<div xmlns=\"http://www.w3.org/1999/xhtml\"><table class=\"hl7__eu__lab__report\"><tr><th>Test</th><th>28-Sep-2017</th><th>Reference&#xA0;Range</th><th>Unit</th></tr><tr><td>Chloride [Moles/volume] in Blood</td><td>101.5</td><td>98 - 114</td><td></td><td>mmol/L</td></tr></table></div>"
        },
        "status": "final",
        "subject": {
          "reference": "urn:uuid:2b5a7458-a8c7-4da0-a650-5a0d18e6eef9",
          "display": "Maria Nohlmans"
        },
        "effectiveDateTime": "2017-09-28T14:11:39Z",
        "specimen": {
          "reference": "urn:uuid:25ace9f1-7f9f-424d-9d74-089d5279985a"
        }
      }
    },
    {
      "fullUrl": "urn:uuid:b164cf97-e131-4f87-be55-4259bd0f94fc",
      "resource": {
        "resourceType": "Observation",
        "id": "b164cf97-e131-4f87-be55-4259bd0f94fc",
        "meta": {
          "profile": [
            "http://hl7.eu/fhir/laboratory/StructureDefinition/Observation-resultslab-eu-lab"
          ]
        },
        "performer": [
          {
            "display": "The Central European Lab"
          }
        ],
        "category": [
          {
            "coding": [
              {
                "system": "http://terminology.hl7.org/CodeSystem/observation-category",
                "code": "laboratory"
              }
            ]
          }
        ],
        "code": {
          "coding": [
            {
              "code": "20565-8",
              "system": "http://loinc.org",
              "display": "Carbon dioxide, total [Moles/volume] in Blood"
            }
          ],
          "text": "Carbon dioxide, total [Moles/volume] in Blood"
        },
        "valueQuantity": {
          "system": "http://unitsofmeasure.org",
          "value": 25.6,
          "unit": "mmol/L",
          "code": "mmol/L"
        },
        "referenceRange": [
          {
            "low": {
              "value": 22,
              "code": "mmol/L",
              "system": "http://unitsofmeasure.org"
            }
          },
          {
            "high": {
              "value": 32,
              "code": "mmol/L",
              "system": "http://unitsofmeasure.org"
            }
          }
        ],
        "text": {
          "status": "generated",
          "div": "<div xmlns=\"http://www.w3.org/1999/xhtml\"><table class=\"hl7__eu__lab__report\"><tr><th>Test</th><th>28-Sep-2017</th><th>Reference&#xA0;Range</th><th>Unit</th></tr><tr><td>Carbon dioxide, total [Moles/volume] in Blood</td><td>25.6</td><td>22 - 32</td><td></td><td>mmol/L</td></tr></table></div>"
        },
        "status": "final",
        "subject": {
          "reference": "urn:uuid:2b5a7458-a8c7-4da0-a650-5a0d18e6eef9",
          "display": "Maria Nohlmans"
        },
        "effectiveDateTime": "2017-09-28T14:11:39Z",
        "specimen": {
          "reference": "urn:uuid:25ace9f1-7f9f-424d-9d74-089d5279985a"
        }
      }
    },
    {
      "fullUrl": "urn:uuid:56f30f3a-0e5b-437b-8258-497a2c44cc0f",
      "resource": {
        "resourceType": "Observation",
        "id": "56f30f3a-0e5b-437b-8258-497a2c44cc0f",
        "meta": {
          "profile": [
            "http://hl7.eu/fhir/laboratory/StructureDefinition/Observation-resultslab-eu-lab"
          ]
        },
        "performer": [
          {
            "display": "The Central European Lab"
          }
        ],
        "category": [
          {
            "coding": [
              {
                "system": "http://terminology.hl7.org/CodeSystem/observation-category",
                "code": "laboratory"
              }
            ]
          }
        ],
        "code": {
          "coding": [
            {
              "code": "2885-2",
              "system": "http://loinc.org",
              "display": "Protein [Mass/volume] in Serum or Plasma"
            }
          ],
          "text": "Protein [Mass/volume] in Serum or Plasma"
        },
        "valueQuantity": {
          "system": "http://unitsofmeasure.org",
          "value": 7,
          "unit": "g/dL",
          "code": "g/dL"
        },
        "referenceRange": [
          {
            "low": {
              "value": 6,
              "code": "g/dL",
              "system": "http://unitsofmeasure.org"
            }
          },
          {
            "high": {
              "value": 8.3,
              "code": "g/dL",
              "system": "http://unitsofmeasure.org"
            }
          }
        ],
        "text": {
          "status": "generated",
          "div": "<div xmlns=\"http://www.w3.org/1999/xhtml\"><table class=\"hl7__eu__lab__report\"><tr><th>Test</th><th>28-Sep-2017</th><th>Reference&#xA0;Range</th><th>Unit</th></tr><tr><td>Protein [Mass/volume] in Serum or Plasma</td><td>7.0</td><td>6 - 8.3</td><td></td><td>g/dL</td></tr></table></div>"
        },
        "status": "final",
        "subject": {
          "reference": "urn:uuid:2b5a7458-a8c7-4da0-a650-5a0d18e6eef9",
          "display": "Maria Nohlmans"
        },
        "effectiveDateTime": "2017-09-28T14:11:39Z",
        "specimen": {
          "reference": "urn:uuid:df2f60ae-4bac-4518-910a-396ff77fd8a2"
        }
      }
    },
    {
      "fullUrl": "urn:uuid:65d06e4c-f776-46d9-bd73-41c07a6ef845",
      "resource": {
        "resourceType": "Observation",
        "id": "65d06e4c-f776-46d9-bd73-41c07a6ef845",
        "meta": {
          "profile": [
            "http://hl7.eu/fhir/laboratory/StructureDefinition/Observation-resultslab-eu-lab"
          ]
        },
        "performer": [
          {
            "display": "The Central European Lab"
          }
        ],
        "category": [
          {
            "coding": [
              {
                "system": "http://terminology.hl7.org/CodeSystem/observation-category",
                "code": "laboratory"
              }
            ]
          }
        ],
        "code": {
          "coding": [
            {
              "code": "1751-7",
              "system": "http://loinc.org",
              "display": "Albumin [Mass/volume] in Serum or Plasma"
            }
          ],
          "text": "Albumin [Mass/volume] in Serum or Plasma"
        },
        "valueQuantity": {
          "system": "http://unitsofmeasure.org",
          "value": 4.5,
          "unit": "g/dL",
          "code": "g/dL"
        },
        "referenceRange": [
          {
            "low": {
              "value": 3.5,
              "code": "g/dL",
              "system": "http://unitsofmeasure.org"
            }
          },
          {
            "high": {
              "value": 5.5,
              "code": "g/dL",
              "system": "http://unitsofmeasure.org"
            }
          }
        ],
        "text": {
          "status": "generated",
          "div": "<div xmlns=\"http://www.w3.org/1999/xhtml\"><table class=\"hl7__eu__lab__report\"><tr><th>Test</th><th>28-Sep-2017</th><th>Reference&#xA0;Range</th><th>Unit</th></tr><tr><td>Albumin [Mass/volume] in Serum or Plasma</td><td>4.5</td><td>3.5 - 5.5</td><td></td><td>g/dL</td></tr></table></div>"
        },
        "status": "final",
        "subject": {
          "reference": "urn:uuid:2b5a7458-a8c7-4da0-a650-5a0d18e6eef9",
          "display": "Maria Nohlmans"
        },
        "effectiveDateTime": "2017-09-28T14:11:39Z",
        "specimen": {
          "reference": "urn:uuid:df2f60ae-4bac-4518-910a-396ff77fd8a2"
        }
      }
    },
    {
      "fullUrl": "urn:uuid:fc96ba65-d38e-4898-94f7-9b9d87ed92e4",
      "resource": {
        "resourceType": "Observation",
        "id": "fc96ba65-d38e-4898-94f7-9b9d87ed92e4",
        "meta": {
          "profile": [
            "http://hl7.eu/fhir/laboratory/StructureDefinition/Observation-resultslab-eu-lab"
          ]
        },
        "performer": [
          {
            "display": "The Central European Lab"
          }
        ],
        "category": [
          {
            "coding": [
              {
                "system": "http://terminology.hl7.org/CodeSystem/observation-category",
                "code": "laboratory"
              }
            ]
          }
        ],
        "code": {
          "coding": [
            {
              "code": "10834-0",
              "system": "http://loinc.org",
              "display": "Globulin [Mass/volume] in Serum by calculation"
            }
          ],
          "text": "Globulin [Mass/volume] in Serum by calculation"
        },
        "valueQuantity": {
          "system": "http://unitsofmeasure.org",
          "value": 2.2,
          "unit": "g/L",
          "code": "g/L"
        },
        "referenceRange": [
          {
            "low": {
              "value": 2,
              "code": "g/L",
              "system": "http://unitsofmeasure.org"
            }
          },
          {
            "high": {
              "value": 3.5,
              "code": "g/L",
              "system": "http://unitsofmeasure.org"
            }
          }
        ],
        "text": {
          "status": "generated",
          "div": "<div xmlns=\"http://www.w3.org/1999/xhtml\"><table class=\"hl7__eu__lab__report\"><tr><th>Test</th><th>28-Sep-2017</th><th>Reference&#xA0;Range</th><th>Unit</th></tr><tr><td>Globulin [Mass/volume] in Serum by calculation</td><td>2.2</td><td>2 - 3.5</td><td></td><td>g/L</td></tr></table></div>"
        },
        "status": "final",
        "subject": {
          "reference": "urn:uuid:2b5a7458-a8c7-4da0-a650-5a0d18e6eef9",
          "display": "Maria Nohlmans"
        },
        "effectiveDateTime": "2017-09-28T14:11:39Z",
        "specimen": {
          "reference": "urn:uuid:bd673e4a-ae12-4436-94ec-8e3799e8c0b2"
        }
      }
    },
    {
      "fullUrl": "urn:uuid:325a545f-a414-4f05-9e7b-9619f49650c4",
      "resource": {
        "resourceType": "Observation",
        "id": "325a545f-a414-4f05-9e7b-9619f49650c4",
        "meta": {
          "profile": [
            "http://hl7.eu/fhir/laboratory/StructureDefinition/Observation-resultslab-eu-lab"
          ]
        },
        "performer": [
          {
            "display": "The Central European Lab"
          }
        ],
        "category": [
          {
            "coding": [
              {
                "system": "http://terminology.hl7.org/CodeSystem/observation-category",
                "code": "laboratory"
              }
            ]
          }
        ],
        "code": {
          "coding": [
            {
              "code": "1975-2",
              "system": "http://loinc.org",
              "display": "Bilirubin.total [Mass/volume] in Serum or Plasma"
            }
          ],
          "text": "Bilirubin.total [Mass/volume] in Serum or Plasma"
        },
        "valueQuantity": {
          "system": "http://unitsofmeasure.org",
          "value": 1,
          "unit": "mg/dL",
          "code": "mg/dL"
        },
        "referenceRange": [
          {
            "low": {
              "value": 0.3,
              "code": "mg/dL",
              "system": "http://unitsofmeasure.org"
            }
          },
          {
            "high": {
              "value": 1.2,
              "code": "mg/dL",
              "system": "http://unitsofmeasure.org"
            }
          }
        ],
        "text": {
          "status": "generated",
          "div": "<div xmlns=\"http://www.w3.org/1999/xhtml\"><table class=\"hl7__eu__lab__report\"><tr><th>Test</th><th>28-Sep-2017</th><th>Reference&#xA0;Range</th><th>Unit</th></tr><tr><td>Bilirubin.total [Mass/volume] in Serum or Plasma</td><td>1.0</td><td>0.3 - 1.2</td><td></td><td>mg/dL</td></tr></table></div>"
        },
        "status": "final",
        "subject": {
          "reference": "urn:uuid:2b5a7458-a8c7-4da0-a650-5a0d18e6eef9",
          "display": "Maria Nohlmans"
        },
        "effectiveDateTime": "2017-09-28T14:11:39Z",
        "specimen": {
          "reference": "urn:uuid:df2f60ae-4bac-4518-910a-396ff77fd8a2"
        }
      }
    },
    {
      "fullUrl": "urn:uuid:f9c49de1-5570-404e-a95e-fbc78b843358",
      "resource": {
        "resourceType": "Observation",
        "id": "f9c49de1-5570-404e-a95e-fbc78b843358",
        "meta": {
          "profile": [
            "http://hl7.eu/fhir/laboratory/StructureDefinition/Observation-resultslab-eu-lab"
          ]
        },
        "performer": [
          {
            "display": "The Central European Lab"
          }
        ],
        "category": [
          {
            "coding": [
              {
                "system": "http://terminology.hl7.org/CodeSystem/observation-category",
                "code": "laboratory"
              }
            ]
          }
        ],
        "code": {
          "coding": [
            {
              "code": "6768-6",
              "system": "http://loinc.org",
              "display": "Alkaline phosphatase [Enzymatic activity/volume] in Serum or Plasma"
            }
          ],
          "text": "Alkaline phosphatase [Enzymatic activity/volume] in Serum or Plasma"
        },
        "valueQuantity": {
          "system": "http://unitsofmeasure.org",
          "value": 38.5,
          "unit": "U/L",
          "code": "U/L"
        },
        "referenceRange": [
          {
            "low": {
              "value": 44,
              "code": "U/L",
              "system": "http://unitsofmeasure.org"
            }
          },
          {
            "high": {
              "value": 142,
              "code": "U/L",
              "system": "http://unitsofmeasure.org"
            }
          }
        ],
        "interpretation": [
          {
            "coding": [
              {
                "code": "L",
                "system": "http://terminology.hl7.org/CodeSystem/v3-ObservationInterpretation",
                "display": "Low"
              }
            ]
          }
        ],
        "text": {
          "status": "generated",
          "div": "<div xmlns=\"http://www.w3.org/1999/xhtml\"><table class=\"hl7__eu__lab__report\"><tr><th>Test</th><th>28-Sep-2017</th><th>Reference&#xA0;Range</th><th>Unit</th></tr><tr><td>Alkaline phosphatase [Enzymatic activity/volume] in Serum or Plasma</td><td>38.5</td><td>44 - 142</td><td>L</td><td>U/L</td></tr></table></div>"
        },
        "status": "final",
        "subject": {
          "reference": "urn:uuid:2b5a7458-a8c7-4da0-a650-5a0d18e6eef9",
          "display": "Maria Nohlmans"
        },
        "effectiveDateTime": "2017-09-28T14:11:39Z",
        "specimen": {
          "reference": "urn:uuid:df2f60ae-4bac-4518-910a-396ff77fd8a2"
        }
      }
    },
    {
      "fullUrl": "urn:uuid:b219a636-3aab-4d65-94b6-933984836183",
      "resource": {
        "resourceType": "Observation",
        "id": "b219a636-3aab-4d65-94b6-933984836183",
        "meta": {
          "profile": [
            "http://hl7.eu/fhir/laboratory/StructureDefinition/Observation-resultslab-eu-lab"
          ]
        },
        "performer": [
          {
            "display": "The Central European Lab"
          }
        ],
        "category": [
          {
            "coding": [
              {
                "system": "http://terminology.hl7.org/CodeSystem/observation-category",
                "code": "laboratory"
              }
            ]
          }
        ],
        "code": {
          "coding": [
            {
              "code": "1742-6",
              "system": "http://loinc.org",
              "display": "Alanine aminotransferase [Enzymatic activity/volume] in Serum or Plasma"
            }
          ],
          "text": "Alanine aminotransferase [Enzymatic activity/volume] in Serum or Plasma"
        },
        "valueQuantity": {
          "system": "http://unitsofmeasure.org",
          "value": 38.9,
          "unit": "U/L",
          "code": "U/L"
        },
        "referenceRange": [
          {
            "low": {
              "value": 7,
              "code": "U/L",
              "system": "http://unitsofmeasure.org"
            }
          },
          {
            "high": {
              "value": 40,
              "code": "U/L",
              "system": "http://unitsofmeasure.org"
            }
          }
        ],
        "text": {
          "status": "generated",
          "div": "<div xmlns=\"http://www.w3.org/1999/xhtml\"><table class=\"hl7__eu__lab__report\"><tr><th>Test</th><th>28-Sep-2017</th><th>Reference&#xA0;Range</th><th>Unit</th></tr><tr><td>Alanine aminotransferase [Enzymatic activity/volume] in Serum or Plasma</td><td>38.9</td><td>7 - 40</td><td></td><td>U/L</td></tr></table></div>"
        },
        "status": "final",
        "subject": {
          "reference": "urn:uuid:2b5a7458-a8c7-4da0-a650-5a0d18e6eef9",
          "display": "Maria Nohlmans"
        },
        "effectiveDateTime": "2017-09-28T14:11:39Z",
        "specimen": {
          "reference": "urn:uuid:df2f60ae-4bac-4518-910a-396ff77fd8a2"
        }
      }
    },
    {
      "fullUrl": "urn:uuid:e712a867-efab-43c9-984a-357de2a1ef3b",
      "resource": {
        "resourceType": "Observation",
        "id": "e712a867-efab-43c9-984a-357de2a1ef3b",
        "meta": {
          "profile": [
            "http://hl7.eu/fhir/laboratory/StructureDefinition/Observation-resultslab-eu-lab"
          ]
        },
        "performer": [
          {
            "display": "The Central European Lab"
          }
        ],
        "category": [
          {
            "coding": [
              {
                "system": "http://terminology.hl7.org/CodeSystem/observation-category",
                "code": "laboratory"
              }
            ]
          }
        ],
        "code": {
          "coding": [
            {
              "code": "1920-8",
              "system": "http://loinc.org",
              "display": "Aspartate aminotransferase [Enzymatic activity/volume] in Serum or Plasma"
            }
          ],
          "text": "Aspartate aminotransferase [Enzymatic activity/volume] in Serum or Plasma"
        },
        "valueQuantity": {
          "system": "http://unitsofmeasure.org",
          "value": 23.4,
          "unit": "U/L",
          "code": "U/L"
        },
        "referenceRange": [
          {
            "low": {
              "value": 10,
              "code": "U/L",
              "system": "http://unitsofmeasure.org"
            }
          },
          {
            "high": {
              "value": 40,
              "code": "U/L",
              "system": "http://unitsofmeasure.org"
            }
          }
        ],
        "text": {
          "status": "generated",
          "div": "<div xmlns=\"http://www.w3.org/1999/xhtml\"><table class=\"hl7__eu__lab__report\"><tr><th>Test</th><th>28-Sep-2017</th><th>Reference&#xA0;Range</th><th>Unit</th></tr><tr><td>Aspartate aminotransferase [Enzymatic activity/volume] in Serum or Plasma</td><td>23.4</td><td>10 - 40</td><td></td><td>U/L</td></tr></table></div>"
        },
        "status": "final",
        "subject": {
          "reference": "urn:uuid:2b5a7458-a8c7-4da0-a650-5a0d18e6eef9",
          "display": "Maria Nohlmans"
        },
        "effectiveDateTime": "2017-09-28T14:11:39Z",
        "specimen": {
          "reference": "urn:uuid:df2f60ae-4bac-4518-910a-396ff77fd8a2"
        }
      }
    },
    {
      "fullUrl": "urn:uuid:05d93f9c-b323-4e8a-9c89-21127f817c85",
      "resource": {
        "resourceType": "Observation",
        "id": "05d93f9c-b323-4e8a-9c89-21127f817c85",
        "meta": {
          "profile": [
            "http://hl7.eu/fhir/laboratory/StructureDefinition/Observation-resultslab-eu-lab"
          ]
        },
        "performer": [
          {
            "display": "The Central European Lab"
          }
        ],
        "category": [
          {
            "coding": [
              {
                "system": "http://terminology.hl7.org/CodeSystem/observation-category",
                "code": "laboratory"
              }
            ]
          }
        ],
        "code": {
          "coding": [
            {
              "code": "5767-9",
              "system": "http://loinc.org",
              "display": "Appearance of Urine"
            }
          ],
          "text": "Appearance of Urine"
        },
        "text": {
          "status": "generated",
          "div": "<div xmlns=\"http://www.w3.org/1999/xhtml\"><table class=\"hl7__eu__lab__report\"><tr><th>Test</th><th>28-Sep-2017</th><th>Reference&#xA0;Range</th><th>Unit</th></tr><tr><td>Appearance of Urine</td></tr></table></div>"
        },
        "status": "final",
        "subject": {
          "reference": "urn:uuid:2b5a7458-a8c7-4da0-a650-5a0d18e6eef9",
          "display": "Maria Nohlmans"
        },
        "effectiveDateTime": "2017-09-28T14:11:39Z",
        "specimen": {
          "reference": "urn:uuid:7ab511c5-8038-44bf-b0be-af47659bcad2"
        }
      }
    },
    {
      "fullUrl": "urn:uuid:7ffbf3be-8ed9-4e8b-af9c-a23fd5876af9",
      "resource": {
        "resourceType": "Observation",
        "id": "7ffbf3be-8ed9-4e8b-af9c-a23fd5876af9",
        "meta": {
          "profile": [
            "http://hl7.eu/fhir/laboratory/StructureDefinition/Observation-resultslab-eu-lab"
          ]
        },
        "performer": [
          {
            "display": "The Central European Lab"
          }
        ],
        "category": [
          {
            "coding": [
              {
                "system": "http://terminology.hl7.org/CodeSystem/observation-category",
                "code": "laboratory"
              }
            ]
          }
        ],
        "code": {
          "coding": [
            {
              "code": "34533-0",
              "system": "http://loinc.org",
              "display": "Odor of Urine"
            }
          ],
          "text": "Odor of Urine"
        },
        "text": {
          "status": "generated",
          "div": "<div xmlns=\"http://www.w3.org/1999/xhtml\"><table class=\"hl7__eu__lab__report\"><tr><th>Test</th><th>28-Sep-2017</th><th>Reference&#xA0;Range</th><th>Unit</th></tr><tr><td>Odor of Urine</td></tr></table></div>"
        },
        "status": "final",
        "subject": {
          "reference": "urn:uuid:2b5a7458-a8c7-4da0-a650-5a0d18e6eef9",
          "display": "Maria Nohlmans"
        },
        "effectiveDateTime": "2017-09-28T14:11:39Z",
        "specimen": {
          "reference": "urn:uuid:7ab511c5-8038-44bf-b0be-af47659bcad2"
        }
      }
    },
    {
      "fullUrl": "urn:uuid:d14bac90-dd71-4717-9f76-bcf6338c5c9b",
      "resource": {
        "resourceType": "Observation",
        "id": "d14bac90-dd71-4717-9f76-bcf6338c5c9b",
        "meta": {
          "profile": [
            "http://hl7.eu/fhir/laboratory/StructureDefinition/Observation-resultslab-eu-lab"
          ]
        },
        "performer": [
          {
            "display": "The Central European Lab"
          }
        ],
        "category": [
          {
            "coding": [
              {
                "system": "http://terminology.hl7.org/CodeSystem/observation-category",
                "code": "laboratory"
              }
            ]
          }
        ],
        "code": {
          "coding": [
            {
              "code": "32167-9",
              "system": "http://loinc.org",
              "display": "Clarity of Urine"
            }
          ],
          "text": "Clarity of Urine"
        },
        "text": {
          "status": "generated",
          "div": "<div xmlns=\"http://www.w3.org/1999/xhtml\"><table class=\"hl7__eu__lab__report\"><tr><th>Test</th><th>28-Sep-2017</th><th>Reference&#xA0;Range</th><th>Unit</th></tr><tr><td>Clarity of Urine</td></tr></table></div>"
        },
        "status": "final",
        "subject": {
          "reference": "urn:uuid:2b5a7458-a8c7-4da0-a650-5a0d18e6eef9",
          "display": "Maria Nohlmans"
        },
        "effectiveDateTime": "2017-09-28T14:11:39Z",
        "specimen": {
          "reference": "urn:uuid:7ab511c5-8038-44bf-b0be-af47659bcad2"
        }
      }
    },
    {
      "fullUrl": "urn:uuid:6862cba1-0357-425b-82f4-2935e2d7b14f",
      "resource": {
        "resourceType": "Observation",
        "id": "6862cba1-0357-425b-82f4-2935e2d7b14f",
        "meta": {
          "profile": [
            "http://hl7.eu/fhir/laboratory/StructureDefinition/Observation-resultslab-eu-lab"
          ]
        },
        "performer": [
          {
            "display": "The Central European Lab"
          }
        ],
        "category": [
          {
            "coding": [
              {
                "system": "http://terminology.hl7.org/CodeSystem/observation-category",
                "code": "laboratory"
              }
            ]
          }
        ],
        "code": {
          "coding": [
            {
              "code": "5778-6",
              "system": "http://loinc.org",
              "display": "Color of Urine"
            }
          ],
          "text": "Color of Urine"
        },
        "text": {
          "status": "generated",
          "div": "<div xmlns=\"http://www.w3.org/1999/xhtml\"><table class=\"hl7__eu__lab__report\"><tr><th>Test</th><th>28-Sep-2017</th><th>Reference&#xA0;Range</th><th>Unit</th></tr><tr><td>Color of Urine</td></tr></table></div>"
        },
        "status": "final",
        "subject": {
          "reference": "urn:uuid:2b5a7458-a8c7-4da0-a650-5a0d18e6eef9",
          "display": "Maria Nohlmans"
        },
        "effectiveDateTime": "2017-09-28T14:11:39Z",
        "specimen": {
          "reference": "urn:uuid:7ab511c5-8038-44bf-b0be-af47659bcad2"
        }
      }
    },
    {
      "fullUrl": "urn:uuid:8ecf2a2f-b455-41e2-a038-24c2b05d7c71",
      "resource": {
        "resourceType": "Observation",
        "id": "8ecf2a2f-b455-41e2-a038-24c2b05d7c71",
        "meta": {
          "profile": [
            "http://hl7.eu/fhir/laboratory/StructureDefinition/Observation-resultslab-eu-lab"
          ]
        },
        "performer": [
          {
            "display": "The Central European Lab"
          }
        ],
        "category": [
          {
            "coding": [
              {
                "system": "http://terminology.hl7.org/CodeSystem/observation-category",
                "code": "laboratory"
              }
            ]
          }
        ],
        "code": {
          "coding": [
            {
              "code": "5792-7",
              "system": "http://loinc.org",
              "display": "Glucose [Mass/volume] in Urine by Test strip"
            }
          ],
          "text": "Glucose [Mass/volume] in Urine by Test strip"
        },
        "valueQuantity": {
          "system": "http://unitsofmeasure.org",
          "value": 2.2,
          "unit": "mg/dL",
          "code": "mg/dL"
        },
        "referenceRange": [
          {
            "low": {
              "value": 0.8,
              "code": "mg/dL",
              "system": "http://unitsofmeasure.org"
            }
          },
          {
            "high": {
              "value": 0,
              "code": "mg/dL",
              "system": "http://unitsofmeasure.org"
            }
          }
        ],
        "interpretation": [
          {
            "coding": [
              {
                "code": "H",
                "system": "http://terminology.hl7.org/CodeSystem/v3-ObservationInterpretation",
                "display": "High"
              }
            ]
          }
        ],
        "text": {
          "status": "generated",
          "div": "<div xmlns=\"http://www.w3.org/1999/xhtml\"><table class=\"hl7__eu__lab__report\"><tr><th>Test</th><th>28-Sep-2017</th><th>Reference&#xA0;Range</th><th>Unit</th></tr><tr><td>Glucose [Mass/volume] in Urine by Test strip</td><td>2.2</td><td>0.8 - 0</td><td>H</td><td>mg/dL</td></tr></table></div>"
        },
        "status": "final",
        "subject": {
          "reference": "urn:uuid:2b5a7458-a8c7-4da0-a650-5a0d18e6eef9",
          "display": "Maria Nohlmans"
        },
        "effectiveDateTime": "2017-09-28T14:11:39Z",
        "specimen": {
          "reference": "urn:uuid:7ab511c5-8038-44bf-b0be-af47659bcad2"
        }
      }
    },
    {
      "fullUrl": "urn:uuid:4992cdd7-0fbb-4175-89ae-5e45a6e4d54b",
      "resource": {
        "resourceType": "Observation",
        "id": "4992cdd7-0fbb-4175-89ae-5e45a6e4d54b",
        "meta": {
          "profile": [
            "http://hl7.eu/fhir/laboratory/StructureDefinition/Observation-resultslab-eu-lab"
          ]
        },
        "performer": [
          {
            "display": "The Central European Lab"
          }
        ],
        "category": [
          {
            "coding": [
              {
                "system": "http://terminology.hl7.org/CodeSystem/observation-category",
                "code": "laboratory"
              }
            ]
          }
        ],
        "code": {
          "coding": [
            {
              "code": "25428-4",
              "system": "http://loinc.org",
              "display": "Glucose [Presence] in Urine by Test strip"
            }
          ],
          "text": "Glucose [Presence] in Urine by Test strip"
        },
        "text": {
          "status": "generated",
          "div": "<div xmlns=\"http://www.w3.org/1999/xhtml\"><table class=\"hl7__eu__lab__report\"><tr><th>Test</th><th>28-Sep-2017</th><th>Reference&#xA0;Range</th><th>Unit</th></tr><tr><td>Glucose [Presence] in Urine by Test strip</td></tr></table></div>"
        },
        "status": "final",
        "subject": {
          "reference": "urn:uuid:2b5a7458-a8c7-4da0-a650-5a0d18e6eef9",
          "display": "Maria Nohlmans"
        },
        "effectiveDateTime": "2017-09-28T14:11:39Z",
        "specimen": {
          "reference": "urn:uuid:7ab511c5-8038-44bf-b0be-af47659bcad2"
        }
      }
    },
    {
      "fullUrl": "urn:uuid:70b6ec24-0666-44b9-b4be-32c61f0a4e31",
      "resource": {
        "resourceType": "Observation",
        "id": "70b6ec24-0666-44b9-b4be-32c61f0a4e31",
        "meta": {
          "profile": [
            "http://hl7.eu/fhir/laboratory/StructureDefinition/Observation-resultslab-eu-lab"
          ]
        },
        "performer": [
          {
            "display": "The Central European Lab"
          }
        ],
        "category": [
          {
            "coding": [
              {
                "system": "http://terminology.hl7.org/CodeSystem/observation-category",
                "code": "laboratory"
              }
            ]
          }
        ],
        "code": {
          "coding": [
            {
              "code": "20505-4",
              "system": "http://loinc.org",
              "display": "Bilirubin.total [Mass/volume] in Urine by Test strip"
            }
          ],
          "text": "Bilirubin.total [Mass/volume] in Urine by Test strip"
        },
        "valueQuantity": {
          "system": "http://unitsofmeasure.org",
          "value": 1,
          "unit": "mg/dL",
          "code": "mg/dL"
        },
        "referenceRange": [
          {
            "low": {
              "value": 0,
              "code": "mg/dL",
              "system": "http://unitsofmeasure.org"
            }
          },
          {
            "high": {
              "value": 1.5,
              "code": "mg/dL",
              "system": "http://unitsofmeasure.org"
            }
          }
        ],
        "text": {
          "status": "generated",
          "div": "<div xmlns=\"http://www.w3.org/1999/xhtml\"><table class=\"hl7__eu__lab__report\"><tr><th>Test</th><th>28-Sep-2017</th><th>Reference&#xA0;Range</th><th>Unit</th></tr><tr><td>Bilirubin.total [Mass/volume] in Urine by Test strip</td><td>1.0</td><td>0 - 1.5</td><td></td><td>mg/dL</td></tr></table></div>"
        },
        "status": "final",
        "subject": {
          "reference": "urn:uuid:2b5a7458-a8c7-4da0-a650-5a0d18e6eef9",
          "display": "Maria Nohlmans"
        },
        "effectiveDateTime": "2017-09-28T14:11:39Z",
        "specimen": {
          "reference": "urn:uuid:7ab511c5-8038-44bf-b0be-af47659bcad2"
        }
      }
    },
    {
      "fullUrl": "urn:uuid:c8cee5b7-5b0d-4509-995a-84f87f52a2e6",
      "resource": {
        "resourceType": "Observation",
        "id": "c8cee5b7-5b0d-4509-995a-84f87f52a2e6",
        "meta": {
          "profile": [
            "http://hl7.eu/fhir/laboratory/StructureDefinition/Observation-resultslab-eu-lab"
          ]
        },
        "performer": [
          {
            "display": "The Central European Lab"
          }
        ],
        "category": [
          {
            "coding": [
              {
                "system": "http://terminology.hl7.org/CodeSystem/observation-category",
                "code": "laboratory"
              }
            ]
          }
        ],
        "code": {
          "coding": [
            {
              "code": "5770-3",
              "system": "http://loinc.org",
              "display": "Bilirubin.total [Presence] in Urine by Test strip"
            }
          ],
          "text": "Bilirubin.total [Presence] in Urine by Test strip"
        },
        "text": {
          "status": "generated",
          "div": "<div xmlns=\"http://www.w3.org/1999/xhtml\"><table class=\"hl7__eu__lab__report\"><tr><th>Test</th><th>28-Sep-2017</th><th>Reference&#xA0;Range</th><th>Unit</th></tr><tr><td>Bilirubin.total [Presence] in Urine by Test strip</td></tr></table></div>"
        },
        "status": "final",
        "subject": {
          "reference": "urn:uuid:2b5a7458-a8c7-4da0-a650-5a0d18e6eef9",
          "display": "Maria Nohlmans"
        },
        "effectiveDateTime": "2017-09-28T14:11:39Z",
        "specimen": {
          "reference": "urn:uuid:7ab511c5-8038-44bf-b0be-af47659bcad2"
        }
      }
    },
    {
      "fullUrl": "urn:uuid:8129ff68-301e-4463-bfe7-23d79b2e3d0f",
      "resource": {
        "resourceType": "Observation",
        "id": "8129ff68-301e-4463-bfe7-23d79b2e3d0f",
        "meta": {
          "profile": [
            "http://hl7.eu/fhir/laboratory/StructureDefinition/Observation-resultslab-eu-lab"
          ]
        },
        "performer": [
          {
            "display": "The Central European Lab"
          }
        ],
        "category": [
          {
            "coding": [
              {
                "system": "http://terminology.hl7.org/CodeSystem/observation-category",
                "code": "laboratory"
              }
            ]
          }
        ],
        "code": {
          "coding": [
            {
              "code": "5797-6",
              "system": "http://loinc.org",
              "display": "Ketones [Mass/volume] in Urine by Test strip"
            }
          ],
          "text": "Ketones [Mass/volume] in Urine by Test strip"
        },
        "valueQuantity": {
          "system": "http://unitsofmeasure.org",
          "value": 16.1,
          "unit": "mg/dL",
          "code": "mg/dL"
        },
        "referenceRange": [
          {
            "low": {
              "value": 0,
              "code": "mg/dL",
              "system": "http://unitsofmeasure.org"
            }
          },
          {
            "high": {
              "value": 8,
              "code": "mg/dL",
              "system": "http://unitsofmeasure.org"
            }
          }
        ],
        "interpretation": [
          {
            "coding": [
              {
                "code": "H",
                "system": "http://terminology.hl7.org/CodeSystem/v3-ObservationInterpretation",
                "display": "High"
              }
            ]
          }
        ],
        "text": {
          "status": "generated",
          "div": "<div xmlns=\"http://www.w3.org/1999/xhtml\"><table class=\"hl7__eu__lab__report\"><tr><th>Test</th><th>28-Sep-2017</th><th>Reference&#xA0;Range</th><th>Unit</th></tr><tr><td>Ketones [Mass/volume] in Urine by Test strip</td><td>16.1</td><td>0 - 8</td><td>H</td><td>mg/dL</td></tr></table></div>"
        },
        "status": "final",
        "subject": {
          "reference": "urn:uuid:2b5a7458-a8c7-4da0-a650-5a0d18e6eef9",
          "display": "Maria Nohlmans"
        },
        "effectiveDateTime": "2017-09-28T14:11:39Z",
        "specimen": {
          "reference": "urn:uuid:7ab511c5-8038-44bf-b0be-af47659bcad2"
        }
      }
    },
    {
      "fullUrl": "urn:uuid:d07ec55f-f8e8-4e12-97d8-caff39ffbe33",
      "resource": {
        "resourceType": "Observation",
        "id": "d07ec55f-f8e8-4e12-97d8-caff39ffbe33",
        "meta": {
          "profile": [
            "http://hl7.eu/fhir/laboratory/StructureDefinition/Observation-resultslab-eu-lab"
          ]
        },
        "performer": [
          {
            "display": "The Central European Lab"
          }
        ],
        "category": [
          {
            "coding": [
              {
                "system": "http://terminology.hl7.org/CodeSystem/observation-category",
                "code": "laboratory"
              }
            ]
          }
        ],
        "code": {
          "coding": [
            {
              "code": "2514-8",
              "system": "http://loinc.org",
              "display": "Ketones [Presence] in Urine by Test strip"
            }
          ],
          "text": "Ketones [Presence] in Urine by Test strip"
        },
        "text": {
          "status": "generated",
          "div": "<div xmlns=\"http://www.w3.org/1999/xhtml\"><table class=\"hl7__eu__lab__report\"><tr><th>Test</th><th>28-Sep-2017</th><th>Reference&#xA0;Range</th><th>Unit</th></tr><tr><td>Ketones [Presence] in Urine by Test strip</td></tr></table></div>"
        },
        "status": "final",
        "subject": {
          "reference": "urn:uuid:2b5a7458-a8c7-4da0-a650-5a0d18e6eef9",
          "display": "Maria Nohlmans"
        },
        "effectiveDateTime": "2017-09-28T14:11:39Z",
        "specimen": {
          "reference": "urn:uuid:7ab511c5-8038-44bf-b0be-af47659bcad2"
        }
      }
    },
    {
      "fullUrl": "urn:uuid:afac09df-f149-407e-8ed1-6b21037eb324",
      "resource": {
        "resourceType": "Observation",
        "id": "afac09df-f149-407e-8ed1-6b21037eb324",
        "meta": {
          "profile": [
            "http://hl7.eu/fhir/laboratory/StructureDefinition/Observation-resultslab-eu-lab"
          ]
        },
        "performer": [
          {
            "display": "The Central European Lab"
          }
        ],
        "category": [
          {
            "coding": [
              {
                "system": "http://terminology.hl7.org/CodeSystem/observation-category",
                "code": "laboratory"
              }
            ]
          }
        ],
        "code": {
          "coding": [
            {
              "code": "5811-5",
              "system": "http://loinc.org",
              "display": "Specific gravity of Urine by Test strip"
            }
          ],
          "text": "Specific gravity of Urine by Test strip"
        },
        "valueQuantity": {
          "system": "http://unitsofmeasure.org",
          "value": 1,
          "unit": "{nominal}",
          "code": "{nominal}"
        },
        "referenceRange": [
          {
            "low": {
              "value": 1.01,
              "code": "g/mL",
              "system": "http://unitsofmeasure.org"
            }
          },
          {
            "high": {
              "value": 1.03,
              "code": "g/mL",
              "system": "http://unitsofmeasure.org"
            }
          }
        ],
        "interpretation": [
          {
            "coding": [
              {
                "code": "L",
                "system": "http://terminology.hl7.org/CodeSystem/v3-ObservationInterpretation",
                "display": "Low"
              }
            ]
          }
        ],
        "text": {
          "status": "generated",
          "div": "<div xmlns=\"http://www.w3.org/1999/xhtml\"><table class=\"hl7__eu__lab__report\"><tr><th>Test</th><th>28-Sep-2017</th><th>Reference&#xA0;Range</th><th>Unit</th></tr><tr><td>Specific gravity of Urine by Test strip</td><td>1.0</td><td>1.01 - 1.03</td><td>L</td><td>{nominal}</td></tr></table></div>"
        },
        "status": "final",
        "subject": {
          "reference": "urn:uuid:2b5a7458-a8c7-4da0-a650-5a0d18e6eef9",
          "display": "Maria Nohlmans"
        },
        "effectiveDateTime": "2017-09-28T14:11:39Z",
        "specimen": {
          "reference": "urn:uuid:7ab511c5-8038-44bf-b0be-af47659bcad2"
        }
      }
    },
    {
      "fullUrl": "urn:uuid:d13c0f99-1927-48ac-a6f4-cfb9403b1593",
      "resource": {
        "resourceType": "Observation",
        "id": "d13c0f99-1927-48ac-a6f4-cfb9403b1593",
        "meta": {
          "profile": [
            "http://hl7.eu/fhir/laboratory/StructureDefinition/Observation-resultslab-eu-lab"
          ]
        },
        "performer": [
          {
            "display": "The Central European Lab"
          }
        ],
        "category": [
          {
            "coding": [
              {
                "system": "http://terminology.hl7.org/CodeSystem/observation-category",
                "code": "laboratory"
              }
            ]
          }
        ],
        "code": {
          "coding": [
            {
              "code": "5803-2",
              "system": "http://loinc.org",
              "display": "pH of Urine by Test strip"
            }
          ],
          "text": "pH of Urine by Test strip"
        },
        "valueQuantity": {
          "system": "http://unitsofmeasure.org",
          "value": 5.5,
          "unit": "pH",
          "code": "pH"
        },
        "referenceRange": [
          {
            "low": {
              "value": 4.6,
              "code": "pH",
              "system": "http://unitsofmeasure.org"
            }
          },
          {
            "high": {
              "value": 7.5,
              "code": "pH",
              "system": "http://unitsofmeasure.org"
            }
          }
        ],
        "text": {
          "status": "generated",
          "div": "<div xmlns=\"http://www.w3.org/1999/xhtml\"><table class=\"hl7__eu__lab__report\"><tr><th>Test</th><th>28-Sep-2017</th><th>Reference&#xA0;Range</th><th>Unit</th></tr><tr><td>pH of Urine by Test strip</td><td>5.5</td><td>4.6 - 7.5</td><td></td><td>pH</td></tr></table></div>"
        },
        "status": "final",
        "subject": {
          "reference": "urn:uuid:2b5a7458-a8c7-4da0-a650-5a0d18e6eef9",
          "display": "Maria Nohlmans"
        },
        "effectiveDateTime": "2017-09-28T14:11:39Z",
        "specimen": {
          "reference": "urn:uuid:7ab511c5-8038-44bf-b0be-af47659bcad2"
        }
      }
    },
    {
      "fullUrl": "urn:uuid:78867eab-715f-45db-8184-f35ac94386cf",
      "resource": {
        "resourceType": "Observation",
        "id": "78867eab-715f-45db-8184-f35ac94386cf",
        "meta": {
          "profile": [
            "http://hl7.eu/fhir/laboratory/StructureDefinition/Observation-resultslab-eu-lab"
          ]
        },
        "performer": [
          {
            "display": "The Central European Lab"
          }
        ],
        "category": [
          {
            "coding": [
              {
                "system": "http://terminology.hl7.org/CodeSystem/observation-category",
                "code": "laboratory"
              }
            ]
          }
        ],
        "code": {
          "coding": [
            {
              "code": "5804-0",
              "system": "http://loinc.org",
              "display": "Protein [Mass/volume] in Urine by Test strip"
            }
          ],
          "text": "Protein [Mass/volume] in Urine by Test strip"
        },
        "valueQuantity": {
          "system": "http://unitsofmeasure.org",
          "value": 334.3,
          "unit": "mg/dL",
          "code": "mg/dL"
        },
        "referenceRange": [
          {
            "low": {
              "value": 0,
              "code": "mg/dL",
              "system": "http://unitsofmeasure.org"
            }
          },
          {
            "high": {
              "value": 14,
              "code": "mg/dL",
              "system": "http://unitsofmeasure.org"
            }
          }
        ],
        "interpretation": [
          {
            "coding": [
              {
                "code": "H",
                "system": "http://terminology.hl7.org/CodeSystem/v3-ObservationInterpretation",
                "display": "High"
              }
            ]
          }
        ],
        "text": {
          "status": "generated",
          "div": "<div xmlns=\"http://www.w3.org/1999/xhtml\"><table class=\"hl7__eu__lab__report\"><tr><th>Test</th><th>28-Sep-2017</th><th>Reference&#xA0;Range</th><th>Unit</th></tr><tr><td>Protein [Mass/volume] in Urine by Test strip</td><td>334.3</td><td>0 - 14</td><td>H</td><td>mg/dL</td></tr></table></div>"
        },
        "status": "final",
        "subject": {
          "reference": "urn:uuid:2b5a7458-a8c7-4da0-a650-5a0d18e6eef9",
          "display": "Maria Nohlmans"
        },
        "effectiveDateTime": "2017-09-28T14:11:39Z",
        "specimen": {
          "reference": "urn:uuid:7ab511c5-8038-44bf-b0be-af47659bcad2"
        }
      }
    },
    {
      "fullUrl": "urn:uuid:3eb21470-03ce-4d17-a10b-3f068f94e844",
      "resource": {
        "resourceType": "Observation",
        "id": "3eb21470-03ce-4d17-a10b-3f068f94e844",
        "meta": {
          "profile": [
            "http://hl7.eu/fhir/laboratory/StructureDefinition/Observation-resultslab-eu-lab"
          ]
        },
        "performer": [
          {
            "display": "The Central European Lab"
          }
        ],
        "category": [
          {
            "coding": [
              {
                "system": "http://terminology.hl7.org/CodeSystem/observation-category",
                "code": "laboratory"
              }
            ]
          }
        ],
        "code": {
          "coding": [
            {
              "code": "20454-5",
              "system": "http://loinc.org",
              "display": "Protein [Presence] in Urine by Test strip"
            }
          ],
          "text": "Protein [Presence] in Urine by Test strip"
        },
        "text": {
          "status": "generated",
          "div": "<div xmlns=\"http://www.w3.org/1999/xhtml\"><table class=\"hl7__eu__lab__report\"><tr><th>Test</th><th>28-Sep-2017</th><th>Reference&#xA0;Range</th><th>Unit</th></tr><tr><td>Protein [Presence] in Urine by Test strip</td></tr></table></div>"
        },
        "status": "final",
        "subject": {
          "reference": "urn:uuid:2b5a7458-a8c7-4da0-a650-5a0d18e6eef9",
          "display": "Maria Nohlmans"
        },
        "effectiveDateTime": "2017-09-28T14:11:39Z",
        "specimen": {
          "reference": "urn:uuid:7ab511c5-8038-44bf-b0be-af47659bcad2"
        }
      }
    },
    {
      "fullUrl": "urn:uuid:74512f46-aaac-49a2-971e-78816d8b5c90",
      "resource": {
        "resourceType": "Observation",
        "id": "74512f46-aaac-49a2-971e-78816d8b5c90",
        "meta": {
          "profile": [
            "http://hl7.eu/fhir/laboratory/StructureDefinition/Observation-resultslab-eu-lab"
          ]
        },
        "performer": [
          {
            "display": "The Central European Lab"
          }
        ],
        "category": [
          {
            "coding": [
              {
                "system": "http://terminology.hl7.org/CodeSystem/observation-category",
                "code": "laboratory"
              }
            ]
          }
        ],
        "code": {
          "coding": [
            {
              "code": "5802-4",
              "system": "http://loinc.org",
              "display": "Nitrite [Presence] in Urine by Test strip"
            }
          ],
          "text": "Nitrite [Presence] in Urine by Test strip"
        },
        "text": {
          "status": "generated",
          "div": "<div xmlns=\"http://www.w3.org/1999/xhtml\"><table class=\"hl7__eu__lab__report\"><tr><th>Test</th><th>28-Sep-2017</th><th>Reference&#xA0;Range</th><th>Unit</th></tr><tr><td>Nitrite [Presence] in Urine by Test strip</td></tr></table></div>"
        },
        "status": "final",
        "subject": {
          "reference": "urn:uuid:2b5a7458-a8c7-4da0-a650-5a0d18e6eef9",
          "display": "Maria Nohlmans"
        },
        "effectiveDateTime": "2017-09-28T14:11:39Z",
        "specimen": {
          "reference": "urn:uuid:7ab511c5-8038-44bf-b0be-af47659bcad2"
        }
      }
    },
    {
      "fullUrl": "urn:uuid:e82cc7b1-c8b5-4c4a-b08c-28f0cf3aa526",
      "resource": {
        "resourceType": "Observation",
        "id": "e82cc7b1-c8b5-4c4a-b08c-28f0cf3aa526",
        "meta": {
          "profile": [
            "http://hl7.eu/fhir/laboratory/StructureDefinition/Observation-resultslab-eu-lab"
          ]
        },
        "performer": [
          {
            "display": "The Central European Lab"
          }
        ],
        "category": [
          {
            "coding": [
              {
                "system": "http://terminology.hl7.org/CodeSystem/observation-category",
                "code": "laboratory"
              }
            ]
          }
        ],
        "code": {
          "coding": [
            {
              "code": "5794-3",
              "system": "http://loinc.org",
              "display": "Hemoglobin [Presence] in Urine by Test strip"
            }
          ],
          "text": "Hemoglobin [Presence] in Urine by Test strip"
        },
        "text": {
          "status": "generated",
          "div": "<div xmlns=\"http://www.w3.org/1999/xhtml\"><table class=\"hl7__eu__lab__report\"><tr><th>Test</th><th>28-Sep-2017</th><th>Reference&#xA0;Range</th><th>Unit</th></tr><tr><td>Hemoglobin [Presence] in Urine by Test strip</td></tr></table></div>"
        },
        "status": "final",
        "subject": {
          "reference": "urn:uuid:2b5a7458-a8c7-4da0-a650-5a0d18e6eef9",
          "display": "Maria Nohlmans"
        },
        "effectiveDateTime": "2017-09-28T14:11:39Z",
        "specimen": {
          "reference": "urn:uuid:7ab511c5-8038-44bf-b0be-af47659bcad2"
        }
      }
    },
    {
      "fullUrl": "urn:uuid:675b7349-95cb-429e-90cf-fa1289a643d6",
      "resource": {
        "resourceType": "Observation",
        "id": "675b7349-95cb-429e-90cf-fa1289a643d6",
        "meta": {
          "profile": [
            "http://hl7.eu/fhir/laboratory/StructureDefinition/Observation-resultslab-eu-lab"
          ]
        },
        "performer": [
          {
            "display": "The Central European Lab"
          }
        ],
        "category": [
          {
            "coding": [
              {
                "system": "http://terminology.hl7.org/CodeSystem/observation-category",
                "code": "laboratory"
              }
            ]
          }
        ],
        "code": {
          "coding": [
            {
              "code": "5799-2",
              "system": "http://loinc.org",
              "display": "Leukocyte esterase [Presence] in Urine by Test strip"
            }
          ],
          "text": "Leukocyte esterase [Presence] in Urine by Test strip"
        },
        "text": {
          "status": "generated",
          "div": "<div xmlns=\"http://www.w3.org/1999/xhtml\"><table class=\"hl7__eu__lab__report\"><tr><th>Test</th><th>28-Sep-2017</th><th>Reference&#xA0;Range</th><th>Unit</th></tr><tr><td>Leukocyte esterase [Presence] in Urine by Test strip</td></tr></table></div>"
        },
        "status": "final",
        "subject": {
          "reference": "urn:uuid:2b5a7458-a8c7-4da0-a650-5a0d18e6eef9",
          "display": "Maria Nohlmans"
        },
        "effectiveDateTime": "2017-09-28T14:11:39Z",
        "specimen": {
          "reference": "urn:uuid:7ab511c5-8038-44bf-b0be-af47659bcad2"
        }
      }
    },
    {
      "fullUrl": "urn:uuid:24d9e141-59d9-416c-bb99-dad2a08f96e6",
      "resource": {
        "resourceType": "Device",
        "id": "24d9e141-59d9-416c-bb99-dad2a08f96e6",
        "deviceName": [
          {
            "name": "SYNDERAI Synthetic Generator",
            "type": "manufacturer-name"
          }
        ],
        "version": [
          {
            "value": "5.0"
          }
        ],
        "text": {
          "status": "generated",
          "div": "<div xmlns=\"http://www.w3.org/1999/xhtml\">SYNDERAI Synthetic Generator v5.0</div>"
        },
        "status": "active\"",
        "distinctIdentifier": "synderai-generator-50",
        "manufacturer": "SYNDERAI Project"
      }
    },
    {
      "fullUrl": "urn:uuid:52eb935e-dec8-4c4b-8fba-03c7c5e81bf9",
      "resource": {
        "resourceType": "Provenance",
        "id": "52eb935e-dec8-4c4b-8fba-03c7c5e81bf9",
        "target": [
          {
            "reference": "Patient/2b5a7458-a8c7-4da0-a650-5a0d18e6eef9"
          },
          {
            "reference": "Bundle/8ce76264-e727-4e00-900f-87550c8e454c"
          },
          {
            "reference": "Composition/ae4e6040-14fe-4fa6-9311-b93a97253868"
          },
          {
            "reference": "PractitionerRole/aaac96b0-9b49-40b5-a3f1-68acbf8e1f8e"
          },
          {
            "reference": "Practitioner/85f2ccae-ee84-466a-83cf-e2205b7a9996"
          },
          {
            "reference": "PractitionerRole/d40bca0d-a798-4614-b904-9542c411bb7a"
          },
          {
            "reference": "Organization/be5b9d0b-a3f5-4969-948a-308088e02021"
          }
        ],
        "activity": {
          "text": "Synthetic Example Data Generation"
        },
        "policy": [
          "https://synderai.net/synderai-synthetic-data-policy"
        ],
        "agent": [
          {
            "type": {
              "text": "author"
            },
            "who": {
              "reference": "Device/24d9e141-59d9-416c-bb99-dad2a08f96e6"
            }
          }
        ],
        "reason": [
          {
            "text": "Interoperability Testing and Training (non-clinical use)"
          }
        ],
        "text": {
          "status": "generated",
          "div": "<div xmlns=\"http://www.w3.org/1999/xhtml\">Provenance for SYNDERAI Synthetic Example Data Resource</div>"
        },
        "recorded": "2017-09-28T16:11:39Z"
      }
    },
    {
      "fullUrl": "urn:uuid:aaac96b0-9b49-40b5-a3f1-68acbf8e1f8e",
      "resource": {
        "resourceType": "PractitionerRole",
        "id": "aaac96b0-9b49-40b5-a3f1-68acbf8e1f8e",
        "meta": {
          "profile": [
            "http://hl7.eu/fhir/base/StructureDefinition/practitionerRole-eu"
          ]
        },
        "text": {
          "status": "generated",
          "div": "<div xmlns=\"http://www.w3.org/1999/xhtml\">Laboratory Role Id: aaac96b0-9b49-40b5-a3f1-68acbf8e1f8e</div>"
        },
        "practitioner": {
          "reference": "urn:uuid:85f2ccae-ee84-466a-83cf-e2205b7a9996"
        }
      }
    },
    {
      "fullUrl": "urn:uuid:85f2ccae-ee84-466a-83cf-e2205b7a9996",
      "resource": {
        "resourceType": "Practitioner",
        "id": "85f2ccae-ee84-466a-83cf-e2205b7a9996",
        "meta": {
          "profile": [
            "http://hl7.eu/fhir/base/StructureDefinition/practitioner-eu"
          ]
        },
        "identifier": [
          {
            "assigner": {
              "display": "HL7 Europe"
            },
            "system": "urn:oid:2.16.840.1.113883.2.51.999",
            "value": "e06a89c1-867c-43aa-9132-5a3dab0a8370"
          }
        ],
        "name": [
          {
            "prefix": [
              "dr"
            ],
            "given": [
              "Ex"
            ],
            "family": "Ample"
          }
        ],
        "address": [
          {
            "line": [
              "Laboratoire Central Européenne",
              "Boulevard du Jardin Botanique 32"
            ],
            "postalCode": "1000",
            "city": "Brussels",
            "country": "Belgium"
          }
        ],
        "text": {
          "status": "generated",
          "div": "<div xmlns=\"http://www.w3.org/1999/xhtml\">Laboratory: Laboratoire Central Européenne, 1000 Brussels, Belgium</div>"
        }
      }
    }
  ],
  "type": "document",
  "timestamp": "2017-09-28T16:11:39Z"
}
