{
  "resourceType": "Bundle",
  "id": "a14c5000-6201-45fc-93b2-14a6a5f08bce",
  "meta": {
    "profile": [
      "http://hl7.eu/fhir/laboratory/StructureDefinition/Bundle-eu-lab"
    ]
  },
  "identifier": {
    "assigner": {
      "display": "HL7 Europe"
    },
    "system": "urn:oid:2.16.840.1.113883.2.51.999",
    "value": "9d7f7552-ee30-4145-b41f-ab6da62bd136"
  },
  "entry": [
    {
      "fullUrl": "urn:uuid:27fb3e93-dba5-4bf3-888d-5ffa7c8e8041",
      "resource": {
        "resourceType": "Composition",
        "id": "27fb3e93-dba5-4bf3-888d-5ffa7c8e8041",
        "meta": {
          "profile": [
            "http://hl7.eu/fhir/laboratory/StructureDefinition/Composition-eu-lab"
          ]
        },
        "identifier": {
          "assigner": {
            "display": "HL7 Europe"
          },
          "system": "urn:oid:2.16.840.1.113883.2.51.999",
          "value": "f8c091e4-0aaf-4a79-b84e-f445ce72d560"
        },
        "author": [
          {
            "reference": "urn:uuid:f1f25239-f46e-4f44-956f-fdc7d7b34fbb"
          }
        ],
        "category": [
          {
            "coding": [
              {
                "code": "26436-6",
                "system": "http://loinc.org",
                "display": "Laboratory studies (set)"
              }
            ]
          }
        ],
        "type": {
          "coding": [
            {
              "code": "11502-2",
              "system": "http://loinc.org",
              "display": "Laboratory report"
            }
          ],
          "text": "Laboratory Report"
        },
        "section": [
          {
            "code": {
              "coding": [
                {
                  "code": "26436-6",
                  "system": "http://loinc.org",
                  "display": "Laboratory studies (set)"
                }
              ],
              "text": "Laboratory studies"
            },
            "section": [
              {
                "code": {
                  "coding": [
                    {
                      "code": "$18723-7",
                      "system": "http://loinc.org",
                      "display": "Hematology studies (set)"
                    }
                  ],
                  "text": "Hematology"
                },
                "entry": [
                  {
                    "reference": "urn:uuid:4ded3b78-78b1-4ffa-bc25-443b14cabf1c"
                  },
                  {
                    "reference": "urn:uuid:0f155472-3af2-4e21-bc4a-75f33330cada"
                  },
                  {
                    "reference": "urn:uuid:6e6bc159-7ee2-472e-8218-1c3c52d797a6"
                  },
                  {
                    "reference": "urn:uuid:f52abb91-63b5-422d-b9c2-6f5fec6cfe37"
                  },
                  {
                    "reference": "urn:uuid:3ef82326-82f7-4d0f-ae97-c3ec8df60ee6"
                  },
                  {
                    "reference": "urn:uuid:c06bfca4-a637-4cd2-a4b5-b21d7a9a661e"
                  },
                  {
                    "reference": "urn:uuid:6b55077f-fdfb-4cdd-87e0-09065a98c1b4"
                  },
                  {
                    "reference": "urn:uuid:49230bde-8e8d-4282-b78a-5ffbcbbe8011"
                  },
                  {
                    "reference": "urn:uuid:385b6d09-757a-4b9b-8519-19e64ce98a30"
                  },
                  {
                    "reference": "urn:uuid:e9442319-729d-42cb-bd84-fe6a42357549"
                  },
                  {
                    "reference": "urn:uuid:6fe3917c-6625-41e4-99d0-801922c92b56"
                  }
                ],
                "text": {
                  "status": "generated",
                  "div": "<div xmlns=\"http://www.w3.org/1999/xhtml\"><h3>Hematology</h3><table class=\"hl7__eu__lab__report\"><thead><tr><th>Test</th><th>20-AUG-2018</th><th>Reference&#xA0;Range</th><th>Unit</th></tr></thead><tbody><tr><td>Leukocytes [#/volume] in Blood by Automated count</td><td>9.5</td><td>4 - 11</td><td>10*3/uL</td></tr><tr><td>Erythrocytes [#/volume] in Blood by Automated count</td><td>4.6</td><td>3.9 - 5.2</td><td>10*6/uL</td></tr><tr><td>Hemoglobin [Mass/volume] in Blood</td><td>13.7</td><td>12 - 15.5</td><td>g/dL</td></tr><tr><td>Hematocrit [Volume Fraction] of Blood by Automated count</td><td>45.5</td><td>38 - 54</td><td>%</td></tr><tr><td>MCV [Entitic volume] by Automated count</td><td>92.5</td><td>78 - 98</td><td>fL</td></tr><tr><td>MCH [Entitic mass] by Automated count</td><td>28.6</td><td>27 - 33</td><td>pg</td></tr><tr><td>MCHC [Mass/volume] by Automated count</td><td>34.1</td><td>31 - 35</td><td>g/dL</td></tr><tr><td>Erythrocyte distribution width [Entitic volume] by Automated count</td><td>45.5</td><td>36 - 56</td><td>fL</td></tr><tr><td>Platelets [#/volume] in Blood by Automated count</td><td>191.7</td><td>150 - 450</td><td>10*3/uL</td></tr><tr><td>Platelet distribution width [Entitic volume] in Blood by Automated count</td><td><strong>451.1 H</strong></td><td>15.5 - 450</td><td>fL</td></tr><tr><td>Platelet mean volume [Entitic volume] in Blood by Automated count</td><td>10.2</td><td>7.2 - 13.5</td><td>fL</td></tr></tbody></table></div>"
                },
                "title": "Hematology"
              },
              {
                "code": {
                  "coding": [
                    {
                      "code": "$18719-5",
                      "system": "http://loinc.org",
                      "display": "Chemistry studies (set)"
                    }
                  ],
                  "text": "Chemistry"
                },
                "entry": [
                  {
                    "reference": "urn:uuid:0fb5f023-26a9-46c2-abe8-2d881179cb42"
                  },
                  {
                    "reference": "urn:uuid:cb35f86d-de6d-4dc0-abf9-8f6fba5db0e7"
                  },
                  {
                    "reference": "urn:uuid:dae3b6b3-c698-408d-a47e-d85c29b4274f"
                  },
                  {
                    "reference": "urn:uuid:e32f184c-7aae-447f-8f64-cf34c212d402"
                  },
                  {
                    "reference": "urn:uuid:a3ce9274-5ce3-44b6-a9a1-cd972f1d209c"
                  },
                  {
                    "reference": "urn:uuid:e423bd3c-de45-4dfb-a847-295dd4f09934"
                  },
                  {
                    "reference": "urn:uuid:24695bc2-f62d-455a-ae9b-b3c22864baea"
                  },
                  {
                    "reference": "urn:uuid:3644a951-619b-40f3-8389-dcf8da464e67"
                  },
                  {
                    "reference": "urn:uuid:4c771d85-e818-4a5d-876a-ab70a4cb6ece"
                  }
                ],
                "text": {
                  "status": "generated",
                  "div": "<div xmlns=\"http://www.w3.org/1999/xhtml\"><h3>Chemistry</h3><table class=\"hl7__eu__lab__report\"><thead><tr><th>Test</th><th>20-AUG-2018</th><th>Reference&#xA0;Range</th><th>Unit</th></tr></thead><tbody><tr><td>Glucose [Mass/volume] in Blood</td><td>93.9</td><td>70 - 140</td><td>mg/dL</td></tr><tr><td>Urea nitrogen [Mass/volume] in Blood</td><td>13.2</td><td>7 - 30</td><td>mg/dL</td></tr><tr><td>Creatinine [Mass/volume] in Blood</td><td>0.7</td><td>0.5 - 1.3</td><td>mg/dL</td></tr><tr><td>Calcium [Mass/volume] in Blood</td><td>8.7</td><td>8.6 - 10.2</td><td>mg/dL</td></tr><tr><td>Sodium [Moles/volume] in Blood</td><td>137.0</td><td>135 - 145</td><td>mmol/L</td></tr><tr><td>Potassium [Moles/volume] in Blood</td><td>4.5</td><td>3.5 - 5.1</td><td>mmol/L</td></tr><tr><td>Chloride [Moles/volume] in Blood</td><td>110.0</td><td>98 - 114</td><td>mmol/L</td></tr><tr><td>Carbon dioxide, total [Moles/volume] in Blood</td><td>27.9</td><td>22 - 32</td><td>mmol/L</td></tr><tr><td>Ketones [Presence] in Urine by Test strip</td><td>0.0</td><td>0 - 0</td><td>{presence}</td></tr></tbody></table></div>"
                },
                "title": "Chemistry"
              },
              {
                "code": {
                  "coding": [
                    {
                      "code": "$18729-4",
                      "system": "http://loinc.org",
                      "display": "Urinalysis studies (set)"
                    }
                  ],
                  "text": "Urinalysis"
                },
                "entry": [
                  {
                    "reference": "urn:uuid:9c150081-9ba6-4788-bcba-707f136e4dd1"
                  },
                  {
                    "reference": "urn:uuid:88e316e2-aa0a-4729-ab1f-b38234773ea6"
                  },
                  {
                    "reference": "urn:uuid:de0971d4-a353-47bc-a458-b016920ec493"
                  },
                  {
                    "reference": "urn:uuid:67beb305-8c8f-45a1-a871-d76e3281945b"
                  },
                  {
                    "reference": "urn:uuid:9821940b-a641-41a9-a9c8-0a4631724f19"
                  },
                  {
                    "reference": "urn:uuid:a1f20b56-b5e9-4d9f-9170-e7b6157a800c"
                  },
                  {
                    "reference": "urn:uuid:94bce9f5-85ef-48f6-86e8-b3d0f8402a0a"
                  },
                  {
                    "reference": "urn:uuid:ad38a1a9-989e-4646-a95f-2b4144f68550"
                  }
                ],
                "text": {
                  "status": "generated",
                  "div": "<div xmlns=\"http://www.w3.org/1999/xhtml\"><h3>Urinalysis</h3><table class=\"hl7__eu__lab__report\"><thead><tr><th>Test</th><th>20-AUG-2018</th><th>Reference&#xA0;Range</th><th>Unit</th></tr></thead><tbody><tr><td>Glucose [Presence] in Urine by Test strip</td><td>0.0</td><td>0 - 0</td><td>{presence}</td></tr><tr><td>Bilirubin.total [Presence] in Urine by Test strip</td><td>0.0</td><td>0 - 0</td><td>{presence}</td></tr><tr><td>Specific gravity of Urine by Test strip</td><td><strong>1.0 L</strong></td><td>1.005 - 1.03</td><td>{SG}</td></tr><tr><td>pH of Urine by Test strip</td><td>4.6</td><td>4.5 - 7.5</td><td>[pH]</td></tr><tr><td>Protein [Presence] in Urine by Test strip</td><td>0.0</td><td>0 - 0</td><td>{presence}</td></tr><tr><td>Nitrite [Presence] in Urine by Test strip</td><td>0.0</td><td>0 - 0</td><td>{presence}</td></tr><tr><td>Hemoglobin [Presence] in Urine by Test strip</td><td>0.0</td><td>0 - 0</td><td>{presence}</td></tr><tr><td>Leukocyte esterase [Presence] in Urine by Test strip</td><td>0.0</td><td>0 - 0</td><td>{presence}</td></tr></tbody></table></div>"
                },
                "title": "Urinalysis"
              }
            ],
            "title": "Laboratory Report"
          },
          {
            "text": {
              "status": "generated",
              "div": "<div xmlns=\"http://www.w3.org/1999/xhtml\"><h3>Annotation</h3><table class=\"hl7__eu__lab__report\"><tr><th>Conclusion and Recommendations based on this report and previous findings known to us</th></tr><tr><td>All blood parameters are within normal limits except for a mildly elevated platelet distribution width, which may indicate increased platelet size variability but is nonspecific. Urine is unremarkable except for a low specific gravity, possibly reflecting dilute urine or overhydration. No evidence of infection, anemia, renal dysfunction, or metabolic disturbance. Overall, results are largely unremarkable; clinical correlation is advised.</td></tr></table></div>"
            },
            "code": {
              "coding": [
                {
                  "system": "http://loinc.org",
                  "code": "48767-8",
                  "display": "Annotation comment"
                }
              ]
            },
            "title": "Annotation comment"
          }
        ],
        "status": "final",
        "subject": {
          "reference": "urn:uuid:cf678ac3-2e93-4335-a844-45fa49d6d7d2",
          "display": "Maria Nohlmans"
        },
        "date": "2018-08-20T01:27:12Z",
        "title": "Laboratory Report",
        "confidentiality": "N"
      }
    },
    {
      "fullUrl": "urn:uuid:a73a4dd7-6712-4a99-9a6d-1f6453301db6",
      "resource": {
        "resourceType": "DiagnosticReport",
        "id": "a73a4dd7-6712-4a99-9a6d-1f6453301db6",
        "meta": {
          "profile": [
            "http://hl7.eu/fhir/laboratory/StructureDefinition/DiagnosticReport-eu-lab"
          ]
        },
        "identifier": [
          {
            "assigner": {
              "display": "HL7 Europe"
            },
            "system": "urn:oid:2.16.840.1.113883.2.51.999",
            "value": "5c93f7f9-b68c-4027-8b11-1aa7f8a5ddbe"
          }
        ],
        "extension": [
          {
            "url": "http://hl7.org/fhir/5.0/StructureDefinition/extension-DiagnosticReport.composition",
            "valueReference": {
              "reference": "urn:uuid:f8c091e4-0aaf-4a79-b84e-f445ce72d560"
            }
          }
        ],
        "category": [
          {
            "coding": [
              {
                "code": "26436-6",
                "system": "http://loinc.org",
                "display": "Laboratory studies (set)"
              }
            ]
          }
        ],
        "specimen": [
          {
            "reference": "urn:uuid:2f26cae2-aacc-4a37-97ad-034c9414365a"
          },
          {
            "reference": "urn:uuid:2f26cae2-aacc-4a37-97ad-034c9414365a"
          },
          {
            "reference": "urn:uuid:f22ac872-cb01-453c-8e42-3e4642bf9414"
          }
        ],
        "result": [
          {
            "reference": "urn:uuid:0fb5f023-26a9-46c2-abe8-2d881179cb42"
          },
          {
            "reference": "urn:uuid:cb35f86d-de6d-4dc0-abf9-8f6fba5db0e7"
          },
          {
            "reference": "urn:uuid:dae3b6b3-c698-408d-a47e-d85c29b4274f"
          },
          {
            "reference": "urn:uuid:e32f184c-7aae-447f-8f64-cf34c212d402"
          },
          {
            "reference": "urn:uuid:a3ce9274-5ce3-44b6-a9a1-cd972f1d209c"
          },
          {
            "reference": "urn:uuid:e423bd3c-de45-4dfb-a847-295dd4f09934"
          },
          {
            "reference": "urn:uuid:24695bc2-f62d-455a-ae9b-b3c22864baea"
          },
          {
            "reference": "urn:uuid:3644a951-619b-40f3-8389-dcf8da464e67"
          },
          {
            "reference": "urn:uuid:4ded3b78-78b1-4ffa-bc25-443b14cabf1c"
          },
          {
            "reference": "urn:uuid:0f155472-3af2-4e21-bc4a-75f33330cada"
          },
          {
            "reference": "urn:uuid:6e6bc159-7ee2-472e-8218-1c3c52d797a6"
          },
          {
            "reference": "urn:uuid:f52abb91-63b5-422d-b9c2-6f5fec6cfe37"
          },
          {
            "reference": "urn:uuid:3ef82326-82f7-4d0f-ae97-c3ec8df60ee6"
          },
          {
            "reference": "urn:uuid:c06bfca4-a637-4cd2-a4b5-b21d7a9a661e"
          },
          {
            "reference": "urn:uuid:6b55077f-fdfb-4cdd-87e0-09065a98c1b4"
          },
          {
            "reference": "urn:uuid:49230bde-8e8d-4282-b78a-5ffbcbbe8011"
          },
          {
            "reference": "urn:uuid:385b6d09-757a-4b9b-8519-19e64ce98a30"
          },
          {
            "reference": "urn:uuid:e9442319-729d-42cb-bd84-fe6a42357549"
          },
          {
            "reference": "urn:uuid:6fe3917c-6625-41e4-99d0-801922c92b56"
          },
          {
            "reference": "urn:uuid:9c150081-9ba6-4788-bcba-707f136e4dd1"
          },
          {
            "reference": "urn:uuid:88e316e2-aa0a-4729-ab1f-b38234773ea6"
          },
          {
            "reference": "urn:uuid:4c771d85-e818-4a5d-876a-ab70a4cb6ece"
          },
          {
            "reference": "urn:uuid:de0971d4-a353-47bc-a458-b016920ec493"
          },
          {
            "reference": "urn:uuid:67beb305-8c8f-45a1-a871-d76e3281945b"
          },
          {
            "reference": "urn:uuid:9821940b-a641-41a9-a9c8-0a4631724f19"
          },
          {
            "reference": "urn:uuid:a1f20b56-b5e9-4d9f-9170-e7b6157a800c"
          },
          {
            "reference": "urn:uuid:94bce9f5-85ef-48f6-86e8-b3d0f8402a0a"
          },
          {
            "reference": "urn:uuid:ad38a1a9-989e-4646-a95f-2b4144f68550"
          }
        ],
        "status": "registered",
        "code": {
          "coding": [
            {
              "code": "11502-2",
              "system": "http://loinc.org",
              "display": "Laboratory report"
            }
          ]
        },
        "subject": {
          "reference": "urn:uuid:cf678ac3-2e93-4335-a844-45fa49d6d7d2",
          "display": "Maria Nohlmans"
        }
      }
    },
    {
      "fullUrl": "urn:uuid:cf678ac3-2e93-4335-a844-45fa49d6d7d2",
      "resource": {
        "resourceType": "Patient",
        "id": "cf678ac3-2e93-4335-a844-45fa49d6d7d2",
        "meta": {
          "security": [
            {
              "system": "http://terminology.hl7.org/CodeSystem/v3-ActReason",
              "code": "HTEST"
            },
            {
              "system": "http://terminology.hl7.org/CodeSystem/v3-ActReason",
              "code": "TRAIN"
            }
          ],
          "tag": [
            {
              "system": "https://synderai.net/fhir/CodeSystem/tags",
              "code": "synthetic",
              "display": "SYNDERAI Synthetic data"
            }
          ],
          "profile": [
            "http://hl7.eu/fhir/base/StructureDefinition/patient-eu-core"
          ]
        },
        "identifier": [
          {
            "type": {
              "coding": [
                {
                  "code": "PT",
                  "system": "http://terminology.hl7.org/CodeSystem/v2-0203"
                }
              ]
            },
            "system": "http://ec.europa.eu/identifier/eci",
            "value": "6886-506417-1"
          },
          {
            "type": {
              "coding": [
                {
                  "code": "MR",
                  "system": "http://terminology.hl7.org/CodeSystem/v2-0203"
                }
              ]
            },
            "system": "http://local.setting.eu/identifier",
            "value": "2cb21ed6-b617-b1f3-2290-589a710de5ee"
          }
        ],
        "name": [
          {
            "family": "Nohlmans"
          },
          {
            "given": [
              "Maria"
            ]
          },
          {
            "text": "Maria Nohlmans"
          }
        ],
        "address": [
          {
            "line": [
              "Alfons-Wulff-Weg 1"
            ],
            "use": "home",
            "type": "physical",
            "postalCode": "25813",
            "city": "Husum",
            "country": "Germany"
          }
        ],
        "telecom": [
          {
            "system": "phone",
            "value": "+49(0)1911 105501"
          }
        ],
        "extension": [
          {
            "url": "http://hl7.org/fhir/StructureDefinition/patient-nationality",
            "valueCodeableConcept": {
              "coding": [
                {
                  "code": "DE",
                  "system": "http://hl7.org/fhir/ValueSet/country"
                }
              ]
            }
          }
        ],
        "text": {
          "status": "generated",
          "div": "<div xmlns=\"http://www.w3.org/1999/xhtml\"><table class=\"hl7__ips\"><tr><td>Maria Nohlmans</td><td>female</td><td>11-Jun-1947</td></tr></table></div>"
        },
        "gender": "female",
        "birthDate": "1947-06-11"
      }
    },
    {
      "fullUrl": "urn:uuid:f4d0bafa-5478-4ad0-99cb-04dcb9276775",
      "resource": {
        "resourceType": "ServiceRequest",
        "id": "f4d0bafa-5478-4ad0-99cb-04dcb9276775",
        "meta": {
          "profile": [
            "http://hl7.eu/fhir/laboratory/StructureDefinition/ServiceRequest-eu-lab"
          ]
        },
        "identifier": [
          {
            "system": "http://example.org",
            "value": "4fc9133d-a14a-4dd4-9f21-6379a4e2e7d0"
          }
        ],
        "specimen": [
          {
            "reference": "urn:uuid:2f26cae2-aacc-4a37-97ad-034c9414365a"
          },
          {
            "reference": "urn:uuid:f22ac872-cb01-453c-8e42-3e4642bf9414"
          }
        ],
        "reasonCode": [
          {
            "coding": [
              {
                "code": "401314000",
                "system": "http://snomed.info/sct",
                "display": "Acute non-ST segment elevation myocardial infarction"
              }
            ]
          },
          {
            "coding": [
              {
                "code": "157141000119108",
                "system": "http://snomed.info/sct",
                "display": "Proteinuria due to type 2 diabetes mellitus"
              }
            ]
          },
          {
            "coding": [
              {
                "code": "237602007",
                "system": "http://snomed.info/sct",
                "display": "Metabolic syndrome X"
              }
            ]
          },
          {
            "coding": [
              {
                "code": "90781000119102",
                "system": "http://snomed.info/sct",
                "display": "Microalbuminuria due to type 2 diabetes mellitus"
              }
            ]
          },
          {
            "coding": [
              {
                "code": "127013003",
                "system": "http://snomed.info/sct",
                "display": "Disorder of kidney due to diabetes mellitus"
              }
            ]
          },
          {
            "coding": [
              {
                "code": "59621000",
                "system": "http://snomed.info/sct",
                "display": "Essential hypertension"
              }
            ]
          },
          {
            "coding": [
              {
                "code": "271737000",
                "system": "http://snomed.info/sct",
                "display": "Anemia"
              }
            ]
          },
          {
            "coding": [
              {
                "code": "15777000",
                "system": "http://snomed.info/sct",
                "display": "Prediabetes"
              }
            ]
          }
        ],
        "status": "active",
        "intent": "order",
        "code": {
          "coding": [
            {
              "code": "108252007",
              "system": "http://snomed.info/sct",
              "display": "Laboratory procedure"
            }
          ]
        },
        "subject": {
          "reference": "urn:uuid:cf678ac3-2e93-4335-a844-45fa49d6d7d2",
          "display": "Maria Nohlmans"
        },
        "requester": {
          "reference": "urn:uuid:752cce0d-ee77-49e1-b377-62946212bd60"
        }
      }
    },
    {
      "fullUrl": "urn:uuid:752cce0d-ee77-49e1-b377-62946212bd60",
      "resource": {
        "resourceType": "PractitionerRole",
        "id": "752cce0d-ee77-49e1-b377-62946212bd60",
        "meta": {
          "profile": [
            "http://hl7.eu/fhir/base/StructureDefinition/practitionerRole-eu"
          ]
        },
        "text": {
          "status": "generated",
          "div": "<div xmlns=\"http://www.w3.org/1999/xhtml\">Provider Role Id: 752cce0d-ee77-49e1-b377-62946212bd60</div>"
        },
        "organization": {
          "reference": "urn:uuid:9e17670d-e305-4dc0-b1e7-b8e4b36feeca"
        }
      }
    },
    {
      "fullUrl": "urn:uuid:9e17670d-e305-4dc0-b1e7-b8e4b36feeca",
      "resource": {
        "resourceType": "Organization",
        "id": "9e17670d-e305-4dc0-b1e7-b8e4b36feeca",
        "meta": {
          "profile": [
            "http://hl7.eu/fhir/base/StructureDefinition/organization-eu"
          ]
        },
        "identifier": [
          {
            "assigner": {
              "display": "HL7 Europe"
            },
            "system": "urn:oid:2.16.840.1.113883.2.51.999",
            "value": "08fe4090-2591-4c3b-b040-14a241916f3f"
          }
        ],
        "address": [
          {
            "line": [
              "Brinckmannstraße 35"
            ],
            "city": "Husum",
            "postalCode": "25813",
            "country": "Germany"
          }
        ],
        "text": {
          "status": "generated",
          "div": "<div xmlns=\"http://www.w3.org/1999/xhtml\">Provider Organization: Dr. Wolfram Hussels Kieferorthopäde</div>"
        },
        "name": "Dr. Wolfram Hussels Kieferorthopäde"
      }
    },
    {
      "fullUrl": "urn:uuid:2f26cae2-aacc-4a37-97ad-034c9414365a",
      "resource": {
        "resourceType": "Specimen",
        "id": "2f26cae2-aacc-4a37-97ad-034c9414365a",
        "meta": {
          "profile": [
            "http://hl7.eu/fhir/laboratory/StructureDefinition/Specimen-eu-lab"
          ]
        },
        "collection": {
          "collectedDateTime": "2018-08-19"
        },
        "text": {
          "status": "generated",
          "div": "<div xmlns=\"http://www.w3.org/1999/xhtml\"><table class=\"hl7__eu__lab__report\"><tr><th>Specimen</th><th>Collection Date</th></tr><tr><td>Whole blood specimen (specimen)</td><td><span class=\"nb\">19-Aug-2018</span></td></tr></table></div>"
        },
        "type": {
          "coding": [
            {
              "code": "258580003",
              "system": "http://snomed.info/sct",
              "display": "Whole blood specimen (specimen)"
            }
          ]
        }
      }
    },
    {
      "fullUrl": "urn:uuid:2f26cae2-aacc-4a37-97ad-034c9414365a",
      "resource": {
        "resourceType": "Specimen",
        "id": "2f26cae2-aacc-4a37-97ad-034c9414365a",
        "meta": {
          "profile": [
            "http://hl7.eu/fhir/laboratory/StructureDefinition/Specimen-eu-lab"
          ]
        },
        "collection": {
          "collectedDateTime": "2018-08-19"
        },
        "text": {
          "status": "generated",
          "div": "<div xmlns=\"http://www.w3.org/1999/xhtml\"><table class=\"hl7__eu__lab__report\"><tr><th>Specimen</th><th>Collection Date</th></tr><tr><td>Whole blood specimen (specimen)</td><td><span class=\"nb\">19-Aug-2018</span></td></tr></table></div>"
        },
        "type": {
          "coding": [
            {
              "code": "258580003",
              "system": "http://snomed.info/sct",
              "display": "Whole blood specimen (specimen)"
            }
          ]
        }
      }
    },
    {
      "fullUrl": "urn:uuid:f22ac872-cb01-453c-8e42-3e4642bf9414",
      "resource": {
        "resourceType": "Specimen",
        "id": "f22ac872-cb01-453c-8e42-3e4642bf9414",
        "meta": {
          "profile": [
            "http://hl7.eu/fhir/laboratory/StructureDefinition/Specimen-eu-lab"
          ]
        },
        "collection": {
          "collectedDateTime": "2018-08-19"
        },
        "text": {
          "status": "generated",
          "div": "<div xmlns=\"http://www.w3.org/1999/xhtml\"><table class=\"hl7__eu__lab__report\"><tr><th>Specimen</th><th>Collection Date</th></tr><tr><td>Urine specimen</td><td><span class=\"nb\">19-Aug-2018</span></td></tr></table></div>"
        },
        "type": {
          "coding": [
            {
              "code": "122575003",
              "system": "http://snomed.info/sct",
              "display": "Urine specimen"
            }
          ]
        }
      }
    },
    {
      "fullUrl": "urn:uuid:0fb5f023-26a9-46c2-abe8-2d881179cb42",
      "resource": {
        "resourceType": "Observation",
        "id": "0fb5f023-26a9-46c2-abe8-2d881179cb42",
        "meta": {
          "profile": [
            "http://hl7.eu/fhir/laboratory/StructureDefinition/Observation-resultslab-eu-lab"
          ]
        },
        "performer": [
          {
            "display": "The Central European Lab"
          }
        ],
        "category": [
          {
            "coding": [
              {
                "system": "http://terminology.hl7.org/CodeSystem/observation-category",
                "code": "laboratory"
              }
            ]
          }
        ],
        "code": {
          "coding": [
            {
              "code": "2339-0",
              "system": "http://loinc.org",
              "display": "Glucose [Mass/volume] in Blood"
            }
          ],
          "text": "Glucose [Mass/volume] in Blood"
        },
        "valueQuantity": {
          "system": "http://unitsofmeasure.org",
          "value": 93.9,
          "unit": "mg/dL",
          "code": "mg/dL"
        },
        "referenceRange": [
          {
            "low": {
              "value": 70,
              "code": "mg/dL",
              "system": "http://unitsofmeasure.org"
            }
          },
          {
            "high": {
              "value": 140,
              "code": "mg/dL",
              "system": "http://unitsofmeasure.org"
            }
          }
        ],
        "text": {
          "status": "generated",
          "div": "<div xmlns=\"http://www.w3.org/1999/xhtml\"><table class=\"hl7__eu__lab__report\"><tr><th>Test</th><th>20-Aug-2018</th><th>Reference&#xA0;Range</th><th>Unit</th></tr><tr><td>Glucose [Mass/volume] in Blood</td><td>93.9</td><td>70 - 140</td><td></td><td>mg/dL</td></tr></table></div>"
        },
        "status": "final",
        "subject": {
          "reference": "urn:uuid:cf678ac3-2e93-4335-a844-45fa49d6d7d2",
          "display": "Maria Nohlmans"
        },
        "effectiveDateTime": "2018-08-19T23:27:12Z",
        "specimen": {
          "reference": "urn:uuid:2f26cae2-aacc-4a37-97ad-034c9414365a"
        }
      }
    },
    {
      "fullUrl": "urn:uuid:cb35f86d-de6d-4dc0-abf9-8f6fba5db0e7",
      "resource": {
        "resourceType": "Observation",
        "id": "cb35f86d-de6d-4dc0-abf9-8f6fba5db0e7",
        "meta": {
          "profile": [
            "http://hl7.eu/fhir/laboratory/StructureDefinition/Observation-resultslab-eu-lab"
          ]
        },
        "performer": [
          {
            "display": "The Central European Lab"
          }
        ],
        "category": [
          {
            "coding": [
              {
                "system": "http://terminology.hl7.org/CodeSystem/observation-category",
                "code": "laboratory"
              }
            ]
          }
        ],
        "code": {
          "coding": [
            {
              "code": "6299-2",
              "system": "http://loinc.org",
              "display": "Urea nitrogen [Mass/volume] in Blood"
            }
          ],
          "text": "Urea nitrogen [Mass/volume] in Blood"
        },
        "valueQuantity": {
          "system": "http://unitsofmeasure.org",
          "value": 13.2,
          "unit": "mg/dL",
          "code": "mg/dL"
        },
        "referenceRange": [
          {
            "low": {
              "value": 7,
              "code": "mg/dL",
              "system": "http://unitsofmeasure.org"
            }
          },
          {
            "high": {
              "value": 30,
              "code": "mg/dL",
              "system": "http://unitsofmeasure.org"
            }
          }
        ],
        "text": {
          "status": "generated",
          "div": "<div xmlns=\"http://www.w3.org/1999/xhtml\"><table class=\"hl7__eu__lab__report\"><tr><th>Test</th><th>20-Aug-2018</th><th>Reference&#xA0;Range</th><th>Unit</th></tr><tr><td>Urea nitrogen [Mass/volume] in Blood</td><td>13.2</td><td>7 - 30</td><td></td><td>mg/dL</td></tr></table></div>"
        },
        "status": "final",
        "subject": {
          "reference": "urn:uuid:cf678ac3-2e93-4335-a844-45fa49d6d7d2",
          "display": "Maria Nohlmans"
        },
        "effectiveDateTime": "2018-08-19T23:27:12Z",
        "specimen": {
          "reference": "urn:uuid:2f26cae2-aacc-4a37-97ad-034c9414365a"
        }
      }
    },
    {
      "fullUrl": "urn:uuid:dae3b6b3-c698-408d-a47e-d85c29b4274f",
      "resource": {
        "resourceType": "Observation",
        "id": "dae3b6b3-c698-408d-a47e-d85c29b4274f",
        "meta": {
          "profile": [
            "http://hl7.eu/fhir/laboratory/StructureDefinition/Observation-resultslab-eu-lab"
          ]
        },
        "performer": [
          {
            "display": "The Central European Lab"
          }
        ],
        "category": [
          {
            "coding": [
              {
                "system": "http://terminology.hl7.org/CodeSystem/observation-category",
                "code": "laboratory"
              }
            ]
          }
        ],
        "code": {
          "coding": [
            {
              "code": "38483-4",
              "system": "http://loinc.org",
              "display": "Creatinine [Mass/volume] in Blood"
            }
          ],
          "text": "Creatinine [Mass/volume] in Blood"
        },
        "valueQuantity": {
          "system": "http://unitsofmeasure.org",
          "value": 0.7,
          "unit": "mg/dL",
          "code": "mg/dL"
        },
        "referenceRange": [
          {
            "low": {
              "value": 0.5,
              "code": "mg/dL",
              "system": "http://unitsofmeasure.org"
            }
          },
          {
            "high": {
              "value": 1.3,
              "code": "mg/dL",
              "system": "http://unitsofmeasure.org"
            }
          }
        ],
        "text": {
          "status": "generated",
          "div": "<div xmlns=\"http://www.w3.org/1999/xhtml\"><table class=\"hl7__eu__lab__report\"><tr><th>Test</th><th>20-Aug-2018</th><th>Reference&#xA0;Range</th><th>Unit</th></tr><tr><td>Creatinine [Mass/volume] in Blood</td><td>0.7</td><td>0.5 - 1.3</td><td></td><td>mg/dL</td></tr></table></div>"
        },
        "status": "final",
        "subject": {
          "reference": "urn:uuid:cf678ac3-2e93-4335-a844-45fa49d6d7d2",
          "display": "Maria Nohlmans"
        },
        "effectiveDateTime": "2018-08-19T23:27:12Z",
        "specimen": {
          "reference": "urn:uuid:2f26cae2-aacc-4a37-97ad-034c9414365a"
        }
      }
    },
    {
      "fullUrl": "urn:uuid:e32f184c-7aae-447f-8f64-cf34c212d402",
      "resource": {
        "resourceType": "Observation",
        "id": "e32f184c-7aae-447f-8f64-cf34c212d402",
        "meta": {
          "profile": [
            "http://hl7.eu/fhir/laboratory/StructureDefinition/Observation-resultslab-eu-lab"
          ]
        },
        "performer": [
          {
            "display": "The Central European Lab"
          }
        ],
        "category": [
          {
            "coding": [
              {
                "system": "http://terminology.hl7.org/CodeSystem/observation-category",
                "code": "laboratory"
              }
            ]
          }
        ],
        "code": {
          "coding": [
            {
              "code": "49765-1",
              "system": "http://loinc.org",
              "display": "Calcium [Mass/volume] in Blood"
            }
          ],
          "text": "Calcium [Mass/volume] in Blood"
        },
        "valueQuantity": {
          "system": "http://unitsofmeasure.org",
          "value": 8.7,
          "unit": "mg/dL",
          "code": "mg/dL"
        },
        "referenceRange": [
          {
            "low": {
              "value": 8.6,
              "code": "mg/dL",
              "system": "http://unitsofmeasure.org"
            }
          },
          {
            "high": {
              "value": 10.2,
              "code": "mg/dL",
              "system": "http://unitsofmeasure.org"
            }
          }
        ],
        "text": {
          "status": "generated",
          "div": "<div xmlns=\"http://www.w3.org/1999/xhtml\"><table class=\"hl7__eu__lab__report\"><tr><th>Test</th><th>20-Aug-2018</th><th>Reference&#xA0;Range</th><th>Unit</th></tr><tr><td>Calcium [Mass/volume] in Blood</td><td>8.7</td><td>8.6 - 10.2</td><td></td><td>mg/dL</td></tr></table></div>"
        },
        "status": "final",
        "subject": {
          "reference": "urn:uuid:cf678ac3-2e93-4335-a844-45fa49d6d7d2",
          "display": "Maria Nohlmans"
        },
        "effectiveDateTime": "2018-08-19T23:27:12Z",
        "specimen": {
          "reference": "urn:uuid:2f26cae2-aacc-4a37-97ad-034c9414365a"
        }
      }
    },
    {
      "fullUrl": "urn:uuid:a3ce9274-5ce3-44b6-a9a1-cd972f1d209c",
      "resource": {
        "resourceType": "Observation",
        "id": "a3ce9274-5ce3-44b6-a9a1-cd972f1d209c",
        "meta": {
          "profile": [
            "http://hl7.eu/fhir/laboratory/StructureDefinition/Observation-resultslab-eu-lab"
          ]
        },
        "performer": [
          {
            "display": "The Central European Lab"
          }
        ],
        "category": [
          {
            "coding": [
              {
                "system": "http://terminology.hl7.org/CodeSystem/observation-category",
                "code": "laboratory"
              }
            ]
          }
        ],
        "code": {
          "coding": [
            {
              "code": "2947-0",
              "system": "http://loinc.org",
              "display": "Sodium [Moles/volume] in Blood"
            }
          ],
          "text": "Sodium [Moles/volume] in Blood"
        },
        "valueQuantity": {
          "system": "http://unitsofmeasure.org",
          "value": 137,
          "unit": "mmol/L",
          "code": "mmol/L"
        },
        "referenceRange": [
          {
            "low": {
              "value": 135,
              "code": "mmol/L",
              "system": "http://unitsofmeasure.org"
            }
          },
          {
            "high": {
              "value": 145,
              "code": "mmol/L",
              "system": "http://unitsofmeasure.org"
            }
          }
        ],
        "text": {
          "status": "generated",
          "div": "<div xmlns=\"http://www.w3.org/1999/xhtml\"><table class=\"hl7__eu__lab__report\"><tr><th>Test</th><th>20-Aug-2018</th><th>Reference&#xA0;Range</th><th>Unit</th></tr><tr><td>Sodium [Moles/volume] in Blood</td><td>137.0</td><td>135 - 145</td><td></td><td>mmol/L</td></tr></table></div>"
        },
        "status": "final",
        "subject": {
          "reference": "urn:uuid:cf678ac3-2e93-4335-a844-45fa49d6d7d2",
          "display": "Maria Nohlmans"
        },
        "effectiveDateTime": "2018-08-19T23:27:12Z",
        "specimen": {
          "reference": "urn:uuid:2f26cae2-aacc-4a37-97ad-034c9414365a"
        }
      }
    },
    {
      "fullUrl": "urn:uuid:e423bd3c-de45-4dfb-a847-295dd4f09934",
      "resource": {
        "resourceType": "Observation",
        "id": "e423bd3c-de45-4dfb-a847-295dd4f09934",
        "meta": {
          "profile": [
            "http://hl7.eu/fhir/laboratory/StructureDefinition/Observation-resultslab-eu-lab"
          ]
        },
        "performer": [
          {
            "display": "The Central European Lab"
          }
        ],
        "category": [
          {
            "coding": [
              {
                "system": "http://terminology.hl7.org/CodeSystem/observation-category",
                "code": "laboratory"
              }
            ]
          }
        ],
        "code": {
          "coding": [
            {
              "code": "6298-4",
              "system": "http://loinc.org",
              "display": "Potassium [Moles/volume] in Blood"
            }
          ],
          "text": "Potassium [Moles/volume] in Blood"
        },
        "valueQuantity": {
          "system": "http://unitsofmeasure.org",
          "value": 4.5,
          "unit": "mmol/L",
          "code": "mmol/L"
        },
        "referenceRange": [
          {
            "low": {
              "value": 3.5,
              "code": "mmol/L",
              "system": "http://unitsofmeasure.org"
            }
          },
          {
            "high": {
              "value": 5.1,
              "code": "mmol/L",
              "system": "http://unitsofmeasure.org"
            }
          }
        ],
        "text": {
          "status": "generated",
          "div": "<div xmlns=\"http://www.w3.org/1999/xhtml\"><table class=\"hl7__eu__lab__report\"><tr><th>Test</th><th>20-Aug-2018</th><th>Reference&#xA0;Range</th><th>Unit</th></tr><tr><td>Potassium [Moles/volume] in Blood</td><td>4.5</td><td>3.5 - 5.1</td><td></td><td>mmol/L</td></tr></table></div>"
        },
        "status": "final",
        "subject": {
          "reference": "urn:uuid:cf678ac3-2e93-4335-a844-45fa49d6d7d2",
          "display": "Maria Nohlmans"
        },
        "effectiveDateTime": "2018-08-19T23:27:12Z",
        "specimen": {
          "reference": "urn:uuid:2f26cae2-aacc-4a37-97ad-034c9414365a"
        }
      }
    },
    {
      "fullUrl": "urn:uuid:24695bc2-f62d-455a-ae9b-b3c22864baea",
      "resource": {
        "resourceType": "Observation",
        "id": "24695bc2-f62d-455a-ae9b-b3c22864baea",
        "meta": {
          "profile": [
            "http://hl7.eu/fhir/laboratory/StructureDefinition/Observation-resultslab-eu-lab"
          ]
        },
        "performer": [
          {
            "display": "The Central European Lab"
          }
        ],
        "category": [
          {
            "coding": [
              {
                "system": "http://terminology.hl7.org/CodeSystem/observation-category",
                "code": "laboratory"
              }
            ]
          }
        ],
        "code": {
          "coding": [
            {
              "code": "2069-3",
              "system": "http://loinc.org",
              "display": "Chloride [Moles/volume] in Blood"
            }
          ],
          "text": "Chloride [Moles/volume] in Blood"
        },
        "valueQuantity": {
          "system": "http://unitsofmeasure.org",
          "value": 110,
          "unit": "mmol/L",
          "code": "mmol/L"
        },
        "referenceRange": [
          {
            "low": {
              "value": 98,
              "code": "mmol/L",
              "system": "http://unitsofmeasure.org"
            }
          },
          {
            "high": {
              "value": 114,
              "code": "mmol/L",
              "system": "http://unitsofmeasure.org"
            }
          }
        ],
        "text": {
          "status": "generated",
          "div": "<div xmlns=\"http://www.w3.org/1999/xhtml\"><table class=\"hl7__eu__lab__report\"><tr><th>Test</th><th>20-Aug-2018</th><th>Reference&#xA0;Range</th><th>Unit</th></tr><tr><td>Chloride [Moles/volume] in Blood</td><td>110.0</td><td>98 - 114</td><td></td><td>mmol/L</td></tr></table></div>"
        },
        "status": "final",
        "subject": {
          "reference": "urn:uuid:cf678ac3-2e93-4335-a844-45fa49d6d7d2",
          "display": "Maria Nohlmans"
        },
        "effectiveDateTime": "2018-08-19T23:27:12Z",
        "specimen": {
          "reference": "urn:uuid:2f26cae2-aacc-4a37-97ad-034c9414365a"
        }
      }
    },
    {
      "fullUrl": "urn:uuid:3644a951-619b-40f3-8389-dcf8da464e67",
      "resource": {
        "resourceType": "Observation",
        "id": "3644a951-619b-40f3-8389-dcf8da464e67",
        "meta": {
          "profile": [
            "http://hl7.eu/fhir/laboratory/StructureDefinition/Observation-resultslab-eu-lab"
          ]
        },
        "performer": [
          {
            "display": "The Central European Lab"
          }
        ],
        "category": [
          {
            "coding": [
              {
                "system": "http://terminology.hl7.org/CodeSystem/observation-category",
                "code": "laboratory"
              }
            ]
          }
        ],
        "code": {
          "coding": [
            {
              "code": "20565-8",
              "system": "http://loinc.org",
              "display": "Carbon dioxide, total [Moles/volume] in Blood"
            }
          ],
          "text": "Carbon dioxide, total [Moles/volume] in Blood"
        },
        "valueQuantity": {
          "system": "http://unitsofmeasure.org",
          "value": 27.9,
          "unit": "mmol/L",
          "code": "mmol/L"
        },
        "referenceRange": [
          {
            "low": {
              "value": 22,
              "code": "mmol/L",
              "system": "http://unitsofmeasure.org"
            }
          },
          {
            "high": {
              "value": 32,
              "code": "mmol/L",
              "system": "http://unitsofmeasure.org"
            }
          }
        ],
        "text": {
          "status": "generated",
          "div": "<div xmlns=\"http://www.w3.org/1999/xhtml\"><table class=\"hl7__eu__lab__report\"><tr><th>Test</th><th>20-Aug-2018</th><th>Reference&#xA0;Range</th><th>Unit</th></tr><tr><td>Carbon dioxide, total [Moles/volume] in Blood</td><td>27.9</td><td>22 - 32</td><td></td><td>mmol/L</td></tr></table></div>"
        },
        "status": "final",
        "subject": {
          "reference": "urn:uuid:cf678ac3-2e93-4335-a844-45fa49d6d7d2",
          "display": "Maria Nohlmans"
        },
        "effectiveDateTime": "2018-08-19T23:27:12Z",
        "specimen": {
          "reference": "urn:uuid:2f26cae2-aacc-4a37-97ad-034c9414365a"
        }
      }
    },
    {
      "fullUrl": "urn:uuid:4ded3b78-78b1-4ffa-bc25-443b14cabf1c",
      "resource": {
        "resourceType": "Observation",
        "id": "4ded3b78-78b1-4ffa-bc25-443b14cabf1c",
        "meta": {
          "profile": [
            "http://hl7.eu/fhir/laboratory/StructureDefinition/Observation-resultslab-eu-lab"
          ]
        },
        "performer": [
          {
            "display": "The Central European Lab"
          }
        ],
        "category": [
          {
            "coding": [
              {
                "system": "http://terminology.hl7.org/CodeSystem/observation-category",
                "code": "laboratory"
              }
            ]
          }
        ],
        "code": {
          "coding": [
            {
              "code": "6690-2",
              "system": "http://loinc.org",
              "display": "Leukocytes [#/volume] in Blood by Automated count"
            }
          ],
          "text": "Leukocytes [#/volume] in Blood by Automated count"
        },
        "valueQuantity": {
          "system": "http://unitsofmeasure.org",
          "value": 9.5,
          "unit": "10*3/uL",
          "code": "10*3/uL"
        },
        "referenceRange": [
          {
            "low": {
              "value": 4,
              "code": "10*3/uL",
              "system": "http://unitsofmeasure.org"
            }
          },
          {
            "high": {
              "value": 11,
              "code": "10*3/uL",
              "system": "http://unitsofmeasure.org"
            }
          }
        ],
        "text": {
          "status": "generated",
          "div": "<div xmlns=\"http://www.w3.org/1999/xhtml\"><table class=\"hl7__eu__lab__report\"><tr><th>Test</th><th>20-Aug-2018</th><th>Reference&#xA0;Range</th><th>Unit</th></tr><tr><td>Leukocytes [#/volume] in Blood by Automated count</td><td>9.5</td><td>4 - 11</td><td></td><td>10*3/uL</td></tr></table></div>"
        },
        "status": "final",
        "subject": {
          "reference": "urn:uuid:cf678ac3-2e93-4335-a844-45fa49d6d7d2",
          "display": "Maria Nohlmans"
        },
        "effectiveDateTime": "2018-08-19T23:27:12Z",
        "specimen": {
          "reference": "urn:uuid:2f26cae2-aacc-4a37-97ad-034c9414365a"
        }
      }
    },
    {
      "fullUrl": "urn:uuid:0f155472-3af2-4e21-bc4a-75f33330cada",
      "resource": {
        "resourceType": "Observation",
        "id": "0f155472-3af2-4e21-bc4a-75f33330cada",
        "meta": {
          "profile": [
            "http://hl7.eu/fhir/laboratory/StructureDefinition/Observation-resultslab-eu-lab"
          ]
        },
        "performer": [
          {
            "display": "The Central European Lab"
          }
        ],
        "category": [
          {
            "coding": [
              {
                "system": "http://terminology.hl7.org/CodeSystem/observation-category",
                "code": "laboratory"
              }
            ]
          }
        ],
        "code": {
          "coding": [
            {
              "code": "789-8",
              "system": "http://loinc.org",
              "display": "Erythrocytes [#/volume] in Blood by Automated count"
            }
          ],
          "text": "Erythrocytes [#/volume] in Blood by Automated count"
        },
        "valueQuantity": {
          "system": "http://unitsofmeasure.org",
          "value": 4.6,
          "unit": "10*6/uL",
          "code": "10*6/uL"
        },
        "referenceRange": [
          {
            "low": {
              "value": 3.9,
              "code": "10*6/uL",
              "system": "http://unitsofmeasure.org"
            }
          },
          {
            "high": {
              "value": 5.2,
              "code": "10*6/uL",
              "system": "http://unitsofmeasure.org"
            }
          }
        ],
        "text": {
          "status": "generated",
          "div": "<div xmlns=\"http://www.w3.org/1999/xhtml\"><table class=\"hl7__eu__lab__report\"><tr><th>Test</th><th>20-Aug-2018</th><th>Reference&#xA0;Range</th><th>Unit</th></tr><tr><td>Erythrocytes [#/volume] in Blood by Automated count</td><td>4.6</td><td>3.9 - 5.2</td><td></td><td>10*6/uL</td></tr></table></div>"
        },
        "status": "final",
        "subject": {
          "reference": "urn:uuid:cf678ac3-2e93-4335-a844-45fa49d6d7d2",
          "display": "Maria Nohlmans"
        },
        "effectiveDateTime": "2018-08-19T23:27:12Z",
        "specimen": {
          "reference": "urn:uuid:2f26cae2-aacc-4a37-97ad-034c9414365a"
        }
      }
    },
    {
      "fullUrl": "urn:uuid:6e6bc159-7ee2-472e-8218-1c3c52d797a6",
      "resource": {
        "resourceType": "Observation",
        "id": "6e6bc159-7ee2-472e-8218-1c3c52d797a6",
        "meta": {
          "profile": [
            "http://hl7.eu/fhir/laboratory/StructureDefinition/Observation-resultslab-eu-lab"
          ]
        },
        "performer": [
          {
            "display": "The Central European Lab"
          }
        ],
        "category": [
          {
            "coding": [
              {
                "system": "http://terminology.hl7.org/CodeSystem/observation-category",
                "code": "laboratory"
              }
            ]
          }
        ],
        "code": {
          "coding": [
            {
              "code": "718-7",
              "system": "http://loinc.org",
              "display": "Hemoglobin [Mass/volume] in Blood"
            }
          ],
          "text": "Hemoglobin [Mass/volume] in Blood"
        },
        "valueQuantity": {
          "system": "http://unitsofmeasure.org",
          "value": 13.7,
          "unit": "g/dL",
          "code": "g/dL"
        },
        "referenceRange": [
          {
            "low": {
              "value": 12,
              "code": "g/dL",
              "system": "http://unitsofmeasure.org"
            }
          },
          {
            "high": {
              "value": 15.5,
              "code": "g/dL",
              "system": "http://unitsofmeasure.org"
            }
          }
        ],
        "text": {
          "status": "generated",
          "div": "<div xmlns=\"http://www.w3.org/1999/xhtml\"><table class=\"hl7__eu__lab__report\"><tr><th>Test</th><th>20-Aug-2018</th><th>Reference&#xA0;Range</th><th>Unit</th></tr><tr><td>Hemoglobin [Mass/volume] in Blood</td><td>13.7</td><td>12 - 15.5</td><td></td><td>g/dL</td></tr></table></div>"
        },
        "status": "final",
        "subject": {
          "reference": "urn:uuid:cf678ac3-2e93-4335-a844-45fa49d6d7d2",
          "display": "Maria Nohlmans"
        },
        "effectiveDateTime": "2018-08-19T23:27:12Z",
        "specimen": {
          "reference": "urn:uuid:2f26cae2-aacc-4a37-97ad-034c9414365a"
        }
      }
    },
    {
      "fullUrl": "urn:uuid:f52abb91-63b5-422d-b9c2-6f5fec6cfe37",
      "resource": {
        "resourceType": "Observation",
        "id": "f52abb91-63b5-422d-b9c2-6f5fec6cfe37",
        "meta": {
          "profile": [
            "http://hl7.eu/fhir/laboratory/StructureDefinition/Observation-resultslab-eu-lab"
          ]
        },
        "performer": [
          {
            "display": "The Central European Lab"
          }
        ],
        "category": [
          {
            "coding": [
              {
                "system": "http://terminology.hl7.org/CodeSystem/observation-category",
                "code": "laboratory"
              }
            ]
          }
        ],
        "code": {
          "coding": [
            {
              "code": "4544-3",
              "system": "http://loinc.org",
              "display": "Hematocrit [Volume Fraction] of Blood by Automated count"
            }
          ],
          "text": "Hematocrit [Volume Fraction] of Blood by Automated count"
        },
        "valueQuantity": {
          "system": "http://unitsofmeasure.org",
          "value": 45.5,
          "unit": "%",
          "code": "%"
        },
        "referenceRange": [
          {
            "low": {
              "value": 38,
              "code": "%",
              "system": "http://unitsofmeasure.org"
            }
          },
          {
            "high": {
              "value": 54,
              "code": "%",
              "system": "http://unitsofmeasure.org"
            }
          }
        ],
        "text": {
          "status": "generated",
          "div": "<div xmlns=\"http://www.w3.org/1999/xhtml\"><table class=\"hl7__eu__lab__report\"><tr><th>Test</th><th>20-Aug-2018</th><th>Reference&#xA0;Range</th><th>Unit</th></tr><tr><td>Hematocrit [Volume Fraction] of Blood by Automated count</td><td>45.5</td><td>38 - 54</td><td></td><td>%</td></tr></table></div>"
        },
        "status": "final",
        "subject": {
          "reference": "urn:uuid:cf678ac3-2e93-4335-a844-45fa49d6d7d2",
          "display": "Maria Nohlmans"
        },
        "effectiveDateTime": "2018-08-19T23:27:12Z",
        "specimen": {
          "reference": "urn:uuid:2f26cae2-aacc-4a37-97ad-034c9414365a"
        }
      }
    },
    {
      "fullUrl": "urn:uuid:3ef82326-82f7-4d0f-ae97-c3ec8df60ee6",
      "resource": {
        "resourceType": "Observation",
        "id": "3ef82326-82f7-4d0f-ae97-c3ec8df60ee6",
        "meta": {
          "profile": [
            "http://hl7.eu/fhir/laboratory/StructureDefinition/Observation-resultslab-eu-lab"
          ]
        },
        "performer": [
          {
            "display": "The Central European Lab"
          }
        ],
        "category": [
          {
            "coding": [
              {
                "system": "http://terminology.hl7.org/CodeSystem/observation-category",
                "code": "laboratory"
              }
            ]
          }
        ],
        "code": {
          "coding": [
            {
              "code": "787-2",
              "system": "http://loinc.org",
              "display": "MCV [Entitic volume] by Automated count"
            }
          ],
          "text": "MCV [Entitic volume] by Automated count"
        },
        "valueQuantity": {
          "system": "http://unitsofmeasure.org",
          "value": 92.5,
          "unit": "fL",
          "code": "fL"
        },
        "referenceRange": [
          {
            "low": {
              "value": 78,
              "code": "fL",
              "system": "http://unitsofmeasure.org"
            }
          },
          {
            "high": {
              "value": 98,
              "code": "fL",
              "system": "http://unitsofmeasure.org"
            }
          }
        ],
        "text": {
          "status": "generated",
          "div": "<div xmlns=\"http://www.w3.org/1999/xhtml\"><table class=\"hl7__eu__lab__report\"><tr><th>Test</th><th>20-Aug-2018</th><th>Reference&#xA0;Range</th><th>Unit</th></tr><tr><td>MCV [Entitic volume] by Automated count</td><td>92.5</td><td>78 - 98</td><td></td><td>fL</td></tr></table></div>"
        },
        "status": "final",
        "subject": {
          "reference": "urn:uuid:cf678ac3-2e93-4335-a844-45fa49d6d7d2",
          "display": "Maria Nohlmans"
        },
        "effectiveDateTime": "2018-08-19T23:27:12Z",
        "specimen": {
          "reference": "urn:uuid:2f26cae2-aacc-4a37-97ad-034c9414365a"
        }
      }
    },
    {
      "fullUrl": "urn:uuid:c06bfca4-a637-4cd2-a4b5-b21d7a9a661e",
      "resource": {
        "resourceType": "Observation",
        "id": "c06bfca4-a637-4cd2-a4b5-b21d7a9a661e",
        "meta": {
          "profile": [
            "http://hl7.eu/fhir/laboratory/StructureDefinition/Observation-resultslab-eu-lab"
          ]
        },
        "performer": [
          {
            "display": "The Central European Lab"
          }
        ],
        "category": [
          {
            "coding": [
              {
                "system": "http://terminology.hl7.org/CodeSystem/observation-category",
                "code": "laboratory"
              }
            ]
          }
        ],
        "code": {
          "coding": [
            {
              "code": "785-6",
              "system": "http://loinc.org",
              "display": "MCH [Entitic mass] by Automated count"
            }
          ],
          "text": "MCH [Entitic mass] by Automated count"
        },
        "valueQuantity": {
          "system": "http://unitsofmeasure.org",
          "value": 28.6,
          "unit": "pg",
          "code": "pg"
        },
        "referenceRange": [
          {
            "low": {
              "value": 27,
              "code": "pg",
              "system": "http://unitsofmeasure.org"
            }
          },
          {
            "high": {
              "value": 33,
              "code": "pg",
              "system": "http://unitsofmeasure.org"
            }
          }
        ],
        "text": {
          "status": "generated",
          "div": "<div xmlns=\"http://www.w3.org/1999/xhtml\"><table class=\"hl7__eu__lab__report\"><tr><th>Test</th><th>20-Aug-2018</th><th>Reference&#xA0;Range</th><th>Unit</th></tr><tr><td>MCH [Entitic mass] by Automated count</td><td>28.6</td><td>27 - 33</td><td></td><td>pg</td></tr></table></div>"
        },
        "status": "final",
        "subject": {
          "reference": "urn:uuid:cf678ac3-2e93-4335-a844-45fa49d6d7d2",
          "display": "Maria Nohlmans"
        },
        "effectiveDateTime": "2018-08-19T23:27:12Z",
        "specimen": {
          "reference": "urn:uuid:2f26cae2-aacc-4a37-97ad-034c9414365a"
        }
      }
    },
    {
      "fullUrl": "urn:uuid:6b55077f-fdfb-4cdd-87e0-09065a98c1b4",
      "resource": {
        "resourceType": "Observation",
        "id": "6b55077f-fdfb-4cdd-87e0-09065a98c1b4",
        "meta": {
          "profile": [
            "http://hl7.eu/fhir/laboratory/StructureDefinition/Observation-resultslab-eu-lab"
          ]
        },
        "performer": [
          {
            "display": "The Central European Lab"
          }
        ],
        "category": [
          {
            "coding": [
              {
                "system": "http://terminology.hl7.org/CodeSystem/observation-category",
                "code": "laboratory"
              }
            ]
          }
        ],
        "code": {
          "coding": [
            {
              "code": "786-4",
              "system": "http://loinc.org",
              "display": "MCHC [Mass/volume] by Automated count"
            }
          ],
          "text": "MCHC [Mass/volume] by Automated count"
        },
        "valueQuantity": {
          "system": "http://unitsofmeasure.org",
          "value": 34.1,
          "unit": "g/dL",
          "code": "g/dL"
        },
        "referenceRange": [
          {
            "low": {
              "value": 31,
              "code": "g/dL",
              "system": "http://unitsofmeasure.org"
            }
          },
          {
            "high": {
              "value": 35,
              "code": "g/dL",
              "system": "http://unitsofmeasure.org"
            }
          }
        ],
        "text": {
          "status": "generated",
          "div": "<div xmlns=\"http://www.w3.org/1999/xhtml\"><table class=\"hl7__eu__lab__report\"><tr><th>Test</th><th>20-Aug-2018</th><th>Reference&#xA0;Range</th><th>Unit</th></tr><tr><td>MCHC [Mass/volume] by Automated count</td><td>34.1</td><td>31 - 35</td><td></td><td>g/dL</td></tr></table></div>"
        },
        "status": "final",
        "subject": {
          "reference": "urn:uuid:cf678ac3-2e93-4335-a844-45fa49d6d7d2",
          "display": "Maria Nohlmans"
        },
        "effectiveDateTime": "2018-08-19T23:27:12Z",
        "specimen": {
          "reference": "urn:uuid:2f26cae2-aacc-4a37-97ad-034c9414365a"
        }
      }
    },
    {
      "fullUrl": "urn:uuid:49230bde-8e8d-4282-b78a-5ffbcbbe8011",
      "resource": {
        "resourceType": "Observation",
        "id": "49230bde-8e8d-4282-b78a-5ffbcbbe8011",
        "meta": {
          "profile": [
            "http://hl7.eu/fhir/laboratory/StructureDefinition/Observation-resultslab-eu-lab"
          ]
        },
        "performer": [
          {
            "display": "The Central European Lab"
          }
        ],
        "category": [
          {
            "coding": [
              {
                "system": "http://terminology.hl7.org/CodeSystem/observation-category",
                "code": "laboratory"
              }
            ]
          }
        ],
        "code": {
          "coding": [
            {
              "code": "21000-5",
              "system": "http://loinc.org",
              "display": "Erythrocyte distribution width [Entitic volume] by Automated count"
            }
          ],
          "text": "Erythrocyte distribution width [Entitic volume] by Automated count"
        },
        "valueQuantity": {
          "system": "http://unitsofmeasure.org",
          "value": 45.5,
          "unit": "fL",
          "code": "fL"
        },
        "referenceRange": [
          {
            "low": {
              "value": 36,
              "code": "fL",
              "system": "http://unitsofmeasure.org"
            }
          },
          {
            "high": {
              "value": 56,
              "code": "fL",
              "system": "http://unitsofmeasure.org"
            }
          }
        ],
        "text": {
          "status": "generated",
          "div": "<div xmlns=\"http://www.w3.org/1999/xhtml\"><table class=\"hl7__eu__lab__report\"><tr><th>Test</th><th>20-Aug-2018</th><th>Reference&#xA0;Range</th><th>Unit</th></tr><tr><td>Erythrocyte distribution width [Entitic volume] by Automated count</td><td>45.5</td><td>36 - 56</td><td></td><td>fL</td></tr></table></div>"
        },
        "status": "final",
        "subject": {
          "reference": "urn:uuid:cf678ac3-2e93-4335-a844-45fa49d6d7d2",
          "display": "Maria Nohlmans"
        },
        "effectiveDateTime": "2018-08-19T23:27:12Z",
        "specimen": {
          "reference": "urn:uuid:2f26cae2-aacc-4a37-97ad-034c9414365a"
        }
      }
    },
    {
      "fullUrl": "urn:uuid:385b6d09-757a-4b9b-8519-19e64ce98a30",
      "resource": {
        "resourceType": "Observation",
        "id": "385b6d09-757a-4b9b-8519-19e64ce98a30",
        "meta": {
          "profile": [
            "http://hl7.eu/fhir/laboratory/StructureDefinition/Observation-resultslab-eu-lab"
          ]
        },
        "performer": [
          {
            "display": "The Central European Lab"
          }
        ],
        "category": [
          {
            "coding": [
              {
                "system": "http://terminology.hl7.org/CodeSystem/observation-category",
                "code": "laboratory"
              }
            ]
          }
        ],
        "code": {
          "coding": [
            {
              "code": "777-3",
              "system": "http://loinc.org",
              "display": "Platelets [#/volume] in Blood by Automated count"
            }
          ],
          "text": "Platelets [#/volume] in Blood by Automated count"
        },
        "valueQuantity": {
          "system": "http://unitsofmeasure.org",
          "value": 191.7,
          "unit": "10*3/uL",
          "code": "10*3/uL"
        },
        "referenceRange": [
          {
            "low": {
              "value": 150,
              "code": "10*3/uL",
              "system": "http://unitsofmeasure.org"
            }
          },
          {
            "high": {
              "value": 450,
              "code": "10*3/uL",
              "system": "http://unitsofmeasure.org"
            }
          }
        ],
        "text": {
          "status": "generated",
          "div": "<div xmlns=\"http://www.w3.org/1999/xhtml\"><table class=\"hl7__eu__lab__report\"><tr><th>Test</th><th>20-Aug-2018</th><th>Reference&#xA0;Range</th><th>Unit</th></tr><tr><td>Platelets [#/volume] in Blood by Automated count</td><td>191.7</td><td>150 - 450</td><td></td><td>10*3/uL</td></tr></table></div>"
        },
        "status": "final",
        "subject": {
          "reference": "urn:uuid:cf678ac3-2e93-4335-a844-45fa49d6d7d2",
          "display": "Maria Nohlmans"
        },
        "effectiveDateTime": "2018-08-19T23:27:12Z",
        "specimen": {
          "reference": "urn:uuid:2f26cae2-aacc-4a37-97ad-034c9414365a"
        }
      }
    },
    {
      "fullUrl": "urn:uuid:e9442319-729d-42cb-bd84-fe6a42357549",
      "resource": {
        "resourceType": "Observation",
        "id": "e9442319-729d-42cb-bd84-fe6a42357549",
        "meta": {
          "profile": [
            "http://hl7.eu/fhir/laboratory/StructureDefinition/Observation-resultslab-eu-lab"
          ]
        },
        "performer": [
          {
            "display": "The Central European Lab"
          }
        ],
        "category": [
          {
            "coding": [
              {
                "system": "http://terminology.hl7.org/CodeSystem/observation-category",
                "code": "laboratory"
              }
            ]
          }
        ],
        "code": {
          "coding": [
            {
              "code": "32207-3",
              "system": "http://loinc.org",
              "display": "Platelet distribution width [Entitic volume] in Blood by Automated count"
            }
          ],
          "text": "Platelet distribution width [Entitic volume] in Blood by Automated count"
        },
        "valueQuantity": {
          "system": "http://unitsofmeasure.org",
          "value": 451.1,
          "unit": "fL",
          "code": "fL"
        },
        "referenceRange": [
          {
            "low": {
              "value": 15.5,
              "code": "fL",
              "system": "http://unitsofmeasure.org"
            }
          },
          {
            "high": {
              "value": 450,
              "code": "fL",
              "system": "http://unitsofmeasure.org"
            }
          }
        ],
        "interpretation": [
          {
            "coding": [
              {
                "code": "H",
                "system": "http://terminology.hl7.org/CodeSystem/v3-ObservationInterpretation",
                "display": "High"
              }
            ]
          }
        ],
        "text": {
          "status": "generated",
          "div": "<div xmlns=\"http://www.w3.org/1999/xhtml\"><table class=\"hl7__eu__lab__report\"><tr><th>Test</th><th>20-Aug-2018</th><th>Reference&#xA0;Range</th><th>Unit</th></tr><tr><td>Platelet distribution width [Entitic volume] in Blood by Automated count</td><td>451.1</td><td>15.5 - 450</td><td>H</td><td>fL</td></tr></table></div>"
        },
        "status": "final",
        "subject": {
          "reference": "urn:uuid:cf678ac3-2e93-4335-a844-45fa49d6d7d2",
          "display": "Maria Nohlmans"
        },
        "effectiveDateTime": "2018-08-19T23:27:12Z",
        "specimen": {
          "reference": "urn:uuid:2f26cae2-aacc-4a37-97ad-034c9414365a"
        }
      }
    },
    {
      "fullUrl": "urn:uuid:6fe3917c-6625-41e4-99d0-801922c92b56",
      "resource": {
        "resourceType": "Observation",
        "id": "6fe3917c-6625-41e4-99d0-801922c92b56",
        "meta": {
          "profile": [
            "http://hl7.eu/fhir/laboratory/StructureDefinition/Observation-resultslab-eu-lab"
          ]
        },
        "performer": [
          {
            "display": "The Central European Lab"
          }
        ],
        "category": [
          {
            "coding": [
              {
                "system": "http://terminology.hl7.org/CodeSystem/observation-category",
                "code": "laboratory"
              }
            ]
          }
        ],
        "code": {
          "coding": [
            {
              "code": "32623-1",
              "system": "http://loinc.org",
              "display": "Platelet mean volume [Entitic volume] in Blood by Automated count"
            }
          ],
          "text": "Platelet mean volume [Entitic volume] in Blood by Automated count"
        },
        "valueQuantity": {
          "system": "http://unitsofmeasure.org",
          "value": 10.2,
          "unit": "fL",
          "code": "fL"
        },
        "referenceRange": [
          {
            "low": {
              "value": 7.2,
              "code": "fL",
              "system": "http://unitsofmeasure.org"
            }
          },
          {
            "high": {
              "value": 13.5,
              "code": "fL",
              "system": "http://unitsofmeasure.org"
            }
          }
        ],
        "text": {
          "status": "generated",
          "div": "<div xmlns=\"http://www.w3.org/1999/xhtml\"><table class=\"hl7__eu__lab__report\"><tr><th>Test</th><th>20-Aug-2018</th><th>Reference&#xA0;Range</th><th>Unit</th></tr><tr><td>Platelet mean volume [Entitic volume] in Blood by Automated count</td><td>10.2</td><td>7.2 - 13.5</td><td></td><td>fL</td></tr></table></div>"
        },
        "status": "final",
        "subject": {
          "reference": "urn:uuid:cf678ac3-2e93-4335-a844-45fa49d6d7d2",
          "display": "Maria Nohlmans"
        },
        "effectiveDateTime": "2018-08-19T23:27:12Z",
        "specimen": {
          "reference": "urn:uuid:2f26cae2-aacc-4a37-97ad-034c9414365a"
        }
      }
    },
    {
      "fullUrl": "urn:uuid:9c150081-9ba6-4788-bcba-707f136e4dd1",
      "resource": {
        "resourceType": "Observation",
        "id": "9c150081-9ba6-4788-bcba-707f136e4dd1",
        "meta": {
          "profile": [
            "http://hl7.eu/fhir/laboratory/StructureDefinition/Observation-resultslab-eu-lab"
          ]
        },
        "performer": [
          {
            "display": "The Central European Lab"
          }
        ],
        "category": [
          {
            "coding": [
              {
                "system": "http://terminology.hl7.org/CodeSystem/observation-category",
                "code": "laboratory"
              }
            ]
          }
        ],
        "code": {
          "coding": [
            {
              "code": "25428-4",
              "system": "http://loinc.org",
              "display": "Glucose [Presence] in Urine by Test strip"
            }
          ],
          "text": "Glucose [Presence] in Urine by Test strip"
        },
        "valueQuantity": {
          "system": "http://unitsofmeasure.org",
          "value": 0,
          "unit": "{presence}",
          "code": "{presence}"
        },
        "referenceRange": [
          {
            "low": {
              "value": 0,
              "code": "Presence",
              "system": "http://unitsofmeasure.org"
            }
          },
          {
            "high": {
              "value": 0,
              "code": "Presence",
              "system": "http://unitsofmeasure.org"
            }
          }
        ],
        "text": {
          "status": "generated",
          "div": "<div xmlns=\"http://www.w3.org/1999/xhtml\"><table class=\"hl7__eu__lab__report\"><tr><th>Test</th><th>20-Aug-2018</th><th>Reference&#xA0;Range</th><th>Unit</th></tr><tr><td>Glucose [Presence] in Urine by Test strip</td><td>0.0</td><td>0 - 0</td><td></td><td>{presence}</td></tr></table></div>"
        },
        "status": "final",
        "subject": {
          "reference": "urn:uuid:cf678ac3-2e93-4335-a844-45fa49d6d7d2",
          "display": "Maria Nohlmans"
        },
        "effectiveDateTime": "2018-08-19T23:27:12Z",
        "specimen": {
          "reference": "urn:uuid:f22ac872-cb01-453c-8e42-3e4642bf9414"
        }
      }
    },
    {
      "fullUrl": "urn:uuid:88e316e2-aa0a-4729-ab1f-b38234773ea6",
      "resource": {
        "resourceType": "Observation",
        "id": "88e316e2-aa0a-4729-ab1f-b38234773ea6",
        "meta": {
          "profile": [
            "http://hl7.eu/fhir/laboratory/StructureDefinition/Observation-resultslab-eu-lab"
          ]
        },
        "performer": [
          {
            "display": "The Central European Lab"
          }
        ],
        "category": [
          {
            "coding": [
              {
                "system": "http://terminology.hl7.org/CodeSystem/observation-category",
                "code": "laboratory"
              }
            ]
          }
        ],
        "code": {
          "coding": [
            {
              "code": "5770-3",
              "system": "http://loinc.org",
              "display": "Bilirubin.total [Presence] in Urine by Test strip"
            }
          ],
          "text": "Bilirubin.total [Presence] in Urine by Test strip"
        },
        "valueQuantity": {
          "system": "http://unitsofmeasure.org",
          "value": 0,
          "unit": "{presence}",
          "code": "{presence}"
        },
        "referenceRange": [
          {
            "low": {
              "value": 0,
              "code": "mg/dL",
              "system": "http://unitsofmeasure.org"
            }
          },
          {
            "high": {
              "value": 0,
              "code": "mg/dL",
              "system": "http://unitsofmeasure.org"
            }
          }
        ],
        "text": {
          "status": "generated",
          "div": "<div xmlns=\"http://www.w3.org/1999/xhtml\"><table class=\"hl7__eu__lab__report\"><tr><th>Test</th><th>20-Aug-2018</th><th>Reference&#xA0;Range</th><th>Unit</th></tr><tr><td>Bilirubin.total [Presence] in Urine by Test strip</td><td>0.0</td><td>0 - 0</td><td></td><td>{presence}</td></tr></table></div>"
        },
        "status": "final",
        "subject": {
          "reference": "urn:uuid:cf678ac3-2e93-4335-a844-45fa49d6d7d2",
          "display": "Maria Nohlmans"
        },
        "effectiveDateTime": "2018-08-19T23:27:12Z",
        "specimen": {
          "reference": "urn:uuid:f22ac872-cb01-453c-8e42-3e4642bf9414"
        }
      }
    },
    {
      "fullUrl": "urn:uuid:4c771d85-e818-4a5d-876a-ab70a4cb6ece",
      "resource": {
        "resourceType": "Observation",
        "id": "4c771d85-e818-4a5d-876a-ab70a4cb6ece",
        "meta": {
          "profile": [
            "http://hl7.eu/fhir/laboratory/StructureDefinition/Observation-resultslab-eu-lab"
          ]
        },
        "performer": [
          {
            "display": "The Central European Lab"
          }
        ],
        "category": [
          {
            "coding": [
              {
                "system": "http://terminology.hl7.org/CodeSystem/observation-category",
                "code": "laboratory"
              }
            ]
          }
        ],
        "code": {
          "coding": [
            {
              "code": "2514-8",
              "system": "http://loinc.org",
              "display": "Ketones [Presence] in Urine by Test strip"
            }
          ],
          "text": "Ketones [Presence] in Urine by Test strip"
        },
        "valueQuantity": {
          "system": "http://unitsofmeasure.org",
          "value": 0,
          "unit": "{presence}",
          "code": "{presence}"
        },
        "referenceRange": [
          {
            "low": {
              "value": 0,
              "code": "Presence",
              "system": "http://unitsofmeasure.org"
            }
          },
          {
            "high": {
              "value": 0,
              "code": "Presence",
              "system": "http://unitsofmeasure.org"
            }
          }
        ],
        "text": {
          "status": "generated",
          "div": "<div xmlns=\"http://www.w3.org/1999/xhtml\"><table class=\"hl7__eu__lab__report\"><tr><th>Test</th><th>20-Aug-2018</th><th>Reference&#xA0;Range</th><th>Unit</th></tr><tr><td>Ketones [Presence] in Urine by Test strip</td><td>0.0</td><td>0 - 0</td><td></td><td>{presence}</td></tr></table></div>"
        },
        "status": "final",
        "subject": {
          "reference": "urn:uuid:cf678ac3-2e93-4335-a844-45fa49d6d7d2",
          "display": "Maria Nohlmans"
        },
        "effectiveDateTime": "2018-08-19T23:27:12Z",
        "specimen": {
          "reference": "urn:uuid:f22ac872-cb01-453c-8e42-3e4642bf9414"
        }
      }
    },
    {
      "fullUrl": "urn:uuid:de0971d4-a353-47bc-a458-b016920ec493",
      "resource": {
        "resourceType": "Observation",
        "id": "de0971d4-a353-47bc-a458-b016920ec493",
        "meta": {
          "profile": [
            "http://hl7.eu/fhir/laboratory/StructureDefinition/Observation-resultslab-eu-lab"
          ]
        },
        "performer": [
          {
            "display": "The Central European Lab"
          }
        ],
        "category": [
          {
            "coding": [
              {
                "system": "http://terminology.hl7.org/CodeSystem/observation-category",
                "code": "laboratory"
              }
            ]
          }
        ],
        "code": {
          "coding": [
            {
              "code": "5811-5",
              "system": "http://loinc.org",
              "display": "Specific gravity of Urine by Test strip"
            }
          ],
          "text": "Specific gravity of Urine by Test strip"
        },
        "valueQuantity": {
          "system": "http://unitsofmeasure.org",
          "value": 1,
          "unit": "{SG}",
          "code": "{SG}"
        },
        "referenceRange": [
          {
            "low": {
              "value": 1.005,
              "code": "SG",
              "system": "http://unitsofmeasure.org"
            }
          },
          {
            "high": {
              "value": 1.03,
              "code": "SG",
              "system": "http://unitsofmeasure.org"
            }
          }
        ],
        "interpretation": [
          {
            "coding": [
              {
                "code": "L",
                "system": "http://terminology.hl7.org/CodeSystem/v3-ObservationInterpretation",
                "display": "Low"
              }
            ]
          }
        ],
        "text": {
          "status": "generated",
          "div": "<div xmlns=\"http://www.w3.org/1999/xhtml\"><table class=\"hl7__eu__lab__report\"><tr><th>Test</th><th>20-Aug-2018</th><th>Reference&#xA0;Range</th><th>Unit</th></tr><tr><td>Specific gravity of Urine by Test strip</td><td>1.0</td><td>1.005 - 1.03</td><td>L</td><td>{SG}</td></tr></table></div>"
        },
        "status": "final",
        "subject": {
          "reference": "urn:uuid:cf678ac3-2e93-4335-a844-45fa49d6d7d2",
          "display": "Maria Nohlmans"
        },
        "effectiveDateTime": "2018-08-19T23:27:12Z",
        "specimen": {
          "reference": "urn:uuid:f22ac872-cb01-453c-8e42-3e4642bf9414"
        }
      }
    },
    {
      "fullUrl": "urn:uuid:67beb305-8c8f-45a1-a871-d76e3281945b",
      "resource": {
        "resourceType": "Observation",
        "id": "67beb305-8c8f-45a1-a871-d76e3281945b",
        "meta": {
          "profile": [
            "http://hl7.eu/fhir/laboratory/StructureDefinition/Observation-resultslab-eu-lab"
          ]
        },
        "performer": [
          {
            "display": "The Central European Lab"
          }
        ],
        "category": [
          {
            "coding": [
              {
                "system": "http://terminology.hl7.org/CodeSystem/observation-category",
                "code": "laboratory"
              }
            ]
          }
        ],
        "code": {
          "coding": [
            {
              "code": "5803-2",
              "system": "http://loinc.org",
              "display": "pH of Urine by Test strip"
            }
          ],
          "text": "pH of Urine by Test strip"
        },
        "valueQuantity": {
          "system": "http://unitsofmeasure.org",
          "value": 4.6,
          "unit": "[pH]",
          "code": "[pH]"
        },
        "referenceRange": [
          {
            "low": {
              "value": 4.5,
              "code": "pH",
              "system": "http://unitsofmeasure.org"
            }
          },
          {
            "high": {
              "value": 7.5,
              "code": "pH",
              "system": "http://unitsofmeasure.org"
            }
          }
        ],
        "text": {
          "status": "generated",
          "div": "<div xmlns=\"http://www.w3.org/1999/xhtml\"><table class=\"hl7__eu__lab__report\"><tr><th>Test</th><th>20-Aug-2018</th><th>Reference&#xA0;Range</th><th>Unit</th></tr><tr><td>pH of Urine by Test strip</td><td>4.6</td><td>4.5 - 7.5</td><td></td><td>[pH]</td></tr></table></div>"
        },
        "status": "final",
        "subject": {
          "reference": "urn:uuid:cf678ac3-2e93-4335-a844-45fa49d6d7d2",
          "display": "Maria Nohlmans"
        },
        "effectiveDateTime": "2018-08-19T23:27:12Z",
        "specimen": {
          "reference": "urn:uuid:f22ac872-cb01-453c-8e42-3e4642bf9414"
        }
      }
    },
    {
      "fullUrl": "urn:uuid:9821940b-a641-41a9-a9c8-0a4631724f19",
      "resource": {
        "resourceType": "Observation",
        "id": "9821940b-a641-41a9-a9c8-0a4631724f19",
        "meta": {
          "profile": [
            "http://hl7.eu/fhir/laboratory/StructureDefinition/Observation-resultslab-eu-lab"
          ]
        },
        "performer": [
          {
            "display": "The Central European Lab"
          }
        ],
        "category": [
          {
            "coding": [
              {
                "system": "http://terminology.hl7.org/CodeSystem/observation-category",
                "code": "laboratory"
              }
            ]
          }
        ],
        "code": {
          "coding": [
            {
              "code": "20454-5",
              "system": "http://loinc.org",
              "display": "Protein [Presence] in Urine by Test strip"
            }
          ],
          "text": "Protein [Presence] in Urine by Test strip"
        },
        "valueQuantity": {
          "system": "http://unitsofmeasure.org",
          "value": 0,
          "unit": "{presence}",
          "code": "{presence}"
        },
        "referenceRange": [
          {
            "low": {
              "value": 0,
              "code": "Presence",
              "system": "http://unitsofmeasure.org"
            }
          },
          {
            "high": {
              "value": 0,
              "code": "Presence",
              "system": "http://unitsofmeasure.org"
            }
          }
        ],
        "text": {
          "status": "generated",
          "div": "<div xmlns=\"http://www.w3.org/1999/xhtml\"><table class=\"hl7__eu__lab__report\"><tr><th>Test</th><th>20-Aug-2018</th><th>Reference&#xA0;Range</th><th>Unit</th></tr><tr><td>Protein [Presence] in Urine by Test strip</td><td>0.0</td><td>0 - 0</td><td></td><td>{presence}</td></tr></table></div>"
        },
        "status": "final",
        "subject": {
          "reference": "urn:uuid:cf678ac3-2e93-4335-a844-45fa49d6d7d2",
          "display": "Maria Nohlmans"
        },
        "effectiveDateTime": "2018-08-19T23:27:12Z",
        "specimen": {
          "reference": "urn:uuid:f22ac872-cb01-453c-8e42-3e4642bf9414"
        }
      }
    },
    {
      "fullUrl": "urn:uuid:a1f20b56-b5e9-4d9f-9170-e7b6157a800c",
      "resource": {
        "resourceType": "Observation",
        "id": "a1f20b56-b5e9-4d9f-9170-e7b6157a800c",
        "meta": {
          "profile": [
            "http://hl7.eu/fhir/laboratory/StructureDefinition/Observation-resultslab-eu-lab"
          ]
        },
        "performer": [
          {
            "display": "The Central European Lab"
          }
        ],
        "category": [
          {
            "coding": [
              {
                "system": "http://terminology.hl7.org/CodeSystem/observation-category",
                "code": "laboratory"
              }
            ]
          }
        ],
        "code": {
          "coding": [
            {
              "code": "5802-4",
              "system": "http://loinc.org",
              "display": "Nitrite [Presence] in Urine by Test strip"
            }
          ],
          "text": "Nitrite [Presence] in Urine by Test strip"
        },
        "valueQuantity": {
          "system": "http://unitsofmeasure.org",
          "value": 0,
          "unit": "{presence}",
          "code": "{presence}"
        },
        "referenceRange": [
          {
            "low": {
              "value": 0,
              "code": "Presence",
              "system": "http://unitsofmeasure.org"
            }
          },
          {
            "high": {
              "value": 0,
              "code": "Presence",
              "system": "http://unitsofmeasure.org"
            }
          }
        ],
        "text": {
          "status": "generated",
          "div": "<div xmlns=\"http://www.w3.org/1999/xhtml\"><table class=\"hl7__eu__lab__report\"><tr><th>Test</th><th>20-Aug-2018</th><th>Reference&#xA0;Range</th><th>Unit</th></tr><tr><td>Nitrite [Presence] in Urine by Test strip</td><td>0.0</td><td>0 - 0</td><td></td><td>{presence}</td></tr></table></div>"
        },
        "status": "final",
        "subject": {
          "reference": "urn:uuid:cf678ac3-2e93-4335-a844-45fa49d6d7d2",
          "display": "Maria Nohlmans"
        },
        "effectiveDateTime": "2018-08-19T23:27:12Z",
        "specimen": {
          "reference": "urn:uuid:f22ac872-cb01-453c-8e42-3e4642bf9414"
        }
      }
    },
    {
      "fullUrl": "urn:uuid:94bce9f5-85ef-48f6-86e8-b3d0f8402a0a",
      "resource": {
        "resourceType": "Observation",
        "id": "94bce9f5-85ef-48f6-86e8-b3d0f8402a0a",
        "meta": {
          "profile": [
            "http://hl7.eu/fhir/laboratory/StructureDefinition/Observation-resultslab-eu-lab"
          ]
        },
        "performer": [
          {
            "display": "The Central European Lab"
          }
        ],
        "category": [
          {
            "coding": [
              {
                "system": "http://terminology.hl7.org/CodeSystem/observation-category",
                "code": "laboratory"
              }
            ]
          }
        ],
        "code": {
          "coding": [
            {
              "code": "5794-3",
              "system": "http://loinc.org",
              "display": "Hemoglobin [Presence] in Urine by Test strip"
            }
          ],
          "text": "Hemoglobin [Presence] in Urine by Test strip"
        },
        "valueQuantity": {
          "system": "http://unitsofmeasure.org",
          "value": 0,
          "unit": "{presence}",
          "code": "{presence}"
        },
        "referenceRange": [
          {
            "low": {
              "value": 0,
              "code": "Presence",
              "system": "http://unitsofmeasure.org"
            }
          },
          {
            "high": {
              "value": 0,
              "code": "Presence",
              "system": "http://unitsofmeasure.org"
            }
          }
        ],
        "text": {
          "status": "generated",
          "div": "<div xmlns=\"http://www.w3.org/1999/xhtml\"><table class=\"hl7__eu__lab__report\"><tr><th>Test</th><th>20-Aug-2018</th><th>Reference&#xA0;Range</th><th>Unit</th></tr><tr><td>Hemoglobin [Presence] in Urine by Test strip</td><td>0.0</td><td>0 - 0</td><td></td><td>{presence}</td></tr></table></div>"
        },
        "status": "final",
        "subject": {
          "reference": "urn:uuid:cf678ac3-2e93-4335-a844-45fa49d6d7d2",
          "display": "Maria Nohlmans"
        },
        "effectiveDateTime": "2018-08-19T23:27:12Z",
        "specimen": {
          "reference": "urn:uuid:f22ac872-cb01-453c-8e42-3e4642bf9414"
        }
      }
    },
    {
      "fullUrl": "urn:uuid:ad38a1a9-989e-4646-a95f-2b4144f68550",
      "resource": {
        "resourceType": "Observation",
        "id": "ad38a1a9-989e-4646-a95f-2b4144f68550",
        "meta": {
          "profile": [
            "http://hl7.eu/fhir/laboratory/StructureDefinition/Observation-resultslab-eu-lab"
          ]
        },
        "performer": [
          {
            "display": "The Central European Lab"
          }
        ],
        "category": [
          {
            "coding": [
              {
                "system": "http://terminology.hl7.org/CodeSystem/observation-category",
                "code": "laboratory"
              }
            ]
          }
        ],
        "code": {
          "coding": [
            {
              "code": "5799-2",
              "system": "http://loinc.org",
              "display": "Leukocyte esterase [Presence] in Urine by Test strip"
            }
          ],
          "text": "Leukocyte esterase [Presence] in Urine by Test strip"
        },
        "valueQuantity": {
          "system": "http://unitsofmeasure.org",
          "value": 0,
          "unit": "{presence}",
          "code": "{presence}"
        },
        "referenceRange": [
          {
            "low": {
              "value": 0,
              "code": "Presence",
              "system": "http://unitsofmeasure.org"
            }
          },
          {
            "high": {
              "value": 0,
              "code": "Presence",
              "system": "http://unitsofmeasure.org"
            }
          }
        ],
        "text": {
          "status": "generated",
          "div": "<div xmlns=\"http://www.w3.org/1999/xhtml\"><table class=\"hl7__eu__lab__report\"><tr><th>Test</th><th>20-Aug-2018</th><th>Reference&#xA0;Range</th><th>Unit</th></tr><tr><td>Leukocyte esterase [Presence] in Urine by Test strip</td><td>0.0</td><td>0 - 0</td><td></td><td>{presence}</td></tr></table></div>"
        },
        "status": "final",
        "subject": {
          "reference": "urn:uuid:cf678ac3-2e93-4335-a844-45fa49d6d7d2",
          "display": "Maria Nohlmans"
        },
        "effectiveDateTime": "2018-08-19T23:27:12Z",
        "specimen": {
          "reference": "urn:uuid:f22ac872-cb01-453c-8e42-3e4642bf9414"
        }
      }
    },
    {
      "fullUrl": "urn:uuid:23af3a63-79a9-4410-8e09-e14d1af7633c",
      "resource": {
        "resourceType": "Device",
        "id": "23af3a63-79a9-4410-8e09-e14d1af7633c",
        "deviceName": [
          {
            "name": "SYNDERAI Synthetic Generator",
            "type": "manufacturer-name"
          }
        ],
        "version": [
          {
            "value": "5.0"
          }
        ],
        "text": {
          "status": "generated",
          "div": "<div xmlns=\"http://www.w3.org/1999/xhtml\">SYNDERAI Synthetic Generator v5.0</div>"
        },
        "status": "active\"",
        "distinctIdentifier": "synderai-generator-50",
        "manufacturer": "SYNDERAI Project"
      }
    },
    {
      "fullUrl": "urn:uuid:027393da-ce78-4636-b924-a80f4b0c254a",
      "resource": {
        "resourceType": "Provenance",
        "id": "027393da-ce78-4636-b924-a80f4b0c254a",
        "target": [
          {
            "reference": "Patient/cf678ac3-2e93-4335-a844-45fa49d6d7d2"
          },
          {
            "reference": "Bundle/a14c5000-6201-45fc-93b2-14a6a5f08bce"
          },
          {
            "reference": "Composition/27fb3e93-dba5-4bf3-888d-5ffa7c8e8041"
          },
          {
            "reference": "PractitionerRole/f1f25239-f46e-4f44-956f-fdc7d7b34fbb"
          },
          {
            "reference": "Practitioner/f6080198-9ad3-4517-8239-f868d19bf933"
          },
          {
            "reference": "PractitionerRole/752cce0d-ee77-49e1-b377-62946212bd60"
          },
          {
            "reference": "Organization/9e17670d-e305-4dc0-b1e7-b8e4b36feeca"
          }
        ],
        "activity": {
          "text": "Synthetic Example Data Generation"
        },
        "policy": [
          "https://synderai.net/synderai-synthetic-data-policy"
        ],
        "agent": [
          {
            "type": {
              "text": "author"
            },
            "who": {
              "reference": "Device/23af3a63-79a9-4410-8e09-e14d1af7633c"
            }
          }
        ],
        "reason": [
          {
            "text": "Interoperability Testing and Training (non-clinical use)"
          }
        ],
        "text": {
          "status": "generated",
          "div": "<div xmlns=\"http://www.w3.org/1999/xhtml\">Provenance for SYNDERAI Synthetic Example Data Resource</div>"
        },
        "recorded": "2018-08-20T01:27:12Z"
      }
    },
    {
      "fullUrl": "urn:uuid:f1f25239-f46e-4f44-956f-fdc7d7b34fbb",
      "resource": {
        "resourceType": "PractitionerRole",
        "id": "f1f25239-f46e-4f44-956f-fdc7d7b34fbb",
        "meta": {
          "profile": [
            "http://hl7.eu/fhir/base/StructureDefinition/practitionerRole-eu"
          ]
        },
        "text": {
          "status": "generated",
          "div": "<div xmlns=\"http://www.w3.org/1999/xhtml\">Laboratory Role Id: f1f25239-f46e-4f44-956f-fdc7d7b34fbb</div>"
        },
        "practitioner": {
          "reference": "urn:uuid:f6080198-9ad3-4517-8239-f868d19bf933"
        }
      }
    },
    {
      "fullUrl": "urn:uuid:f6080198-9ad3-4517-8239-f868d19bf933",
      "resource": {
        "resourceType": "Practitioner",
        "id": "f6080198-9ad3-4517-8239-f868d19bf933",
        "meta": {
          "profile": [
            "http://hl7.eu/fhir/base/StructureDefinition/practitioner-eu"
          ]
        },
        "identifier": [
          {
            "assigner": {
              "display": "HL7 Europe"
            },
            "system": "urn:oid:2.16.840.1.113883.2.51.999",
            "value": "1f97f9f2-47f1-4058-88d9-659a52a747ab"
          }
        ],
        "name": [
          {
            "prefix": [
              "dr"
            ],
            "given": [
              "Ex"
            ],
            "family": "Ample"
          }
        ],
        "address": [
          {
            "line": [
              "Laboratoire Central Européenne",
              "Boulevard du Jardin Botanique 32"
            ],
            "postalCode": "1000",
            "city": "Brussels",
            "country": "Belgium"
          }
        ],
        "text": {
          "status": "generated",
          "div": "<div xmlns=\"http://www.w3.org/1999/xhtml\">Laboratory: Laboratoire Central Européenne, 1000 Brussels, Belgium</div>"
        }
      }
    }
  ],
  "type": "document",
  "timestamp": "2018-08-20T01:27:12Z"
}
