{
  "resourceType": "Bundle",
  "id": "12708419-13aa-4404-b124-0cbdc2a3550f",
  "meta": {
    "profile": [
      "http://hl7.eu/fhir/laboratory/StructureDefinition/Bundle-eu-lab"
    ]
  },
  "identifier": {
    "assigner": {
      "display": "HL7 Europe"
    },
    "system": "urn:oid:2.16.840.1.113883.2.51.999",
    "value": "3ab270cc-bde1-4941-9e8c-5499dd2ddead"
  },
  "entry": [
    {
      "fullUrl": "urn:uuid:a2b2ad29-7f06-40c6-bf8f-fb263af756c7",
      "resource": {
        "resourceType": "Composition",
        "id": "a2b2ad29-7f06-40c6-bf8f-fb263af756c7",
        "meta": {
          "profile": [
            "http://hl7.eu/fhir/laboratory/StructureDefinition/Composition-eu-lab"
          ]
        },
        "identifier": {
          "assigner": {
            "display": "HL7 Europe"
          },
          "system": "urn:oid:2.16.840.1.113883.2.51.999",
          "value": "f7d587f3-a022-477e-94a6-76dac98e71d9"
        },
        "author": [
          {
            "reference": "urn:uuid:02810682-10d7-4c74-8273-edb2309c4a57"
          }
        ],
        "category": [
          {
            "coding": [
              {
                "code": "26436-6",
                "system": "http://loinc.org",
                "display": "Laboratory studies (set)"
              }
            ]
          }
        ],
        "type": {
          "coding": [
            {
              "code": "11502-2",
              "system": "http://loinc.org",
              "display": "Laboratory report"
            }
          ],
          "text": "Laboratory Report"
        },
        "section": [
          {
            "code": {
              "coding": [
                {
                  "code": "26436-6",
                  "system": "http://loinc.org",
                  "display": "Laboratory studies (set)"
                }
              ],
              "text": "Laboratory studies"
            },
            "section": [
              {
                "code": {
                  "coding": [
                    {
                      "code": "$18719-5",
                      "system": "http://loinc.org",
                      "display": "Chemistry studies (set)"
                    }
                  ],
                  "text": "Chemistry"
                },
                "entry": [
                  {
                    "reference": "urn:uuid:587142c4-6104-4f8a-b345-f03d6b8b2609"
                  },
                  {
                    "reference": "urn:uuid:b23a768e-6c4d-47f4-a3bc-68a7e01d2d2f"
                  },
                  {
                    "reference": "urn:uuid:25daefde-c427-4817-8bb5-0fdec1c51ddf"
                  },
                  {
                    "reference": "urn:uuid:f6ac596f-19b9-473a-9fcf-568f393b9892"
                  },
                  {
                    "reference": "urn:uuid:bcf5b83b-f642-44d7-b006-42aed8996afb"
                  },
                  {
                    "reference": "urn:uuid:a2099943-5e37-4c5c-b186-0efe16afbe6d"
                  },
                  {
                    "reference": "urn:uuid:791680cc-256f-4751-bb68-1c7aa8e8c9f1"
                  },
                  {
                    "reference": "urn:uuid:543320aa-7ecf-4698-a781-a95418b25528"
                  },
                  {
                    "reference": "urn:uuid:bd385714-fec8-4ddf-a538-254e7edbb212"
                  },
                  {
                    "reference": "urn:uuid:62645ae7-9e26-4cb6-ab94-220463f29cb4"
                  },
                  {
                    "reference": "urn:uuid:89793a49-c0b8-43ea-b815-8af81552faa7"
                  },
                  {
                    "reference": "urn:uuid:511aaeed-7310-41a4-af17-b003a77ac304"
                  },
                  {
                    "reference": "urn:uuid:8550be2b-61b3-48ad-84f9-a4350fa95c69"
                  },
                  {
                    "reference": "urn:uuid:5828c3b5-57c4-4d07-97bd-1a36acfd38d4"
                  }
                ],
                "text": {
                  "status": "generated",
                  "div": "<div xmlns=\"http://www.w3.org/1999/xhtml\"><h3>Chemistry</h3><table class=\"hl7__eu__lab__report\"><thead><tr><th>Test</th><th>07-JUN-2016</th><th>Reference&#xA0;Range</th><th>Unit</th></tr></thead><tbody><tr><td>Hemoglobin A1c/Hemoglobin.total in Blood</td><td>5.4</td><td>4.5 - 6.4</td><td>%</td></tr><tr><td>Glucose [Mass/volume] in Blood</td><td>95.6</td><td>70 - 140</td><td>mg/dL</td></tr><tr><td>Urea nitrogen [Mass/volume] in Blood</td><td>15.8</td><td>7 - 25</td><td>mg/dL</td></tr><tr><td>Creatinine [Mass/volume] in Blood</td><td><strong>0.7 L</strong></td><td>0.9 - 1.3</td><td>mg/dL</td></tr><tr><td>Calcium [Mass/volume] in Blood</td><td>9.1</td><td>8.5 - 10.5</td><td>mg/dL</td></tr><tr><td>Sodium [Moles/volume] in Blood</td><td>136.8</td><td>135 - 145</td><td>mmol/L</td></tr><tr><td>Potassium [Moles/volume] in Blood</td><td>3.7</td><td>3.5 - 5.1</td><td>mmol/L</td></tr><tr><td>Chloride [Moles/volume] in Blood</td><td>107.0</td><td>98 - 110</td><td>mmol/L</td></tr><tr><td>Carbon dioxide, total [Moles/volume] in Blood</td><td>25.0</td><td>22 - 29</td><td>mmol/L</td></tr><tr><td>Cholesterol [Mass/volume] in Serum or Plasma</td><td><strong>283.4 H</strong></td><td>100 - 200</td><td>mg/dL</td></tr><tr><td>Triglyceride [Mass/volume] in Serum or Plasma</td><td>102.9</td><td>45 - 175</td><td>mg/dL</td></tr><tr><td>Cholesterol in LDL [Mass/volume] in Serum or Plasma by Direct assay</td><td><strong>209.4 H</strong></td><td>0 - 190</td><td>mg/dL</td></tr><tr><td>Cholesterol in HDL [Mass/volume] in Serum or Plasma</td><td>53.4</td><td>40 - 100</td><td>mg/dL</td></tr><tr><td>Microalbumin/Creatinine [Mass Ratio] in Urine</td><td>6.7</td><td>0 - 30</td><td>mg/g</td></tr></tbody></table></div>"
                },
                "title": "Chemistry"
              }
            ],
            "title": "Laboratory Report"
          },
          {
            "text": {
              "status": "generated",
              "div": "<div xmlns=\"http://www.w3.org/1999/xhtml\"><h3>Annotation</h3><table class=\"hl7__eu__lab__report\"><tr><th>Conclusion and Recommendations based on this report and previous findings known to us</th></tr><tr><td>Laboratory results show good glycemic control and normal renal function markers, except for mildly decreased creatinine, which is not clinically significant. Lipid profile reveals elevated total and LDL cholesterol, indicating increased cardiovascular risk. Electrolytes, calcium, and urine microalbumin/creatinine ratio are within normal limits. Recommend addressing hypercholesterolemia and monitoring cardiovascular risk factors.</td></tr></table></div>"
            },
            "code": {
              "coding": [
                {
                  "system": "http://loinc.org",
                  "code": "48767-8",
                  "display": "Annotation comment"
                }
              ]
            },
            "title": "Annotation comment"
          }
        ],
        "status": "final",
        "subject": {
          "reference": "urn:uuid:17dea135-c564-487d-a30f-99c72a929133",
          "display": "Urbano Cantón"
        },
        "date": "2016-06-07T19:07:13Z",
        "title": "Laboratory Report",
        "confidentiality": "N"
      }
    },
    {
      "fullUrl": "urn:uuid:d2c24943-4e7f-4fd1-a953-47b81177398c",
      "resource": {
        "resourceType": "DiagnosticReport",
        "id": "d2c24943-4e7f-4fd1-a953-47b81177398c",
        "meta": {
          "profile": [
            "http://hl7.eu/fhir/laboratory/StructureDefinition/DiagnosticReport-eu-lab"
          ]
        },
        "identifier": [
          {
            "assigner": {
              "display": "HL7 Europe"
            },
            "system": "urn:oid:2.16.840.1.113883.2.51.999",
            "value": "2c5d42ed-3e12-4a68-9d89-d6ea8b4d9b6b"
          }
        ],
        "extension": [
          {
            "url": "http://hl7.org/fhir/5.0/StructureDefinition/extension-DiagnosticReport.composition",
            "valueReference": {
              "reference": "urn:uuid:f7d587f3-a022-477e-94a6-76dac98e71d9"
            }
          }
        ],
        "category": [
          {
            "coding": [
              {
                "code": "26436-6",
                "system": "http://loinc.org",
                "display": "Laboratory studies (set)"
              }
            ]
          }
        ],
        "specimen": [
          {
            "reference": "urn:uuid:fbc70f3e-cc40-41bb-ac01-6aa17ce972a9"
          },
          {
            "reference": "urn:uuid:bdfb0443-5620-4120-bbcd-e93632cc3c91"
          },
          {
            "reference": "urn:uuid:c9149dae-5c61-46fd-a976-2ea64b3847bd"
          }
        ],
        "result": [
          {
            "reference": "urn:uuid:587142c4-6104-4f8a-b345-f03d6b8b2609"
          },
          {
            "reference": "urn:uuid:b23a768e-6c4d-47f4-a3bc-68a7e01d2d2f"
          },
          {
            "reference": "urn:uuid:25daefde-c427-4817-8bb5-0fdec1c51ddf"
          },
          {
            "reference": "urn:uuid:f6ac596f-19b9-473a-9fcf-568f393b9892"
          },
          {
            "reference": "urn:uuid:bcf5b83b-f642-44d7-b006-42aed8996afb"
          },
          {
            "reference": "urn:uuid:a2099943-5e37-4c5c-b186-0efe16afbe6d"
          },
          {
            "reference": "urn:uuid:791680cc-256f-4751-bb68-1c7aa8e8c9f1"
          },
          {
            "reference": "urn:uuid:543320aa-7ecf-4698-a781-a95418b25528"
          },
          {
            "reference": "urn:uuid:bd385714-fec8-4ddf-a538-254e7edbb212"
          },
          {
            "reference": "urn:uuid:62645ae7-9e26-4cb6-ab94-220463f29cb4"
          },
          {
            "reference": "urn:uuid:89793a49-c0b8-43ea-b815-8af81552faa7"
          },
          {
            "reference": "urn:uuid:511aaeed-7310-41a4-af17-b003a77ac304"
          },
          {
            "reference": "urn:uuid:8550be2b-61b3-48ad-84f9-a4350fa95c69"
          },
          {
            "reference": "urn:uuid:5828c3b5-57c4-4d07-97bd-1a36acfd38d4"
          }
        ],
        "status": "registered",
        "code": {
          "coding": [
            {
              "code": "11502-2",
              "system": "http://loinc.org",
              "display": "Laboratory report"
            }
          ]
        },
        "subject": {
          "reference": "urn:uuid:17dea135-c564-487d-a30f-99c72a929133",
          "display": "Urbano Cantón"
        }
      }
    },
    {
      "fullUrl": "urn:uuid:17dea135-c564-487d-a30f-99c72a929133",
      "resource": {
        "resourceType": "Patient",
        "id": "17dea135-c564-487d-a30f-99c72a929133",
        "meta": {
          "security": [
            {
              "system": "http://terminology.hl7.org/CodeSystem/v3-ActReason",
              "code": "HTEST"
            },
            {
              "system": "http://terminology.hl7.org/CodeSystem/v3-ActReason",
              "code": "TRAIN"
            }
          ],
          "tag": [
            {
              "system": "https://synderai.net/fhir/CodeSystem/tags",
              "code": "synthetic",
              "display": "SYNDERAI Synthetic data"
            }
          ],
          "profile": [
            "http://hl7.eu/fhir/base/StructureDefinition/patient-eu-core"
          ]
        },
        "identifier": [
          {
            "type": {
              "coding": [
                {
                  "code": "PT",
                  "system": "http://terminology.hl7.org/CodeSystem/v2-0203"
                }
              ]
            },
            "system": "http://ec.europa.eu/identifier/eci",
            "value": "8854-480268-4"
          },
          {
            "type": {
              "coding": [
                {
                  "code": "MR",
                  "system": "http://terminology.hl7.org/CodeSystem/v2-0203"
                }
              ]
            },
            "system": "http://local.setting.eu/identifier",
            "value": "91128f5c-658f-cfab-4640-b680ec2e24a1"
          }
        ],
        "name": [
          {
            "family": "Cantón"
          },
          {
            "given": [
              "Urbano"
            ]
          },
          {
            "text": "Urbano Cantón"
          }
        ],
        "address": [
          {
            "line": [
              "Vial Vito Trujillo 29 Piso 2 "
            ],
            "use": "home",
            "type": "physical",
            "postalCode": "38001",
            "city": "Santa Cruz de Tenerife",
            "country": "Spain"
          }
        ],
        "telecom": [
          {
            "system": "phone",
            "value": "+34 740 588 857"
          }
        ],
        "extension": [
          {
            "url": "http://hl7.org/fhir/StructureDefinition/patient-nationality",
            "valueCodeableConcept": {
              "coding": [
                {
                  "code": "ES",
                  "system": "http://hl7.org/fhir/ValueSet/country"
                }
              ]
            }
          }
        ],
        "text": {
          "status": "generated",
          "div": "<div xmlns=\"http://www.w3.org/1999/xhtml\"><table class=\"hl7__ips\"><tr><td>Urbano Cantón</td><td>male</td><td>01-Apr-1945</td></tr></table></div>"
        },
        "gender": "male",
        "birthDate": "1945-04-01"
      }
    },
    {
      "fullUrl": "urn:uuid:ccae90be-66bc-48da-af64-77ee7087ec7c",
      "resource": {
        "resourceType": "ServiceRequest",
        "id": "ccae90be-66bc-48da-af64-77ee7087ec7c",
        "meta": {
          "profile": [
            "http://hl7.eu/fhir/laboratory/StructureDefinition/ServiceRequest-eu-lab"
          ]
        },
        "identifier": [
          {
            "system": "http://example.org",
            "value": "4fbe7448-3ce5-451f-9e12-8963abfbf598"
          }
        ],
        "specimen": [
          {
            "reference": "urn:uuid:fbc70f3e-cc40-41bb-ac01-6aa17ce972a9"
          },
          {
            "reference": "urn:uuid:bdfb0443-5620-4120-bbcd-e93632cc3c91"
          },
          {
            "reference": "urn:uuid:c9149dae-5c61-46fd-a976-2ea64b3847bd"
          }
        ],
        "reasonCode": [
          {
            "coding": [
              {
                "code": "55822004",
                "system": "http://snomed.info/sct",
                "display": "Hyperlipidemia"
              }
            ]
          },
          {
            "coding": [
              {
                "code": "401314000",
                "system": "http://snomed.info/sct",
                "display": "Acute non-ST segment elevation myocardial infarction"
              }
            ]
          },
          {
            "coding": [
              {
                "code": "6525002",
                "system": "http://snomed.info/sct",
                "display": "Dependent drug abuse"
              }
            ]
          },
          {
            "coding": [
              {
                "code": "124171000119105",
                "system": "http://snomed.info/sct",
                "display": "Chronic intractable migraine without aura"
              }
            ]
          },
          {
            "coding": [
              {
                "code": "414545008",
                "system": "http://snomed.info/sct",
                "display": "Ischemic heart disease"
              }
            ]
          },
          {
            "coding": [
              {
                "code": "368581000119106",
                "system": "http://snomed.info/sct",
                "display": "Neuropathy due to type 2 diabetes mellitus"
              }
            ]
          },
          {
            "coding": [
              {
                "code": "80394007",
                "system": "http://snomed.info/sct",
                "display": "Hyperglycemia"
              }
            ]
          },
          {
            "coding": [
              {
                "code": "237602007",
                "system": "http://snomed.info/sct",
                "display": "Metabolic syndrome X"
              }
            ]
          },
          {
            "coding": [
              {
                "code": "302870006",
                "system": "http://snomed.info/sct",
                "display": "Hypertriglyceridemia"
              }
            ]
          },
          {
            "coding": [
              {
                "code": "44054006",
                "system": "http://snomed.info/sct",
                "display": "Type 2 diabetes mellitus"
              }
            ]
          },
          {
            "coding": [
              {
                "code": "59621000",
                "system": "http://snomed.info/sct",
                "display": "Essential hypertension"
              }
            ]
          },
          {
            "coding": [
              {
                "code": "271737000",
                "system": "http://snomed.info/sct",
                "display": "Anemia"
              }
            ]
          },
          {
            "coding": [
              {
                "code": "40055000",
                "system": "http://snomed.info/sct",
                "display": "Chronic sinusitis"
              }
            ]
          }
        ],
        "status": "active",
        "intent": "order",
        "code": {
          "coding": [
            {
              "code": "108252007",
              "system": "http://snomed.info/sct",
              "display": "Laboratory procedure"
            }
          ]
        },
        "subject": {
          "reference": "urn:uuid:17dea135-c564-487d-a30f-99c72a929133",
          "display": "Urbano Cantón"
        },
        "requester": {
          "reference": "urn:uuid:d7ee463e-539a-41c3-939d-2ce41bd072fc"
        }
      }
    },
    {
      "fullUrl": "urn:uuid:d7ee463e-539a-41c3-939d-2ce41bd072fc",
      "resource": {
        "resourceType": "PractitionerRole",
        "id": "d7ee463e-539a-41c3-939d-2ce41bd072fc",
        "meta": {
          "profile": [
            "http://hl7.eu/fhir/base/StructureDefinition/practitionerRole-eu"
          ]
        },
        "text": {
          "status": "generated",
          "div": "<div xmlns=\"http://www.w3.org/1999/xhtml\">Provider Role Id: d7ee463e-539a-41c3-939d-2ce41bd072fc</div>"
        },
        "organization": {
          "reference": "urn:uuid:9bdb9476-ca38-4428-8e15-3e0b83723420"
        }
      }
    },
    {
      "fullUrl": "urn:uuid:9bdb9476-ca38-4428-8e15-3e0b83723420",
      "resource": {
        "resourceType": "Organization",
        "id": "9bdb9476-ca38-4428-8e15-3e0b83723420",
        "meta": {
          "profile": [
            "http://hl7.eu/fhir/base/StructureDefinition/organization-eu"
          ]
        },
        "identifier": [
          {
            "assigner": {
              "display": "HL7 Europe"
            },
            "system": "urn:oid:2.16.840.1.113883.2.51.999",
            "value": "0044f0b8-6798-4f09-9e73-344c95a28e25"
          }
        ],
        "address": [
          {
            "country": "Spain"
          }
        ],
        "text": {
          "status": "generated",
          "div": "<div xmlns=\"http://www.w3.org/1999/xhtml\">Provider Organization: Centro de Salud Ruiz de Padrón</div>"
        },
        "name": "Centro de Salud Ruiz de Padrón"
      }
    },
    {
      "fullUrl": "urn:uuid:fbc70f3e-cc40-41bb-ac01-6aa17ce972a9",
      "resource": {
        "resourceType": "Specimen",
        "id": "fbc70f3e-cc40-41bb-ac01-6aa17ce972a9",
        "meta": {
          "profile": [
            "http://hl7.eu/fhir/laboratory/StructureDefinition/Specimen-eu-lab"
          ]
        },
        "collection": {
          "collectedDateTime": "2016-06-07"
        },
        "text": {
          "status": "generated",
          "div": "<div xmlns=\"http://www.w3.org/1999/xhtml\"><table class=\"hl7__eu__lab__report\"><tr><th>Specimen</th><th>Collection Date</th></tr><tr><td>Whole blood specimen (specimen)</td><td><span class=\"nb\">07-Jun-2016</span></td></tr></table></div>"
        },
        "type": {
          "coding": [
            {
              "code": "258580003",
              "system": "http://snomed.info/sct",
              "display": "Whole blood specimen (specimen)"
            }
          ]
        }
      }
    },
    {
      "fullUrl": "urn:uuid:bdfb0443-5620-4120-bbcd-e93632cc3c91",
      "resource": {
        "resourceType": "Specimen",
        "id": "bdfb0443-5620-4120-bbcd-e93632cc3c91",
        "meta": {
          "profile": [
            "http://hl7.eu/fhir/laboratory/StructureDefinition/Specimen-eu-lab"
          ]
        },
        "collection": {
          "collectedDateTime": "2016-06-07"
        },
        "text": {
          "status": "generated",
          "div": "<div xmlns=\"http://www.w3.org/1999/xhtml\"><table class=\"hl7__eu__lab__report\"><tr><th>Specimen</th><th>Collection Date</th></tr><tr><td>Acellular blood (serum or plasma) specimen</td><td><span class=\"nb\">07-Jun-2016</span></td></tr></table></div>"
        },
        "type": {
          "coding": [
            {
              "code": "122592007",
              "system": "http://snomed.info/sct",
              "display": "Acellular blood (serum or plasma) specimen"
            }
          ]
        }
      }
    },
    {
      "fullUrl": "urn:uuid:c9149dae-5c61-46fd-a976-2ea64b3847bd",
      "resource": {
        "resourceType": "Specimen",
        "id": "c9149dae-5c61-46fd-a976-2ea64b3847bd",
        "meta": {
          "profile": [
            "http://hl7.eu/fhir/laboratory/StructureDefinition/Specimen-eu-lab"
          ]
        },
        "collection": {
          "collectedDateTime": "2016-06-07"
        },
        "text": {
          "status": "generated",
          "div": "<div xmlns=\"http://www.w3.org/1999/xhtml\"><table class=\"hl7__eu__lab__report\"><tr><th>Specimen</th><th>Collection Date</th></tr><tr><td>Urine specimen</td><td><span class=\"nb\">07-Jun-2016</span></td></tr></table></div>"
        },
        "type": {
          "coding": [
            {
              "code": "122575003",
              "system": "http://snomed.info/sct",
              "display": "Urine specimen"
            }
          ]
        }
      }
    },
    {
      "fullUrl": "urn:uuid:587142c4-6104-4f8a-b345-f03d6b8b2609",
      "resource": {
        "resourceType": "Observation",
        "id": "587142c4-6104-4f8a-b345-f03d6b8b2609",
        "meta": {
          "profile": [
            "http://hl7.eu/fhir/laboratory/StructureDefinition/Observation-resultslab-eu-lab"
          ]
        },
        "performer": [
          {
            "display": "The Central European Lab"
          }
        ],
        "category": [
          {
            "coding": [
              {
                "system": "http://terminology.hl7.org/CodeSystem/observation-category",
                "code": "laboratory"
              }
            ]
          }
        ],
        "code": {
          "coding": [
            {
              "code": "4548-4",
              "system": "http://loinc.org",
              "display": "Hemoglobin A1c/Hemoglobin.total in Blood"
            }
          ],
          "text": "Hemoglobin A1c/Hemoglobin.total in Blood"
        },
        "valueQuantity": {
          "system": "http://unitsofmeasure.org",
          "value": 5.4,
          "unit": "%",
          "code": "%"
        },
        "referenceRange": [
          {
            "low": {
              "value": 4.5,
              "code": "%",
              "system": "http://unitsofmeasure.org"
            }
          },
          {
            "high": {
              "value": 6.4,
              "code": "%",
              "system": "http://unitsofmeasure.org"
            }
          }
        ],
        "text": {
          "status": "generated",
          "div": "<div xmlns=\"http://www.w3.org/1999/xhtml\"><table class=\"hl7__eu__lab__report\"><tr><th>Test</th><th>07-Jun-2016</th><th>Reference&#xA0;Range</th><th>Unit</th></tr><tr><td>Hemoglobin A1c/Hemoglobin.total in Blood</td><td>5.4</td><td>4.5 - 6.4</td><td></td><td>%</td></tr></table></div>"
        },
        "status": "final",
        "subject": {
          "reference": "urn:uuid:17dea135-c564-487d-a30f-99c72a929133",
          "display": "Urbano Cantón"
        },
        "effectiveDateTime": "2016-06-07T17:07:13Z",
        "specimen": {
          "reference": "urn:uuid:fbc70f3e-cc40-41bb-ac01-6aa17ce972a9"
        }
      }
    },
    {
      "fullUrl": "urn:uuid:b23a768e-6c4d-47f4-a3bc-68a7e01d2d2f",
      "resource": {
        "resourceType": "Observation",
        "id": "b23a768e-6c4d-47f4-a3bc-68a7e01d2d2f",
        "meta": {
          "profile": [
            "http://hl7.eu/fhir/laboratory/StructureDefinition/Observation-resultslab-eu-lab"
          ]
        },
        "performer": [
          {
            "display": "The Central European Lab"
          }
        ],
        "category": [
          {
            "coding": [
              {
                "system": "http://terminology.hl7.org/CodeSystem/observation-category",
                "code": "laboratory"
              }
            ]
          }
        ],
        "code": {
          "coding": [
            {
              "code": "2339-0",
              "system": "http://loinc.org",
              "display": "Glucose [Mass/volume] in Blood"
            }
          ],
          "text": "Glucose [Mass/volume] in Blood"
        },
        "valueQuantity": {
          "system": "http://unitsofmeasure.org",
          "value": 95.6,
          "unit": "mg/dL",
          "code": "mg/dL"
        },
        "referenceRange": [
          {
            "low": {
              "value": 70,
              "code": "mg/dL",
              "system": "http://unitsofmeasure.org"
            }
          },
          {
            "high": {
              "value": 140,
              "code": "mg/dL",
              "system": "http://unitsofmeasure.org"
            }
          }
        ],
        "text": {
          "status": "generated",
          "div": "<div xmlns=\"http://www.w3.org/1999/xhtml\"><table class=\"hl7__eu__lab__report\"><tr><th>Test</th><th>07-Jun-2016</th><th>Reference&#xA0;Range</th><th>Unit</th></tr><tr><td>Glucose [Mass/volume] in Blood</td><td>95.6</td><td>70 - 140</td><td></td><td>mg/dL</td></tr></table></div>"
        },
        "status": "final",
        "subject": {
          "reference": "urn:uuid:17dea135-c564-487d-a30f-99c72a929133",
          "display": "Urbano Cantón"
        },
        "effectiveDateTime": "2016-06-07T17:07:13Z",
        "specimen": {
          "reference": "urn:uuid:fbc70f3e-cc40-41bb-ac01-6aa17ce972a9"
        }
      }
    },
    {
      "fullUrl": "urn:uuid:25daefde-c427-4817-8bb5-0fdec1c51ddf",
      "resource": {
        "resourceType": "Observation",
        "id": "25daefde-c427-4817-8bb5-0fdec1c51ddf",
        "meta": {
          "profile": [
            "http://hl7.eu/fhir/laboratory/StructureDefinition/Observation-resultslab-eu-lab"
          ]
        },
        "performer": [
          {
            "display": "The Central European Lab"
          }
        ],
        "category": [
          {
            "coding": [
              {
                "system": "http://terminology.hl7.org/CodeSystem/observation-category",
                "code": "laboratory"
              }
            ]
          }
        ],
        "code": {
          "coding": [
            {
              "code": "6299-2",
              "system": "http://loinc.org",
              "display": "Urea nitrogen [Mass/volume] in Blood"
            }
          ],
          "text": "Urea nitrogen [Mass/volume] in Blood"
        },
        "valueQuantity": {
          "system": "http://unitsofmeasure.org",
          "value": 15.8,
          "unit": "mg/dL",
          "code": "mg/dL"
        },
        "referenceRange": [
          {
            "low": {
              "value": 7,
              "code": "mg/dL",
              "system": "http://unitsofmeasure.org"
            }
          },
          {
            "high": {
              "value": 25,
              "code": "mg/dL",
              "system": "http://unitsofmeasure.org"
            }
          }
        ],
        "text": {
          "status": "generated",
          "div": "<div xmlns=\"http://www.w3.org/1999/xhtml\"><table class=\"hl7__eu__lab__report\"><tr><th>Test</th><th>07-Jun-2016</th><th>Reference&#xA0;Range</th><th>Unit</th></tr><tr><td>Urea nitrogen [Mass/volume] in Blood</td><td>15.8</td><td>7 - 25</td><td></td><td>mg/dL</td></tr></table></div>"
        },
        "status": "final",
        "subject": {
          "reference": "urn:uuid:17dea135-c564-487d-a30f-99c72a929133",
          "display": "Urbano Cantón"
        },
        "effectiveDateTime": "2016-06-07T17:07:13Z",
        "specimen": {
          "reference": "urn:uuid:fbc70f3e-cc40-41bb-ac01-6aa17ce972a9"
        }
      }
    },
    {
      "fullUrl": "urn:uuid:f6ac596f-19b9-473a-9fcf-568f393b9892",
      "resource": {
        "resourceType": "Observation",
        "id": "f6ac596f-19b9-473a-9fcf-568f393b9892",
        "meta": {
          "profile": [
            "http://hl7.eu/fhir/laboratory/StructureDefinition/Observation-resultslab-eu-lab"
          ]
        },
        "performer": [
          {
            "display": "The Central European Lab"
          }
        ],
        "category": [
          {
            "coding": [
              {
                "system": "http://terminology.hl7.org/CodeSystem/observation-category",
                "code": "laboratory"
              }
            ]
          }
        ],
        "code": {
          "coding": [
            {
              "code": "38483-4",
              "system": "http://loinc.org",
              "display": "Creatinine [Mass/volume] in Blood"
            }
          ],
          "text": "Creatinine [Mass/volume] in Blood"
        },
        "valueQuantity": {
          "system": "http://unitsofmeasure.org",
          "value": 0.7,
          "unit": "mg/dL",
          "code": "mg/dL"
        },
        "referenceRange": [
          {
            "low": {
              "value": 0.9,
              "code": "mg/dL",
              "system": "http://unitsofmeasure.org"
            }
          },
          {
            "high": {
              "value": 1.3,
              "code": "mg/dL",
              "system": "http://unitsofmeasure.org"
            }
          }
        ],
        "interpretation": [
          {
            "coding": [
              {
                "code": "L",
                "system": "http://terminology.hl7.org/CodeSystem/v3-ObservationInterpretation",
                "display": "Low"
              }
            ]
          }
        ],
        "text": {
          "status": "generated",
          "div": "<div xmlns=\"http://www.w3.org/1999/xhtml\"><table class=\"hl7__eu__lab__report\"><tr><th>Test</th><th>07-Jun-2016</th><th>Reference&#xA0;Range</th><th>Unit</th></tr><tr><td>Creatinine [Mass/volume] in Blood</td><td>0.7</td><td>0.9 - 1.3</td><td>L</td><td>mg/dL</td></tr></table></div>"
        },
        "status": "final",
        "subject": {
          "reference": "urn:uuid:17dea135-c564-487d-a30f-99c72a929133",
          "display": "Urbano Cantón"
        },
        "effectiveDateTime": "2016-06-07T17:07:13Z",
        "specimen": {
          "reference": "urn:uuid:fbc70f3e-cc40-41bb-ac01-6aa17ce972a9"
        }
      }
    },
    {
      "fullUrl": "urn:uuid:bcf5b83b-f642-44d7-b006-42aed8996afb",
      "resource": {
        "resourceType": "Observation",
        "id": "bcf5b83b-f642-44d7-b006-42aed8996afb",
        "meta": {
          "profile": [
            "http://hl7.eu/fhir/laboratory/StructureDefinition/Observation-resultslab-eu-lab"
          ]
        },
        "performer": [
          {
            "display": "The Central European Lab"
          }
        ],
        "category": [
          {
            "coding": [
              {
                "system": "http://terminology.hl7.org/CodeSystem/observation-category",
                "code": "laboratory"
              }
            ]
          }
        ],
        "code": {
          "coding": [
            {
              "code": "49765-1",
              "system": "http://loinc.org",
              "display": "Calcium [Mass/volume] in Blood"
            }
          ],
          "text": "Calcium [Mass/volume] in Blood"
        },
        "valueQuantity": {
          "system": "http://unitsofmeasure.org",
          "value": 9.1,
          "unit": "mg/dL",
          "code": "mg/dL"
        },
        "referenceRange": [
          {
            "low": {
              "value": 8.5,
              "code": "mg/dL",
              "system": "http://unitsofmeasure.org"
            }
          },
          {
            "high": {
              "value": 10.5,
              "code": "mg/dL",
              "system": "http://unitsofmeasure.org"
            }
          }
        ],
        "text": {
          "status": "generated",
          "div": "<div xmlns=\"http://www.w3.org/1999/xhtml\"><table class=\"hl7__eu__lab__report\"><tr><th>Test</th><th>07-Jun-2016</th><th>Reference&#xA0;Range</th><th>Unit</th></tr><tr><td>Calcium [Mass/volume] in Blood</td><td>9.1</td><td>8.5 - 10.5</td><td></td><td>mg/dL</td></tr></table></div>"
        },
        "status": "final",
        "subject": {
          "reference": "urn:uuid:17dea135-c564-487d-a30f-99c72a929133",
          "display": "Urbano Cantón"
        },
        "effectiveDateTime": "2016-06-07T17:07:13Z",
        "specimen": {
          "reference": "urn:uuid:fbc70f3e-cc40-41bb-ac01-6aa17ce972a9"
        }
      }
    },
    {
      "fullUrl": "urn:uuid:a2099943-5e37-4c5c-b186-0efe16afbe6d",
      "resource": {
        "resourceType": "Observation",
        "id": "a2099943-5e37-4c5c-b186-0efe16afbe6d",
        "meta": {
          "profile": [
            "http://hl7.eu/fhir/laboratory/StructureDefinition/Observation-resultslab-eu-lab"
          ]
        },
        "performer": [
          {
            "display": "The Central European Lab"
          }
        ],
        "category": [
          {
            "coding": [
              {
                "system": "http://terminology.hl7.org/CodeSystem/observation-category",
                "code": "laboratory"
              }
            ]
          }
        ],
        "code": {
          "coding": [
            {
              "code": "2947-0",
              "system": "http://loinc.org",
              "display": "Sodium [Moles/volume] in Blood"
            }
          ],
          "text": "Sodium [Moles/volume] in Blood"
        },
        "valueQuantity": {
          "system": "http://unitsofmeasure.org",
          "value": 136.8,
          "unit": "mmol/L",
          "code": "mmol/L"
        },
        "referenceRange": [
          {
            "low": {
              "value": 135,
              "code": "mmol/L",
              "system": "http://unitsofmeasure.org"
            }
          },
          {
            "high": {
              "value": 145,
              "code": "mmol/L",
              "system": "http://unitsofmeasure.org"
            }
          }
        ],
        "text": {
          "status": "generated",
          "div": "<div xmlns=\"http://www.w3.org/1999/xhtml\"><table class=\"hl7__eu__lab__report\"><tr><th>Test</th><th>07-Jun-2016</th><th>Reference&#xA0;Range</th><th>Unit</th></tr><tr><td>Sodium [Moles/volume] in Blood</td><td>136.8</td><td>135 - 145</td><td></td><td>mmol/L</td></tr></table></div>"
        },
        "status": "final",
        "subject": {
          "reference": "urn:uuid:17dea135-c564-487d-a30f-99c72a929133",
          "display": "Urbano Cantón"
        },
        "effectiveDateTime": "2016-06-07T17:07:13Z",
        "specimen": {
          "reference": "urn:uuid:fbc70f3e-cc40-41bb-ac01-6aa17ce972a9"
        }
      }
    },
    {
      "fullUrl": "urn:uuid:791680cc-256f-4751-bb68-1c7aa8e8c9f1",
      "resource": {
        "resourceType": "Observation",
        "id": "791680cc-256f-4751-bb68-1c7aa8e8c9f1",
        "meta": {
          "profile": [
            "http://hl7.eu/fhir/laboratory/StructureDefinition/Observation-resultslab-eu-lab"
          ]
        },
        "performer": [
          {
            "display": "The Central European Lab"
          }
        ],
        "category": [
          {
            "coding": [
              {
                "system": "http://terminology.hl7.org/CodeSystem/observation-category",
                "code": "laboratory"
              }
            ]
          }
        ],
        "code": {
          "coding": [
            {
              "code": "6298-4",
              "system": "http://loinc.org",
              "display": "Potassium [Moles/volume] in Blood"
            }
          ],
          "text": "Potassium [Moles/volume] in Blood"
        },
        "valueQuantity": {
          "system": "http://unitsofmeasure.org",
          "value": 3.7,
          "unit": "mmol/L",
          "code": "mmol/L"
        },
        "referenceRange": [
          {
            "low": {
              "value": 3.5,
              "code": "mmol/L",
              "system": "http://unitsofmeasure.org"
            }
          },
          {
            "high": {
              "value": 5.1,
              "code": "mmol/L",
              "system": "http://unitsofmeasure.org"
            }
          }
        ],
        "text": {
          "status": "generated",
          "div": "<div xmlns=\"http://www.w3.org/1999/xhtml\"><table class=\"hl7__eu__lab__report\"><tr><th>Test</th><th>07-Jun-2016</th><th>Reference&#xA0;Range</th><th>Unit</th></tr><tr><td>Potassium [Moles/volume] in Blood</td><td>3.7</td><td>3.5 - 5.1</td><td></td><td>mmol/L</td></tr></table></div>"
        },
        "status": "final",
        "subject": {
          "reference": "urn:uuid:17dea135-c564-487d-a30f-99c72a929133",
          "display": "Urbano Cantón"
        },
        "effectiveDateTime": "2016-06-07T17:07:13Z",
        "specimen": {
          "reference": "urn:uuid:fbc70f3e-cc40-41bb-ac01-6aa17ce972a9"
        }
      }
    },
    {
      "fullUrl": "urn:uuid:543320aa-7ecf-4698-a781-a95418b25528",
      "resource": {
        "resourceType": "Observation",
        "id": "543320aa-7ecf-4698-a781-a95418b25528",
        "meta": {
          "profile": [
            "http://hl7.eu/fhir/laboratory/StructureDefinition/Observation-resultslab-eu-lab"
          ]
        },
        "performer": [
          {
            "display": "The Central European Lab"
          }
        ],
        "category": [
          {
            "coding": [
              {
                "system": "http://terminology.hl7.org/CodeSystem/observation-category",
                "code": "laboratory"
              }
            ]
          }
        ],
        "code": {
          "coding": [
            {
              "code": "2069-3",
              "system": "http://loinc.org",
              "display": "Chloride [Moles/volume] in Blood"
            }
          ],
          "text": "Chloride [Moles/volume] in Blood"
        },
        "valueQuantity": {
          "system": "http://unitsofmeasure.org",
          "value": 107,
          "unit": "mmol/L",
          "code": "mmol/L"
        },
        "referenceRange": [
          {
            "low": {
              "value": 98,
              "code": "mmol/L",
              "system": "http://unitsofmeasure.org"
            }
          },
          {
            "high": {
              "value": 110,
              "code": "mmol/L",
              "system": "http://unitsofmeasure.org"
            }
          }
        ],
        "text": {
          "status": "generated",
          "div": "<div xmlns=\"http://www.w3.org/1999/xhtml\"><table class=\"hl7__eu__lab__report\"><tr><th>Test</th><th>07-Jun-2016</th><th>Reference&#xA0;Range</th><th>Unit</th></tr><tr><td>Chloride [Moles/volume] in Blood</td><td>107.0</td><td>98 - 110</td><td></td><td>mmol/L</td></tr></table></div>"
        },
        "status": "final",
        "subject": {
          "reference": "urn:uuid:17dea135-c564-487d-a30f-99c72a929133",
          "display": "Urbano Cantón"
        },
        "effectiveDateTime": "2016-06-07T17:07:13Z",
        "specimen": {
          "reference": "urn:uuid:fbc70f3e-cc40-41bb-ac01-6aa17ce972a9"
        }
      }
    },
    {
      "fullUrl": "urn:uuid:bd385714-fec8-4ddf-a538-254e7edbb212",
      "resource": {
        "resourceType": "Observation",
        "id": "bd385714-fec8-4ddf-a538-254e7edbb212",
        "meta": {
          "profile": [
            "http://hl7.eu/fhir/laboratory/StructureDefinition/Observation-resultslab-eu-lab"
          ]
        },
        "performer": [
          {
            "display": "The Central European Lab"
          }
        ],
        "category": [
          {
            "coding": [
              {
                "system": "http://terminology.hl7.org/CodeSystem/observation-category",
                "code": "laboratory"
              }
            ]
          }
        ],
        "code": {
          "coding": [
            {
              "code": "20565-8",
              "system": "http://loinc.org",
              "display": "Carbon dioxide, total [Moles/volume] in Blood"
            }
          ],
          "text": "Carbon dioxide, total [Moles/volume] in Blood"
        },
        "valueQuantity": {
          "system": "http://unitsofmeasure.org",
          "value": 25,
          "unit": "mmol/L",
          "code": "mmol/L"
        },
        "referenceRange": [
          {
            "low": {
              "value": 22,
              "code": "mmol/L",
              "system": "http://unitsofmeasure.org"
            }
          },
          {
            "high": {
              "value": 29,
              "code": "mmol/L",
              "system": "http://unitsofmeasure.org"
            }
          }
        ],
        "text": {
          "status": "generated",
          "div": "<div xmlns=\"http://www.w3.org/1999/xhtml\"><table class=\"hl7__eu__lab__report\"><tr><th>Test</th><th>07-Jun-2016</th><th>Reference&#xA0;Range</th><th>Unit</th></tr><tr><td>Carbon dioxide, total [Moles/volume] in Blood</td><td>25.0</td><td>22 - 29</td><td></td><td>mmol/L</td></tr></table></div>"
        },
        "status": "final",
        "subject": {
          "reference": "urn:uuid:17dea135-c564-487d-a30f-99c72a929133",
          "display": "Urbano Cantón"
        },
        "effectiveDateTime": "2016-06-07T17:07:13Z",
        "specimen": {
          "reference": "urn:uuid:fbc70f3e-cc40-41bb-ac01-6aa17ce972a9"
        }
      }
    },
    {
      "fullUrl": "urn:uuid:62645ae7-9e26-4cb6-ab94-220463f29cb4",
      "resource": {
        "resourceType": "Observation",
        "id": "62645ae7-9e26-4cb6-ab94-220463f29cb4",
        "meta": {
          "profile": [
            "http://hl7.eu/fhir/laboratory/StructureDefinition/Observation-resultslab-eu-lab"
          ]
        },
        "performer": [
          {
            "display": "The Central European Lab"
          }
        ],
        "category": [
          {
            "coding": [
              {
                "system": "http://terminology.hl7.org/CodeSystem/observation-category",
                "code": "laboratory"
              }
            ]
          }
        ],
        "code": {
          "coding": [
            {
              "code": "2093-3",
              "system": "http://loinc.org",
              "display": "Cholesterol [Mass/volume] in Serum or Plasma"
            }
          ],
          "text": "Cholesterol [Mass/volume] in Serum or Plasma"
        },
        "valueQuantity": {
          "system": "http://unitsofmeasure.org",
          "value": 283.4,
          "unit": "mg/dL",
          "code": "mg/dL"
        },
        "referenceRange": [
          {
            "low": {
              "value": 100,
              "code": "mg/dL",
              "system": "http://unitsofmeasure.org"
            }
          },
          {
            "high": {
              "value": 200,
              "code": "mg/dL",
              "system": "http://unitsofmeasure.org"
            }
          }
        ],
        "interpretation": [
          {
            "coding": [
              {
                "code": "H",
                "system": "http://terminology.hl7.org/CodeSystem/v3-ObservationInterpretation",
                "display": "High"
              }
            ]
          }
        ],
        "text": {
          "status": "generated",
          "div": "<div xmlns=\"http://www.w3.org/1999/xhtml\"><table class=\"hl7__eu__lab__report\"><tr><th>Test</th><th>07-Jun-2016</th><th>Reference&#xA0;Range</th><th>Unit</th></tr><tr><td>Cholesterol [Mass/volume] in Serum or Plasma</td><td>283.4</td><td>100 - 200</td><td>H</td><td>mg/dL</td></tr></table></div>"
        },
        "status": "final",
        "subject": {
          "reference": "urn:uuid:17dea135-c564-487d-a30f-99c72a929133",
          "display": "Urbano Cantón"
        },
        "effectiveDateTime": "2016-06-07T17:07:13Z",
        "specimen": {
          "reference": "urn:uuid:bdfb0443-5620-4120-bbcd-e93632cc3c91"
        }
      }
    },
    {
      "fullUrl": "urn:uuid:89793a49-c0b8-43ea-b815-8af81552faa7",
      "resource": {
        "resourceType": "Observation",
        "id": "89793a49-c0b8-43ea-b815-8af81552faa7",
        "meta": {
          "profile": [
            "http://hl7.eu/fhir/laboratory/StructureDefinition/Observation-resultslab-eu-lab"
          ]
        },
        "performer": [
          {
            "display": "The Central European Lab"
          }
        ],
        "category": [
          {
            "coding": [
              {
                "system": "http://terminology.hl7.org/CodeSystem/observation-category",
                "code": "laboratory"
              }
            ]
          }
        ],
        "code": {
          "coding": [
            {
              "code": "2571-8",
              "system": "http://loinc.org",
              "display": "Triglyceride [Mass/volume] in Serum or Plasma"
            }
          ],
          "text": "Triglyceride [Mass/volume] in Serum or Plasma"
        },
        "valueQuantity": {
          "system": "http://unitsofmeasure.org",
          "value": 102.9,
          "unit": "mg/dL",
          "code": "mg/dL"
        },
        "referenceRange": [
          {
            "low": {
              "value": 45,
              "code": "mg/dL",
              "system": "http://unitsofmeasure.org"
            }
          },
          {
            "high": {
              "value": 175,
              "code": "mg/dL",
              "system": "http://unitsofmeasure.org"
            }
          }
        ],
        "text": {
          "status": "generated",
          "div": "<div xmlns=\"http://www.w3.org/1999/xhtml\"><table class=\"hl7__eu__lab__report\"><tr><th>Test</th><th>07-Jun-2016</th><th>Reference&#xA0;Range</th><th>Unit</th></tr><tr><td>Triglyceride [Mass/volume] in Serum or Plasma</td><td>102.9</td><td>45 - 175</td><td></td><td>mg/dL</td></tr></table></div>"
        },
        "status": "final",
        "subject": {
          "reference": "urn:uuid:17dea135-c564-487d-a30f-99c72a929133",
          "display": "Urbano Cantón"
        },
        "effectiveDateTime": "2016-06-07T17:07:13Z",
        "specimen": {
          "reference": "urn:uuid:bdfb0443-5620-4120-bbcd-e93632cc3c91"
        }
      }
    },
    {
      "fullUrl": "urn:uuid:511aaeed-7310-41a4-af17-b003a77ac304",
      "resource": {
        "resourceType": "Observation",
        "id": "511aaeed-7310-41a4-af17-b003a77ac304",
        "meta": {
          "profile": [
            "http://hl7.eu/fhir/laboratory/StructureDefinition/Observation-resultslab-eu-lab"
          ]
        },
        "performer": [
          {
            "display": "The Central European Lab"
          }
        ],
        "category": [
          {
            "coding": [
              {
                "system": "http://terminology.hl7.org/CodeSystem/observation-category",
                "code": "laboratory"
              }
            ]
          }
        ],
        "code": {
          "coding": [
            {
              "code": "18262-6",
              "system": "http://loinc.org",
              "display": "Cholesterol in LDL [Mass/volume] in Serum or Plasma by Direct assay"
            }
          ],
          "text": "Cholesterol in LDL [Mass/volume] in Serum or Plasma by Direct assay"
        },
        "valueQuantity": {
          "system": "http://unitsofmeasure.org",
          "value": 209.4,
          "unit": "mg/dL",
          "code": "mg/dL"
        },
        "referenceRange": [
          {
            "low": {
              "value": 0,
              "code": "mg/dL",
              "system": "http://unitsofmeasure.org"
            }
          },
          {
            "high": {
              "value": 190,
              "code": "mg/dL",
              "system": "http://unitsofmeasure.org"
            }
          }
        ],
        "interpretation": [
          {
            "coding": [
              {
                "code": "H",
                "system": "http://terminology.hl7.org/CodeSystem/v3-ObservationInterpretation",
                "display": "High"
              }
            ]
          }
        ],
        "text": {
          "status": "generated",
          "div": "<div xmlns=\"http://www.w3.org/1999/xhtml\"><table class=\"hl7__eu__lab__report\"><tr><th>Test</th><th>07-Jun-2016</th><th>Reference&#xA0;Range</th><th>Unit</th></tr><tr><td>Cholesterol in LDL [Mass/volume] in Serum or Plasma by Direct assay</td><td>209.4</td><td>0 - 190</td><td>H</td><td>mg/dL</td></tr></table></div>"
        },
        "status": "final",
        "subject": {
          "reference": "urn:uuid:17dea135-c564-487d-a30f-99c72a929133",
          "display": "Urbano Cantón"
        },
        "effectiveDateTime": "2016-06-07T17:07:13Z",
        "specimen": {
          "reference": "urn:uuid:bdfb0443-5620-4120-bbcd-e93632cc3c91"
        }
      }
    },
    {
      "fullUrl": "urn:uuid:8550be2b-61b3-48ad-84f9-a4350fa95c69",
      "resource": {
        "resourceType": "Observation",
        "id": "8550be2b-61b3-48ad-84f9-a4350fa95c69",
        "meta": {
          "profile": [
            "http://hl7.eu/fhir/laboratory/StructureDefinition/Observation-resultslab-eu-lab"
          ]
        },
        "performer": [
          {
            "display": "The Central European Lab"
          }
        ],
        "category": [
          {
            "coding": [
              {
                "system": "http://terminology.hl7.org/CodeSystem/observation-category",
                "code": "laboratory"
              }
            ]
          }
        ],
        "code": {
          "coding": [
            {
              "code": "2085-9",
              "system": "http://loinc.org",
              "display": "Cholesterol in HDL [Mass/volume] in Serum or Plasma"
            }
          ],
          "text": "Cholesterol in HDL [Mass/volume] in Serum or Plasma"
        },
        "valueQuantity": {
          "system": "http://unitsofmeasure.org",
          "value": 53.4,
          "unit": "mg/dL",
          "code": "mg/dL"
        },
        "referenceRange": [
          {
            "low": {
              "value": 40,
              "code": "mg/dL",
              "system": "http://unitsofmeasure.org"
            }
          },
          {
            "high": {
              "value": 100,
              "code": "mg/dL",
              "system": "http://unitsofmeasure.org"
            }
          }
        ],
        "text": {
          "status": "generated",
          "div": "<div xmlns=\"http://www.w3.org/1999/xhtml\"><table class=\"hl7__eu__lab__report\"><tr><th>Test</th><th>07-Jun-2016</th><th>Reference&#xA0;Range</th><th>Unit</th></tr><tr><td>Cholesterol in HDL [Mass/volume] in Serum or Plasma</td><td>53.4</td><td>40 - 100</td><td></td><td>mg/dL</td></tr></table></div>"
        },
        "status": "final",
        "subject": {
          "reference": "urn:uuid:17dea135-c564-487d-a30f-99c72a929133",
          "display": "Urbano Cantón"
        },
        "effectiveDateTime": "2016-06-07T17:07:13Z",
        "specimen": {
          "reference": "urn:uuid:bdfb0443-5620-4120-bbcd-e93632cc3c91"
        }
      }
    },
    {
      "fullUrl": "urn:uuid:5828c3b5-57c4-4d07-97bd-1a36acfd38d4",
      "resource": {
        "resourceType": "Observation",
        "id": "5828c3b5-57c4-4d07-97bd-1a36acfd38d4",
        "meta": {
          "profile": [
            "http://hl7.eu/fhir/laboratory/StructureDefinition/Observation-resultslab-eu-lab"
          ]
        },
        "performer": [
          {
            "display": "The Central European Lab"
          }
        ],
        "category": [
          {
            "coding": [
              {
                "system": "http://terminology.hl7.org/CodeSystem/observation-category",
                "code": "laboratory"
              }
            ]
          }
        ],
        "code": {
          "coding": [
            {
              "code": "14959-1",
              "system": "http://loinc.org",
              "display": "Microalbumin/Creatinine [Mass Ratio] in Urine"
            }
          ],
          "text": "Microalbumin/Creatinine [Mass Ratio] in Urine"
        },
        "valueQuantity": {
          "system": "http://unitsofmeasure.org",
          "value": 6.7,
          "unit": "mg/g",
          "code": "mg/g"
        },
        "referenceRange": [
          {
            "low": {
              "value": 0,
              "code": "mg/g",
              "system": "http://unitsofmeasure.org"
            }
          },
          {
            "high": {
              "value": 30,
              "code": "mg/g",
              "system": "http://unitsofmeasure.org"
            }
          }
        ],
        "text": {
          "status": "generated",
          "div": "<div xmlns=\"http://www.w3.org/1999/xhtml\"><table class=\"hl7__eu__lab__report\"><tr><th>Test</th><th>07-Jun-2016</th><th>Reference&#xA0;Range</th><th>Unit</th></tr><tr><td>Microalbumin/Creatinine [Mass Ratio] in Urine</td><td>6.7</td><td>0 - 30</td><td></td><td>mg/g</td></tr></table></div>"
        },
        "status": "final",
        "subject": {
          "reference": "urn:uuid:17dea135-c564-487d-a30f-99c72a929133",
          "display": "Urbano Cantón"
        },
        "effectiveDateTime": "2016-06-07T17:07:13Z",
        "specimen": {
          "reference": "urn:uuid:c9149dae-5c61-46fd-a976-2ea64b3847bd"
        }
      }
    },
    {
      "fullUrl": "urn:uuid:01cdcea8-727f-4b3a-8e56-25e0dce521ed",
      "resource": {
        "resourceType": "Device",
        "id": "01cdcea8-727f-4b3a-8e56-25e0dce521ed",
        "deviceName": [
          {
            "name": "SYNDERAI Synthetic Generator",
            "type": "manufacturer-name"
          }
        ],
        "version": [
          {
            "value": "5.0"
          }
        ],
        "text": {
          "status": "generated",
          "div": "<div xmlns=\"http://www.w3.org/1999/xhtml\">SYNDERAI Synthetic Generator v5.0</div>"
        },
        "status": "active\"",
        "distinctIdentifier": "synderai-generator-50",
        "manufacturer": "SYNDERAI Project"
      }
    },
    {
      "fullUrl": "urn:uuid:1426451e-364f-4b88-a762-cb32a9a8b589",
      "resource": {
        "resourceType": "Provenance",
        "id": "1426451e-364f-4b88-a762-cb32a9a8b589",
        "target": [
          {
            "reference": "Patient/17dea135-c564-487d-a30f-99c72a929133"
          },
          {
            "reference": "Bundle/12708419-13aa-4404-b124-0cbdc2a3550f"
          },
          {
            "reference": "Composition/a2b2ad29-7f06-40c6-bf8f-fb263af756c7"
          },
          {
            "reference": "PractitionerRole/02810682-10d7-4c74-8273-edb2309c4a57"
          },
          {
            "reference": "Practitioner/8d678ac5-f127-4abf-aaa0-9a295a1f5347"
          },
          {
            "reference": "PractitionerRole/d7ee463e-539a-41c3-939d-2ce41bd072fc"
          },
          {
            "reference": "Organization/9bdb9476-ca38-4428-8e15-3e0b83723420"
          }
        ],
        "activity": {
          "text": "Synthetic Example Data Generation"
        },
        "policy": [
          "https://synderai.net/synderai-synthetic-data-policy"
        ],
        "agent": [
          {
            "type": {
              "text": "author"
            },
            "who": {
              "reference": "Device/01cdcea8-727f-4b3a-8e56-25e0dce521ed"
            }
          }
        ],
        "reason": [
          {
            "text": "Interoperability Testing and Training (non-clinical use)"
          }
        ],
        "text": {
          "status": "generated",
          "div": "<div xmlns=\"http://www.w3.org/1999/xhtml\">Provenance for SYNDERAI Synthetic Example Data Resource</div>"
        },
        "recorded": "2016-06-07T19:07:13Z"
      }
    },
    {
      "fullUrl": "urn:uuid:02810682-10d7-4c74-8273-edb2309c4a57",
      "resource": {
        "resourceType": "PractitionerRole",
        "id": "02810682-10d7-4c74-8273-edb2309c4a57",
        "meta": {
          "profile": [
            "http://hl7.eu/fhir/base/StructureDefinition/practitionerRole-eu"
          ]
        },
        "text": {
          "status": "generated",
          "div": "<div xmlns=\"http://www.w3.org/1999/xhtml\">Laboratory Role Id: 02810682-10d7-4c74-8273-edb2309c4a57</div>"
        },
        "practitioner": {
          "reference": "urn:uuid:8d678ac5-f127-4abf-aaa0-9a295a1f5347"
        }
      }
    },
    {
      "fullUrl": "urn:uuid:8d678ac5-f127-4abf-aaa0-9a295a1f5347",
      "resource": {
        "resourceType": "Practitioner",
        "id": "8d678ac5-f127-4abf-aaa0-9a295a1f5347",
        "meta": {
          "profile": [
            "http://hl7.eu/fhir/base/StructureDefinition/practitioner-eu"
          ]
        },
        "identifier": [
          {
            "assigner": {
              "display": "HL7 Europe"
            },
            "system": "urn:oid:2.16.840.1.113883.2.51.999",
            "value": "84fb946d-152d-4f52-9d95-d82b80f5fb18"
          }
        ],
        "name": [
          {
            "prefix": [
              "dr"
            ],
            "given": [
              "Ex"
            ],
            "family": "Ample"
          }
        ],
        "address": [
          {
            "line": [
              "Laboratoire Central Européenne",
              "Boulevard du Jardin Botanique 32"
            ],
            "postalCode": "1000",
            "city": "Brussels",
            "country": "Belgium"
          }
        ],
        "text": {
          "status": "generated",
          "div": "<div xmlns=\"http://www.w3.org/1999/xhtml\">Laboratory: Laboratoire Central Européenne, 1000 Brussels, Belgium</div>"
        }
      }
    }
  ],
  "type": "document",
  "timestamp": "2016-06-07T19:07:13Z"
}
