{
  "resourceType": "Bundle",
  "id": "806d8696-3809-4573-8328-1062ea66f0d3",
  "meta": {
    "profile": [
      "http://hl7.eu/fhir/laboratory/StructureDefinition/Bundle-eu-lab"
    ]
  },
  "identifier": {
    "assigner": {
      "display": "HL7 Europe"
    },
    "system": "urn:oid:2.16.840.1.113883.2.51.999",
    "value": "b9db9ca3-c4e3-4619-b117-6be4f519b28c"
  },
  "entry": [
    {
      "fullUrl": "urn:uuid:aa12b520-8f5c-49e5-b3f9-2815c7c17385",
      "resource": {
        "resourceType": "Composition",
        "id": "aa12b520-8f5c-49e5-b3f9-2815c7c17385",
        "meta": {
          "profile": [
            "http://hl7.eu/fhir/laboratory/StructureDefinition/Composition-eu-lab"
          ]
        },
        "identifier": {
          "assigner": {
            "display": "HL7 Europe"
          },
          "system": "urn:oid:2.16.840.1.113883.2.51.999",
          "value": "6c5629bf-a938-4262-938a-6f9f2c1844e8"
        },
        "author": [
          {
            "reference": "urn:uuid:a7968e03-729e-4549-b42d-0c9dce23490a"
          }
        ],
        "category": [
          {
            "coding": [
              {
                "code": "26436-6",
                "system": "http://loinc.org",
                "display": "Laboratory studies (set)"
              }
            ]
          }
        ],
        "type": {
          "coding": [
            {
              "code": "11502-2",
              "system": "http://loinc.org",
              "display": "Laboratory report"
            }
          ],
          "text": "Laboratory Report"
        },
        "section": [
          {
            "code": {
              "coding": [
                {
                  "code": "26436-6",
                  "system": "http://loinc.org",
                  "display": "Laboratory studies (set)"
                }
              ],
              "text": "Laboratory studies"
            },
            "section": [
              {
                "code": {
                  "coding": [
                    {
                      "code": "$18719-5",
                      "system": "http://loinc.org",
                      "display": "Chemistry studies (set)"
                    }
                  ],
                  "text": "Chemistry"
                },
                "entry": [
                  {
                    "reference": "urn:uuid:7a618e59-2e6f-4a72-b8f0-423cae8281a7"
                  },
                  {
                    "reference": "urn:uuid:f6c93ebb-43bd-47af-bf6f-4f0881f8fd91"
                  },
                  {
                    "reference": "urn:uuid:b94c6b7d-9fda-4ced-8833-36d2f1381711"
                  },
                  {
                    "reference": "urn:uuid:839d1844-8852-4572-9554-4a581bd5805d"
                  },
                  {
                    "reference": "urn:uuid:5cc3d4cb-0b08-4fe6-9531-a9eab05bd116"
                  },
                  {
                    "reference": "urn:uuid:2ef387ae-39de-4ef0-aea7-5c2aed48fd35"
                  },
                  {
                    "reference": "urn:uuid:783f2386-5ddc-45ba-8538-cdb5ff97bc7b"
                  },
                  {
                    "reference": "urn:uuid:382a6e48-38e2-4eb7-9da6-7bb5157145b2"
                  },
                  {
                    "reference": "urn:uuid:5903b625-ca93-4e1f-84cc-faaec641316a"
                  },
                  {
                    "reference": "urn:uuid:0a104043-6c04-4748-9cfd-8b45691fe830"
                  },
                  {
                    "reference": "urn:uuid:7043c970-2af1-4125-b0a3-d7a3cc283c57"
                  },
                  {
                    "reference": "urn:uuid:9f8fe6b3-94df-4611-a09c-07cfed926032"
                  },
                  {
                    "reference": "urn:uuid:21f89174-3d73-4e4c-9021-db88d65a8256"
                  },
                  {
                    "reference": "urn:uuid:67b96089-17dd-4571-b37b-25a690857bb4"
                  }
                ],
                "text": {
                  "status": "generated",
                  "div": "<div xmlns=\"http://www.w3.org/1999/xhtml\"><h3>Chemistry</h3><table class=\"hl7__eu__lab__report\"><thead><tr><th>Test</th><th>13-MAR-2018</th><th>Reference&#xA0;Range</th><th>Unit</th></tr></thead><tbody><tr><td>Hemoglobin A1c/Hemoglobin.total in Blood</td><td><strong>7.0 H</strong></td><td>4.6 - 6</td><td>%</td></tr><tr><td>Glucose [Mass/volume] in Blood</td><td><strong>114.6 H</strong></td><td>70 - 99</td><td>mg/dL</td></tr><tr><td>Urea nitrogen [Mass/volume] in Blood</td><td>13.5</td><td>7 - 50</td><td>mg/dL</td></tr><tr><td>Creatinine [Mass/volume] in Blood</td><td>1.1</td><td>0.9 - 1.3</td><td>mg/dL</td></tr><tr><td>Calcium [Mass/volume] in Blood</td><td>9.6</td><td>8.5 - 10.5</td><td>mg/dL</td></tr><tr><td>Sodium [Moles/volume] in Blood</td><td>138.4</td><td>135 - 145</td><td>mmol/L</td></tr><tr><td>Potassium [Moles/volume] in Blood</td><td>5.0</td><td>3.5 - 5.1</td><td>mmol/L</td></tr><tr><td>Chloride [Moles/volume] in Blood</td><td>103.9</td><td>98 - 114</td><td>mmol/L</td></tr><tr><td>Carbon dioxide, total [Moles/volume] in Blood</td><td>28.7</td><td>22 - 32</td><td>mmol/L</td></tr><tr><td>Cholesterol [Mass/volume] in Serum or Plasma</td><td><strong>232.5 H</strong></td><td>125 - 200</td><td>mg/dL</td></tr><tr><td>Triglyceride [Mass/volume] in Serum or Plasma</td><td><strong>154.0 H</strong></td><td>0 - 150</td><td>mg/dL</td></tr><tr><td>Cholesterol in LDL [Mass/volume] in Serum or Plasma by Direct assay</td><td><strong>156.2 H</strong></td><td>0 - 130</td><td>mg/dL</td></tr><tr><td>Cholesterol in HDL [Mass/volume] in Serum or Plasma</td><td>45.4</td><td>40 - 60</td><td>mg/dL</td></tr><tr><td>Microalbumin/Creatinine [Mass Ratio] in Urine</td><td>3.7</td><td>0 - 30</td><td>mg/g</td></tr></tbody></table></div>"
                },
                "title": "Chemistry"
              }
            ],
            "title": "Laboratory Report"
          },
          {
            "text": {
              "status": "generated",
              "div": "<div xmlns=\"http://www.w3.org/1999/xhtml\"><h3>Annotation</h3><table class=\"hl7__eu__lab__report\"><tr><th>Conclusion and Recommendations based on this report and previous findings known to us</th></tr><tr><td>The results indicate poor glycemic control (elevated HbA1c and fasting glucose), and dyslipidemia (high total cholesterol, LDL, and triglycerides). Renal function, electrolytes, and microalbumin/creatinine ratio are within normal limits. Recommend clinical follow-up for diabetes and cardiovascular risk management.</td></tr></table></div>"
            },
            "code": {
              "coding": [
                {
                  "system": "http://loinc.org",
                  "code": "48767-8",
                  "display": "Annotation comment"
                }
              ]
            },
            "title": "Annotation comment"
          }
        ],
        "status": "final",
        "subject": {
          "reference": "urn:uuid:e53da455-0049-4dc6-83b9-93592beccd37",
          "display": "Roy Harrison"
        },
        "date": "2018-03-13T03:49:43Z",
        "title": "Laboratory Report",
        "confidentiality": "N"
      }
    },
    {
      "fullUrl": "urn:uuid:16bee349-756c-4f2a-ba27-e358aab487c7",
      "resource": {
        "resourceType": "DiagnosticReport",
        "id": "16bee349-756c-4f2a-ba27-e358aab487c7",
        "meta": {
          "profile": [
            "http://hl7.eu/fhir/laboratory/StructureDefinition/DiagnosticReport-eu-lab"
          ]
        },
        "identifier": [
          {
            "assigner": {
              "display": "HL7 Europe"
            },
            "system": "urn:oid:2.16.840.1.113883.2.51.999",
            "value": "815b56ea-3157-46bd-bf59-c798684d4869"
          }
        ],
        "extension": [
          {
            "url": "http://hl7.org/fhir/5.0/StructureDefinition/extension-DiagnosticReport.composition",
            "valueReference": {
              "reference": "urn:uuid:6c5629bf-a938-4262-938a-6f9f2c1844e8"
            }
          }
        ],
        "category": [
          {
            "coding": [
              {
                "code": "26436-6",
                "system": "http://loinc.org",
                "display": "Laboratory studies (set)"
              }
            ]
          }
        ],
        "specimen": [
          {
            "reference": "urn:uuid:3ec42443-e9a6-4948-978a-596de3503dbd"
          },
          {
            "reference": "urn:uuid:ec34bfe5-05e1-41b6-b397-624faa85eb27"
          },
          {
            "reference": "urn:uuid:73ef8408-048a-450b-881b-9f63171dedbc"
          }
        ],
        "result": [
          {
            "reference": "urn:uuid:7a618e59-2e6f-4a72-b8f0-423cae8281a7"
          },
          {
            "reference": "urn:uuid:f6c93ebb-43bd-47af-bf6f-4f0881f8fd91"
          },
          {
            "reference": "urn:uuid:b94c6b7d-9fda-4ced-8833-36d2f1381711"
          },
          {
            "reference": "urn:uuid:839d1844-8852-4572-9554-4a581bd5805d"
          },
          {
            "reference": "urn:uuid:5cc3d4cb-0b08-4fe6-9531-a9eab05bd116"
          },
          {
            "reference": "urn:uuid:2ef387ae-39de-4ef0-aea7-5c2aed48fd35"
          },
          {
            "reference": "urn:uuid:783f2386-5ddc-45ba-8538-cdb5ff97bc7b"
          },
          {
            "reference": "urn:uuid:382a6e48-38e2-4eb7-9da6-7bb5157145b2"
          },
          {
            "reference": "urn:uuid:5903b625-ca93-4e1f-84cc-faaec641316a"
          },
          {
            "reference": "urn:uuid:0a104043-6c04-4748-9cfd-8b45691fe830"
          },
          {
            "reference": "urn:uuid:7043c970-2af1-4125-b0a3-d7a3cc283c57"
          },
          {
            "reference": "urn:uuid:9f8fe6b3-94df-4611-a09c-07cfed926032"
          },
          {
            "reference": "urn:uuid:21f89174-3d73-4e4c-9021-db88d65a8256"
          },
          {
            "reference": "urn:uuid:67b96089-17dd-4571-b37b-25a690857bb4"
          }
        ],
        "status": "registered",
        "code": {
          "coding": [
            {
              "code": "11502-2",
              "system": "http://loinc.org",
              "display": "Laboratory report"
            }
          ]
        },
        "subject": {
          "reference": "urn:uuid:e53da455-0049-4dc6-83b9-93592beccd37",
          "display": "Roy Harrison"
        }
      }
    },
    {
      "fullUrl": "urn:uuid:e53da455-0049-4dc6-83b9-93592beccd37",
      "resource": {
        "resourceType": "Patient",
        "id": "e53da455-0049-4dc6-83b9-93592beccd37",
        "meta": {
          "security": [
            {
              "system": "http://terminology.hl7.org/CodeSystem/v3-ActReason",
              "code": "HTEST"
            },
            {
              "system": "http://terminology.hl7.org/CodeSystem/v3-ActReason",
              "code": "TRAIN"
            }
          ],
          "tag": [
            {
              "system": "https://synderai.net/fhir/CodeSystem/tags",
              "code": "synthetic",
              "display": "SYNDERAI Synthetic data"
            }
          ],
          "profile": [
            "http://hl7.eu/fhir/base/StructureDefinition/patient-eu-core"
          ]
        },
        "identifier": [
          {
            "type": {
              "coding": [
                {
                  "code": "PT",
                  "system": "http://terminology.hl7.org/CodeSystem/v2-0203"
                }
              ]
            },
            "system": "http://ec.europa.eu/identifier/eci",
            "value": "7093-553922-4"
          },
          {
            "type": {
              "coding": [
                {
                  "code": "MR",
                  "system": "http://terminology.hl7.org/CodeSystem/v2-0203"
                }
              ]
            },
            "system": "http://local.setting.eu/identifier",
            "value": "42633ccd-9ef5-6a00-b7c9-353a9679bf2b"
          }
        ],
        "name": [
          {
            "family": "Harrison"
          },
          {
            "given": [
              "Roy"
            ]
          },
          {
            "text": "Roy Harrison"
          }
        ],
        "address": [
          {
            "line": [
              "Flat 4",
              "Dyer route"
            ],
            "use": "home",
            "type": "physical",
            "postalCode": "BA1",
            "city": "Baileyville",
            "country": "United Kingdom"
          }
        ],
        "telecom": [
          {
            "system": "phone",
            "value": "01632960974"
          }
        ],
        "extension": [
          {
            "url": "http://hl7.org/fhir/StructureDefinition/patient-nationality",
            "valueCodeableConcept": {
              "coding": [
                {
                  "code": "GB",
                  "system": "http://hl7.org/fhir/ValueSet/country"
                }
              ]
            }
          }
        ],
        "text": {
          "status": "generated",
          "div": "<div xmlns=\"http://www.w3.org/1999/xhtml\"><table class=\"hl7__ips\"><tr><td>Roy Harrison</td><td>male</td><td>02-Oct-1969</td></tr></table></div>"
        },
        "gender": "male",
        "birthDate": "1969-10-02"
      }
    },
    {
      "fullUrl": "urn:uuid:e057b5aa-ca80-4451-a40a-fa05433fb5ca",
      "resource": {
        "resourceType": "ServiceRequest",
        "id": "e057b5aa-ca80-4451-a40a-fa05433fb5ca",
        "meta": {
          "profile": [
            "http://hl7.eu/fhir/laboratory/StructureDefinition/ServiceRequest-eu-lab"
          ]
        },
        "identifier": [
          {
            "system": "http://example.org",
            "value": "8aaab3a8-bbbd-476d-a148-40e6f95818c7"
          }
        ],
        "specimen": [
          {
            "reference": "urn:uuid:3ec42443-e9a6-4948-978a-596de3503dbd"
          },
          {
            "reference": "urn:uuid:ec34bfe5-05e1-41b6-b397-624faa85eb27"
          },
          {
            "reference": "urn:uuid:73ef8408-048a-450b-881b-9f63171dedbc"
          }
        ],
        "reasonCode": [
          {
            "coding": [
              {
                "code": "302870006",
                "system": "http://snomed.info/sct",
                "display": "Hypertriglyceridemia"
              }
            ]
          },
          {
            "coding": [
              {
                "code": "44054006",
                "system": "http://snomed.info/sct",
                "display": "Type 2 diabetes mellitus"
              }
            ]
          },
          {
            "coding": [
              {
                "code": "59621000",
                "system": "http://snomed.info/sct",
                "display": "Essential hypertension"
              }
            ]
          },
          {
            "coding": [
              {
                "code": "237602007",
                "system": "http://snomed.info/sct",
                "display": "Metabolic syndrome X"
              }
            ]
          },
          {
            "coding": [
              {
                "code": "271737000",
                "system": "http://snomed.info/sct",
                "display": "Anemia"
              }
            ]
          },
          {
            "coding": [
              {
                "code": "90560007",
                "system": "http://snomed.info/sct",
                "display": "Gout"
              }
            ]
          }
        ],
        "status": "active",
        "intent": "order",
        "code": {
          "coding": [
            {
              "code": "108252007",
              "system": "http://snomed.info/sct",
              "display": "Laboratory procedure"
            }
          ]
        },
        "subject": {
          "reference": "urn:uuid:e53da455-0049-4dc6-83b9-93592beccd37",
          "display": "Roy Harrison"
        },
        "requester": {
          "reference": "urn:uuid:5bb6a041-c958-4f7e-8f71-d72dad385ff0"
        }
      }
    },
    {
      "fullUrl": "urn:uuid:5bb6a041-c958-4f7e-8f71-d72dad385ff0",
      "resource": {
        "resourceType": "PractitionerRole",
        "id": "5bb6a041-c958-4f7e-8f71-d72dad385ff0",
        "meta": {
          "profile": [
            "http://hl7.eu/fhir/base/StructureDefinition/practitionerRole-eu"
          ]
        },
        "text": {
          "status": "generated",
          "div": "<div xmlns=\"http://www.w3.org/1999/xhtml\">Provider Role Id: 5bb6a041-c958-4f7e-8f71-d72dad385ff0</div>"
        },
        "organization": {
          "reference": "urn:uuid:164fc609-a62c-4b3f-9cca-c5120ec0e278"
        }
      }
    },
    {
      "fullUrl": "urn:uuid:164fc609-a62c-4b3f-9cca-c5120ec0e278",
      "resource": {
        "resourceType": "Organization",
        "id": "164fc609-a62c-4b3f-9cca-c5120ec0e278",
        "meta": {
          "profile": [
            "http://hl7.eu/fhir/base/StructureDefinition/organization-eu"
          ]
        },
        "identifier": [
          {
            "assigner": {
              "display": "HL7 Europe"
            },
            "system": "urn:oid:2.16.840.1.113883.2.51.999",
            "value": "39f33d13-4ee8-49f9-8384-be043b9daf6c"
          }
        ],
        "address": [
          {
            "city": "London",
            "postalCode": "SE1 7",
            "country": "United Kingdom"
          }
        ],
        "text": {
          "status": "generated",
          "div": "<div xmlns=\"http://www.w3.org/1999/xhtml\">Provider Organization: Evelina Children&#039;s Hospital</div>"
        },
        "name": "Evelina Children&#039;s Hospital"
      }
    },
    {
      "fullUrl": "urn:uuid:3ec42443-e9a6-4948-978a-596de3503dbd",
      "resource": {
        "resourceType": "Specimen",
        "id": "3ec42443-e9a6-4948-978a-596de3503dbd",
        "meta": {
          "profile": [
            "http://hl7.eu/fhir/laboratory/StructureDefinition/Specimen-eu-lab"
          ]
        },
        "collection": {
          "collectedDateTime": "2018-03-13"
        },
        "text": {
          "status": "generated",
          "div": "<div xmlns=\"http://www.w3.org/1999/xhtml\"><table class=\"hl7__eu__lab__report\"><tr><th>Specimen</th><th>Collection Date</th></tr><tr><td>Whole blood specimen (specimen)</td><td><span class=\"nb\">13-Mar-2018</span></td></tr></table></div>"
        },
        "type": {
          "coding": [
            {
              "code": "258580003",
              "system": "http://snomed.info/sct",
              "display": "Whole blood specimen (specimen)"
            }
          ]
        }
      }
    },
    {
      "fullUrl": "urn:uuid:ec34bfe5-05e1-41b6-b397-624faa85eb27",
      "resource": {
        "resourceType": "Specimen",
        "id": "ec34bfe5-05e1-41b6-b397-624faa85eb27",
        "meta": {
          "profile": [
            "http://hl7.eu/fhir/laboratory/StructureDefinition/Specimen-eu-lab"
          ]
        },
        "collection": {
          "collectedDateTime": "2018-03-13"
        },
        "text": {
          "status": "generated",
          "div": "<div xmlns=\"http://www.w3.org/1999/xhtml\"><table class=\"hl7__eu__lab__report\"><tr><th>Specimen</th><th>Collection Date</th></tr><tr><td>Acellular blood (serum or plasma) specimen</td><td><span class=\"nb\">13-Mar-2018</span></td></tr></table></div>"
        },
        "type": {
          "coding": [
            {
              "code": "122592007",
              "system": "http://snomed.info/sct",
              "display": "Acellular blood (serum or plasma) specimen"
            }
          ]
        }
      }
    },
    {
      "fullUrl": "urn:uuid:73ef8408-048a-450b-881b-9f63171dedbc",
      "resource": {
        "resourceType": "Specimen",
        "id": "73ef8408-048a-450b-881b-9f63171dedbc",
        "meta": {
          "profile": [
            "http://hl7.eu/fhir/laboratory/StructureDefinition/Specimen-eu-lab"
          ]
        },
        "collection": {
          "collectedDateTime": "2018-03-13"
        },
        "text": {
          "status": "generated",
          "div": "<div xmlns=\"http://www.w3.org/1999/xhtml\"><table class=\"hl7__eu__lab__report\"><tr><th>Specimen</th><th>Collection Date</th></tr><tr><td>Urine specimen</td><td><span class=\"nb\">13-Mar-2018</span></td></tr></table></div>"
        },
        "type": {
          "coding": [
            {
              "code": "122575003",
              "system": "http://snomed.info/sct",
              "display": "Urine specimen"
            }
          ]
        }
      }
    },
    {
      "fullUrl": "urn:uuid:7a618e59-2e6f-4a72-b8f0-423cae8281a7",
      "resource": {
        "resourceType": "Observation",
        "id": "7a618e59-2e6f-4a72-b8f0-423cae8281a7",
        "meta": {
          "profile": [
            "http://hl7.eu/fhir/laboratory/StructureDefinition/Observation-resultslab-eu-lab"
          ]
        },
        "performer": [
          {
            "display": "The Central European Lab"
          }
        ],
        "category": [
          {
            "coding": [
              {
                "system": "http://terminology.hl7.org/CodeSystem/observation-category",
                "code": "laboratory"
              }
            ]
          }
        ],
        "code": {
          "coding": [
            {
              "code": "4548-4",
              "system": "http://loinc.org",
              "display": "Hemoglobin A1c/Hemoglobin.total in Blood"
            }
          ],
          "text": "Hemoglobin A1c/Hemoglobin.total in Blood"
        },
        "valueQuantity": {
          "system": "http://unitsofmeasure.org",
          "value": 7,
          "unit": "%",
          "code": "%"
        },
        "referenceRange": [
          {
            "low": {
              "value": 4.6,
              "code": "%",
              "system": "http://unitsofmeasure.org"
            }
          },
          {
            "high": {
              "value": 6,
              "code": "%",
              "system": "http://unitsofmeasure.org"
            }
          }
        ],
        "interpretation": [
          {
            "coding": [
              {
                "code": "H",
                "system": "http://terminology.hl7.org/CodeSystem/v3-ObservationInterpretation",
                "display": "High"
              }
            ]
          }
        ],
        "text": {
          "status": "generated",
          "div": "<div xmlns=\"http://www.w3.org/1999/xhtml\"><table class=\"hl7__eu__lab__report\"><tr><th>Test</th><th>13-Mar-2018</th><th>Reference&#xA0;Range</th><th>Unit</th></tr><tr><td>Hemoglobin A1c/Hemoglobin.total in Blood</td><td>7.0</td><td>4.6 - 6</td><td>H</td><td>%</td></tr></table></div>"
        },
        "status": "final",
        "subject": {
          "reference": "urn:uuid:e53da455-0049-4dc6-83b9-93592beccd37",
          "display": "Roy Harrison"
        },
        "effectiveDateTime": "2018-03-13T02:49:43Z",
        "specimen": {
          "reference": "urn:uuid:3ec42443-e9a6-4948-978a-596de3503dbd"
        }
      }
    },
    {
      "fullUrl": "urn:uuid:f6c93ebb-43bd-47af-bf6f-4f0881f8fd91",
      "resource": {
        "resourceType": "Observation",
        "id": "f6c93ebb-43bd-47af-bf6f-4f0881f8fd91",
        "meta": {
          "profile": [
            "http://hl7.eu/fhir/laboratory/StructureDefinition/Observation-resultslab-eu-lab"
          ]
        },
        "performer": [
          {
            "display": "The Central European Lab"
          }
        ],
        "category": [
          {
            "coding": [
              {
                "system": "http://terminology.hl7.org/CodeSystem/observation-category",
                "code": "laboratory"
              }
            ]
          }
        ],
        "code": {
          "coding": [
            {
              "code": "2339-0",
              "system": "http://loinc.org",
              "display": "Glucose [Mass/volume] in Blood"
            }
          ],
          "text": "Glucose [Mass/volume] in Blood"
        },
        "valueQuantity": {
          "system": "http://unitsofmeasure.org",
          "value": 114.6,
          "unit": "mg/dL",
          "code": "mg/dL"
        },
        "referenceRange": [
          {
            "low": {
              "value": 70,
              "code": "mg/dL",
              "system": "http://unitsofmeasure.org"
            }
          },
          {
            "high": {
              "value": 99,
              "code": "mg/dL",
              "system": "http://unitsofmeasure.org"
            }
          }
        ],
        "interpretation": [
          {
            "coding": [
              {
                "code": "H",
                "system": "http://terminology.hl7.org/CodeSystem/v3-ObservationInterpretation",
                "display": "High"
              }
            ]
          }
        ],
        "text": {
          "status": "generated",
          "div": "<div xmlns=\"http://www.w3.org/1999/xhtml\"><table class=\"hl7__eu__lab__report\"><tr><th>Test</th><th>13-Mar-2018</th><th>Reference&#xA0;Range</th><th>Unit</th></tr><tr><td>Glucose [Mass/volume] in Blood</td><td>114.6</td><td>70 - 99</td><td>H</td><td>mg/dL</td></tr></table></div>"
        },
        "status": "final",
        "subject": {
          "reference": "urn:uuid:e53da455-0049-4dc6-83b9-93592beccd37",
          "display": "Roy Harrison"
        },
        "effectiveDateTime": "2018-03-13T02:49:43Z",
        "specimen": {
          "reference": "urn:uuid:3ec42443-e9a6-4948-978a-596de3503dbd"
        }
      }
    },
    {
      "fullUrl": "urn:uuid:b94c6b7d-9fda-4ced-8833-36d2f1381711",
      "resource": {
        "resourceType": "Observation",
        "id": "b94c6b7d-9fda-4ced-8833-36d2f1381711",
        "meta": {
          "profile": [
            "http://hl7.eu/fhir/laboratory/StructureDefinition/Observation-resultslab-eu-lab"
          ]
        },
        "performer": [
          {
            "display": "The Central European Lab"
          }
        ],
        "category": [
          {
            "coding": [
              {
                "system": "http://terminology.hl7.org/CodeSystem/observation-category",
                "code": "laboratory"
              }
            ]
          }
        ],
        "code": {
          "coding": [
            {
              "code": "6299-2",
              "system": "http://loinc.org",
              "display": "Urea nitrogen [Mass/volume] in Blood"
            }
          ],
          "text": "Urea nitrogen [Mass/volume] in Blood"
        },
        "valueQuantity": {
          "system": "http://unitsofmeasure.org",
          "value": 13.5,
          "unit": "mg/dL",
          "code": "mg/dL"
        },
        "referenceRange": [
          {
            "low": {
              "value": 7,
              "code": "mg/dL",
              "system": "http://unitsofmeasure.org"
            }
          },
          {
            "high": {
              "value": 50,
              "code": "mg/dL",
              "system": "http://unitsofmeasure.org"
            }
          }
        ],
        "text": {
          "status": "generated",
          "div": "<div xmlns=\"http://www.w3.org/1999/xhtml\"><table class=\"hl7__eu__lab__report\"><tr><th>Test</th><th>13-Mar-2018</th><th>Reference&#xA0;Range</th><th>Unit</th></tr><tr><td>Urea nitrogen [Mass/volume] in Blood</td><td>13.5</td><td>7 - 50</td><td></td><td>mg/dL</td></tr></table></div>"
        },
        "status": "final",
        "subject": {
          "reference": "urn:uuid:e53da455-0049-4dc6-83b9-93592beccd37",
          "display": "Roy Harrison"
        },
        "effectiveDateTime": "2018-03-13T02:49:43Z",
        "specimen": {
          "reference": "urn:uuid:3ec42443-e9a6-4948-978a-596de3503dbd"
        }
      }
    },
    {
      "fullUrl": "urn:uuid:839d1844-8852-4572-9554-4a581bd5805d",
      "resource": {
        "resourceType": "Observation",
        "id": "839d1844-8852-4572-9554-4a581bd5805d",
        "meta": {
          "profile": [
            "http://hl7.eu/fhir/laboratory/StructureDefinition/Observation-resultslab-eu-lab"
          ]
        },
        "performer": [
          {
            "display": "The Central European Lab"
          }
        ],
        "category": [
          {
            "coding": [
              {
                "system": "http://terminology.hl7.org/CodeSystem/observation-category",
                "code": "laboratory"
              }
            ]
          }
        ],
        "code": {
          "coding": [
            {
              "code": "38483-4",
              "system": "http://loinc.org",
              "display": "Creatinine [Mass/volume] in Blood"
            }
          ],
          "text": "Creatinine [Mass/volume] in Blood"
        },
        "valueQuantity": {
          "system": "http://unitsofmeasure.org",
          "value": 1.1,
          "unit": "mg/dL",
          "code": "mg/dL"
        },
        "referenceRange": [
          {
            "low": {
              "value": 0.9,
              "code": "mg/dL",
              "system": "http://unitsofmeasure.org"
            }
          },
          {
            "high": {
              "value": 1.3,
              "code": "mg/dL",
              "system": "http://unitsofmeasure.org"
            }
          }
        ],
        "text": {
          "status": "generated",
          "div": "<div xmlns=\"http://www.w3.org/1999/xhtml\"><table class=\"hl7__eu__lab__report\"><tr><th>Test</th><th>13-Mar-2018</th><th>Reference&#xA0;Range</th><th>Unit</th></tr><tr><td>Creatinine [Mass/volume] in Blood</td><td>1.1</td><td>0.9 - 1.3</td><td></td><td>mg/dL</td></tr></table></div>"
        },
        "status": "final",
        "subject": {
          "reference": "urn:uuid:e53da455-0049-4dc6-83b9-93592beccd37",
          "display": "Roy Harrison"
        },
        "effectiveDateTime": "2018-03-13T02:49:43Z",
        "specimen": {
          "reference": "urn:uuid:3ec42443-e9a6-4948-978a-596de3503dbd"
        }
      }
    },
    {
      "fullUrl": "urn:uuid:5cc3d4cb-0b08-4fe6-9531-a9eab05bd116",
      "resource": {
        "resourceType": "Observation",
        "id": "5cc3d4cb-0b08-4fe6-9531-a9eab05bd116",
        "meta": {
          "profile": [
            "http://hl7.eu/fhir/laboratory/StructureDefinition/Observation-resultslab-eu-lab"
          ]
        },
        "performer": [
          {
            "display": "The Central European Lab"
          }
        ],
        "category": [
          {
            "coding": [
              {
                "system": "http://terminology.hl7.org/CodeSystem/observation-category",
                "code": "laboratory"
              }
            ]
          }
        ],
        "code": {
          "coding": [
            {
              "code": "49765-1",
              "system": "http://loinc.org",
              "display": "Calcium [Mass/volume] in Blood"
            }
          ],
          "text": "Calcium [Mass/volume] in Blood"
        },
        "valueQuantity": {
          "system": "http://unitsofmeasure.org",
          "value": 9.6,
          "unit": "mg/dL",
          "code": "mg/dL"
        },
        "referenceRange": [
          {
            "low": {
              "value": 8.5,
              "code": "mg/dL",
              "system": "http://unitsofmeasure.org"
            }
          },
          {
            "high": {
              "value": 10.5,
              "code": "mg/dL",
              "system": "http://unitsofmeasure.org"
            }
          }
        ],
        "text": {
          "status": "generated",
          "div": "<div xmlns=\"http://www.w3.org/1999/xhtml\"><table class=\"hl7__eu__lab__report\"><tr><th>Test</th><th>13-Mar-2018</th><th>Reference&#xA0;Range</th><th>Unit</th></tr><tr><td>Calcium [Mass/volume] in Blood</td><td>9.6</td><td>8.5 - 10.5</td><td></td><td>mg/dL</td></tr></table></div>"
        },
        "status": "final",
        "subject": {
          "reference": "urn:uuid:e53da455-0049-4dc6-83b9-93592beccd37",
          "display": "Roy Harrison"
        },
        "effectiveDateTime": "2018-03-13T02:49:43Z",
        "specimen": {
          "reference": "urn:uuid:3ec42443-e9a6-4948-978a-596de3503dbd"
        }
      }
    },
    {
      "fullUrl": "urn:uuid:2ef387ae-39de-4ef0-aea7-5c2aed48fd35",
      "resource": {
        "resourceType": "Observation",
        "id": "2ef387ae-39de-4ef0-aea7-5c2aed48fd35",
        "meta": {
          "profile": [
            "http://hl7.eu/fhir/laboratory/StructureDefinition/Observation-resultslab-eu-lab"
          ]
        },
        "performer": [
          {
            "display": "The Central European Lab"
          }
        ],
        "category": [
          {
            "coding": [
              {
                "system": "http://terminology.hl7.org/CodeSystem/observation-category",
                "code": "laboratory"
              }
            ]
          }
        ],
        "code": {
          "coding": [
            {
              "code": "2947-0",
              "system": "http://loinc.org",
              "display": "Sodium [Moles/volume] in Blood"
            }
          ],
          "text": "Sodium [Moles/volume] in Blood"
        },
        "valueQuantity": {
          "system": "http://unitsofmeasure.org",
          "value": 138.4,
          "unit": "mmol/L",
          "code": "mmol/L"
        },
        "referenceRange": [
          {
            "low": {
              "value": 135,
              "code": "mmol/L",
              "system": "http://unitsofmeasure.org"
            }
          },
          {
            "high": {
              "value": 145,
              "code": "mmol/L",
              "system": "http://unitsofmeasure.org"
            }
          }
        ],
        "text": {
          "status": "generated",
          "div": "<div xmlns=\"http://www.w3.org/1999/xhtml\"><table class=\"hl7__eu__lab__report\"><tr><th>Test</th><th>13-Mar-2018</th><th>Reference&#xA0;Range</th><th>Unit</th></tr><tr><td>Sodium [Moles/volume] in Blood</td><td>138.4</td><td>135 - 145</td><td></td><td>mmol/L</td></tr></table></div>"
        },
        "status": "final",
        "subject": {
          "reference": "urn:uuid:e53da455-0049-4dc6-83b9-93592beccd37",
          "display": "Roy Harrison"
        },
        "effectiveDateTime": "2018-03-13T02:49:43Z",
        "specimen": {
          "reference": "urn:uuid:3ec42443-e9a6-4948-978a-596de3503dbd"
        }
      }
    },
    {
      "fullUrl": "urn:uuid:783f2386-5ddc-45ba-8538-cdb5ff97bc7b",
      "resource": {
        "resourceType": "Observation",
        "id": "783f2386-5ddc-45ba-8538-cdb5ff97bc7b",
        "meta": {
          "profile": [
            "http://hl7.eu/fhir/laboratory/StructureDefinition/Observation-resultslab-eu-lab"
          ]
        },
        "performer": [
          {
            "display": "The Central European Lab"
          }
        ],
        "category": [
          {
            "coding": [
              {
                "system": "http://terminology.hl7.org/CodeSystem/observation-category",
                "code": "laboratory"
              }
            ]
          }
        ],
        "code": {
          "coding": [
            {
              "code": "6298-4",
              "system": "http://loinc.org",
              "display": "Potassium [Moles/volume] in Blood"
            }
          ],
          "text": "Potassium [Moles/volume] in Blood"
        },
        "valueQuantity": {
          "system": "http://unitsofmeasure.org",
          "value": 5,
          "unit": "mmol/L",
          "code": "mmol/L"
        },
        "referenceRange": [
          {
            "low": {
              "value": 3.5,
              "code": "mmol/L",
              "system": "http://unitsofmeasure.org"
            }
          },
          {
            "high": {
              "value": 5.1,
              "code": "mmol/L",
              "system": "http://unitsofmeasure.org"
            }
          }
        ],
        "text": {
          "status": "generated",
          "div": "<div xmlns=\"http://www.w3.org/1999/xhtml\"><table class=\"hl7__eu__lab__report\"><tr><th>Test</th><th>13-Mar-2018</th><th>Reference&#xA0;Range</th><th>Unit</th></tr><tr><td>Potassium [Moles/volume] in Blood</td><td>5.0</td><td>3.5 - 5.1</td><td></td><td>mmol/L</td></tr></table></div>"
        },
        "status": "final",
        "subject": {
          "reference": "urn:uuid:e53da455-0049-4dc6-83b9-93592beccd37",
          "display": "Roy Harrison"
        },
        "effectiveDateTime": "2018-03-13T02:49:43Z",
        "specimen": {
          "reference": "urn:uuid:3ec42443-e9a6-4948-978a-596de3503dbd"
        }
      }
    },
    {
      "fullUrl": "urn:uuid:382a6e48-38e2-4eb7-9da6-7bb5157145b2",
      "resource": {
        "resourceType": "Observation",
        "id": "382a6e48-38e2-4eb7-9da6-7bb5157145b2",
        "meta": {
          "profile": [
            "http://hl7.eu/fhir/laboratory/StructureDefinition/Observation-resultslab-eu-lab"
          ]
        },
        "performer": [
          {
            "display": "The Central European Lab"
          }
        ],
        "category": [
          {
            "coding": [
              {
                "system": "http://terminology.hl7.org/CodeSystem/observation-category",
                "code": "laboratory"
              }
            ]
          }
        ],
        "code": {
          "coding": [
            {
              "code": "2069-3",
              "system": "http://loinc.org",
              "display": "Chloride [Moles/volume] in Blood"
            }
          ],
          "text": "Chloride [Moles/volume] in Blood"
        },
        "valueQuantity": {
          "system": "http://unitsofmeasure.org",
          "value": 103.9,
          "unit": "mmol/L",
          "code": "mmol/L"
        },
        "referenceRange": [
          {
            "low": {
              "value": 98,
              "code": "mmol/L",
              "system": "http://unitsofmeasure.org"
            }
          },
          {
            "high": {
              "value": 114,
              "code": "mmol/L",
              "system": "http://unitsofmeasure.org"
            }
          }
        ],
        "text": {
          "status": "generated",
          "div": "<div xmlns=\"http://www.w3.org/1999/xhtml\"><table class=\"hl7__eu__lab__report\"><tr><th>Test</th><th>13-Mar-2018</th><th>Reference&#xA0;Range</th><th>Unit</th></tr><tr><td>Chloride [Moles/volume] in Blood</td><td>103.9</td><td>98 - 114</td><td></td><td>mmol/L</td></tr></table></div>"
        },
        "status": "final",
        "subject": {
          "reference": "urn:uuid:e53da455-0049-4dc6-83b9-93592beccd37",
          "display": "Roy Harrison"
        },
        "effectiveDateTime": "2018-03-13T02:49:43Z",
        "specimen": {
          "reference": "urn:uuid:3ec42443-e9a6-4948-978a-596de3503dbd"
        }
      }
    },
    {
      "fullUrl": "urn:uuid:5903b625-ca93-4e1f-84cc-faaec641316a",
      "resource": {
        "resourceType": "Observation",
        "id": "5903b625-ca93-4e1f-84cc-faaec641316a",
        "meta": {
          "profile": [
            "http://hl7.eu/fhir/laboratory/StructureDefinition/Observation-resultslab-eu-lab"
          ]
        },
        "performer": [
          {
            "display": "The Central European Lab"
          }
        ],
        "category": [
          {
            "coding": [
              {
                "system": "http://terminology.hl7.org/CodeSystem/observation-category",
                "code": "laboratory"
              }
            ]
          }
        ],
        "code": {
          "coding": [
            {
              "code": "20565-8",
              "system": "http://loinc.org",
              "display": "Carbon dioxide, total [Moles/volume] in Blood"
            }
          ],
          "text": "Carbon dioxide, total [Moles/volume] in Blood"
        },
        "valueQuantity": {
          "system": "http://unitsofmeasure.org",
          "value": 28.7,
          "unit": "mmol/L",
          "code": "mmol/L"
        },
        "referenceRange": [
          {
            "low": {
              "value": 22,
              "code": "mmol/L",
              "system": "http://unitsofmeasure.org"
            }
          },
          {
            "high": {
              "value": 32,
              "code": "mmol/L",
              "system": "http://unitsofmeasure.org"
            }
          }
        ],
        "text": {
          "status": "generated",
          "div": "<div xmlns=\"http://www.w3.org/1999/xhtml\"><table class=\"hl7__eu__lab__report\"><tr><th>Test</th><th>13-Mar-2018</th><th>Reference&#xA0;Range</th><th>Unit</th></tr><tr><td>Carbon dioxide, total [Moles/volume] in Blood</td><td>28.7</td><td>22 - 32</td><td></td><td>mmol/L</td></tr></table></div>"
        },
        "status": "final",
        "subject": {
          "reference": "urn:uuid:e53da455-0049-4dc6-83b9-93592beccd37",
          "display": "Roy Harrison"
        },
        "effectiveDateTime": "2018-03-13T02:49:43Z",
        "specimen": {
          "reference": "urn:uuid:3ec42443-e9a6-4948-978a-596de3503dbd"
        }
      }
    },
    {
      "fullUrl": "urn:uuid:0a104043-6c04-4748-9cfd-8b45691fe830",
      "resource": {
        "resourceType": "Observation",
        "id": "0a104043-6c04-4748-9cfd-8b45691fe830",
        "meta": {
          "profile": [
            "http://hl7.eu/fhir/laboratory/StructureDefinition/Observation-resultslab-eu-lab"
          ]
        },
        "performer": [
          {
            "display": "The Central European Lab"
          }
        ],
        "category": [
          {
            "coding": [
              {
                "system": "http://terminology.hl7.org/CodeSystem/observation-category",
                "code": "laboratory"
              }
            ]
          }
        ],
        "code": {
          "coding": [
            {
              "code": "2093-3",
              "system": "http://loinc.org",
              "display": "Cholesterol [Mass/volume] in Serum or Plasma"
            }
          ],
          "text": "Cholesterol [Mass/volume] in Serum or Plasma"
        },
        "valueQuantity": {
          "system": "http://unitsofmeasure.org",
          "value": 232.5,
          "unit": "mg/dL",
          "code": "mg/dL"
        },
        "referenceRange": [
          {
            "low": {
              "value": 125,
              "code": "mg/dL",
              "system": "http://unitsofmeasure.org"
            }
          },
          {
            "high": {
              "value": 200,
              "code": "mg/dL",
              "system": "http://unitsofmeasure.org"
            }
          }
        ],
        "interpretation": [
          {
            "coding": [
              {
                "code": "H",
                "system": "http://terminology.hl7.org/CodeSystem/v3-ObservationInterpretation",
                "display": "High"
              }
            ]
          }
        ],
        "text": {
          "status": "generated",
          "div": "<div xmlns=\"http://www.w3.org/1999/xhtml\"><table class=\"hl7__eu__lab__report\"><tr><th>Test</th><th>13-Mar-2018</th><th>Reference&#xA0;Range</th><th>Unit</th></tr><tr><td>Cholesterol [Mass/volume] in Serum or Plasma</td><td>232.5</td><td>125 - 200</td><td>H</td><td>mg/dL</td></tr></table></div>"
        },
        "status": "final",
        "subject": {
          "reference": "urn:uuid:e53da455-0049-4dc6-83b9-93592beccd37",
          "display": "Roy Harrison"
        },
        "effectiveDateTime": "2018-03-13T02:49:43Z",
        "specimen": {
          "reference": "urn:uuid:ec34bfe5-05e1-41b6-b397-624faa85eb27"
        }
      }
    },
    {
      "fullUrl": "urn:uuid:7043c970-2af1-4125-b0a3-d7a3cc283c57",
      "resource": {
        "resourceType": "Observation",
        "id": "7043c970-2af1-4125-b0a3-d7a3cc283c57",
        "meta": {
          "profile": [
            "http://hl7.eu/fhir/laboratory/StructureDefinition/Observation-resultslab-eu-lab"
          ]
        },
        "performer": [
          {
            "display": "The Central European Lab"
          }
        ],
        "category": [
          {
            "coding": [
              {
                "system": "http://terminology.hl7.org/CodeSystem/observation-category",
                "code": "laboratory"
              }
            ]
          }
        ],
        "code": {
          "coding": [
            {
              "code": "2571-8",
              "system": "http://loinc.org",
              "display": "Triglyceride [Mass/volume] in Serum or Plasma"
            }
          ],
          "text": "Triglyceride [Mass/volume] in Serum or Plasma"
        },
        "valueQuantity": {
          "system": "http://unitsofmeasure.org",
          "value": 154,
          "unit": "mg/dL",
          "code": "mg/dL"
        },
        "referenceRange": [
          {
            "low": {
              "value": 0,
              "code": "mg/dL",
              "system": "http://unitsofmeasure.org"
            }
          },
          {
            "high": {
              "value": 150,
              "code": "mg/dL",
              "system": "http://unitsofmeasure.org"
            }
          }
        ],
        "interpretation": [
          {
            "coding": [
              {
                "code": "H",
                "system": "http://terminology.hl7.org/CodeSystem/v3-ObservationInterpretation",
                "display": "High"
              }
            ]
          }
        ],
        "text": {
          "status": "generated",
          "div": "<div xmlns=\"http://www.w3.org/1999/xhtml\"><table class=\"hl7__eu__lab__report\"><tr><th>Test</th><th>13-Mar-2018</th><th>Reference&#xA0;Range</th><th>Unit</th></tr><tr><td>Triglyceride [Mass/volume] in Serum or Plasma</td><td>154.0</td><td>0 - 150</td><td>H</td><td>mg/dL</td></tr></table></div>"
        },
        "status": "final",
        "subject": {
          "reference": "urn:uuid:e53da455-0049-4dc6-83b9-93592beccd37",
          "display": "Roy Harrison"
        },
        "effectiveDateTime": "2018-03-13T02:49:43Z",
        "specimen": {
          "reference": "urn:uuid:ec34bfe5-05e1-41b6-b397-624faa85eb27"
        }
      }
    },
    {
      "fullUrl": "urn:uuid:9f8fe6b3-94df-4611-a09c-07cfed926032",
      "resource": {
        "resourceType": "Observation",
        "id": "9f8fe6b3-94df-4611-a09c-07cfed926032",
        "meta": {
          "profile": [
            "http://hl7.eu/fhir/laboratory/StructureDefinition/Observation-resultslab-eu-lab"
          ]
        },
        "performer": [
          {
            "display": "The Central European Lab"
          }
        ],
        "category": [
          {
            "coding": [
              {
                "system": "http://terminology.hl7.org/CodeSystem/observation-category",
                "code": "laboratory"
              }
            ]
          }
        ],
        "code": {
          "coding": [
            {
              "code": "18262-6",
              "system": "http://loinc.org",
              "display": "Cholesterol in LDL [Mass/volume] in Serum or Plasma by Direct assay"
            }
          ],
          "text": "Cholesterol in LDL [Mass/volume] in Serum or Plasma by Direct assay"
        },
        "valueQuantity": {
          "system": "http://unitsofmeasure.org",
          "value": 156.2,
          "unit": "mg/dL",
          "code": "mg/dL"
        },
        "referenceRange": [
          {
            "low": {
              "value": 0,
              "code": "mg/dL",
              "system": "http://unitsofmeasure.org"
            }
          },
          {
            "high": {
              "value": 130,
              "code": "mg/dL",
              "system": "http://unitsofmeasure.org"
            }
          }
        ],
        "interpretation": [
          {
            "coding": [
              {
                "code": "H",
                "system": "http://terminology.hl7.org/CodeSystem/v3-ObservationInterpretation",
                "display": "High"
              }
            ]
          }
        ],
        "text": {
          "status": "generated",
          "div": "<div xmlns=\"http://www.w3.org/1999/xhtml\"><table class=\"hl7__eu__lab__report\"><tr><th>Test</th><th>13-Mar-2018</th><th>Reference&#xA0;Range</th><th>Unit</th></tr><tr><td>Cholesterol in LDL [Mass/volume] in Serum or Plasma by Direct assay</td><td>156.2</td><td>0 - 130</td><td>H</td><td>mg/dL</td></tr></table></div>"
        },
        "status": "final",
        "subject": {
          "reference": "urn:uuid:e53da455-0049-4dc6-83b9-93592beccd37",
          "display": "Roy Harrison"
        },
        "effectiveDateTime": "2018-03-13T02:49:43Z",
        "specimen": {
          "reference": "urn:uuid:ec34bfe5-05e1-41b6-b397-624faa85eb27"
        }
      }
    },
    {
      "fullUrl": "urn:uuid:21f89174-3d73-4e4c-9021-db88d65a8256",
      "resource": {
        "resourceType": "Observation",
        "id": "21f89174-3d73-4e4c-9021-db88d65a8256",
        "meta": {
          "profile": [
            "http://hl7.eu/fhir/laboratory/StructureDefinition/Observation-resultslab-eu-lab"
          ]
        },
        "performer": [
          {
            "display": "The Central European Lab"
          }
        ],
        "category": [
          {
            "coding": [
              {
                "system": "http://terminology.hl7.org/CodeSystem/observation-category",
                "code": "laboratory"
              }
            ]
          }
        ],
        "code": {
          "coding": [
            {
              "code": "2085-9",
              "system": "http://loinc.org",
              "display": "Cholesterol in HDL [Mass/volume] in Serum or Plasma"
            }
          ],
          "text": "Cholesterol in HDL [Mass/volume] in Serum or Plasma"
        },
        "valueQuantity": {
          "system": "http://unitsofmeasure.org",
          "value": 45.4,
          "unit": "mg/dL",
          "code": "mg/dL"
        },
        "referenceRange": [
          {
            "low": {
              "value": 40,
              "code": "mg/dL",
              "system": "http://unitsofmeasure.org"
            }
          },
          {
            "high": {
              "value": 60,
              "code": "mg/dL",
              "system": "http://unitsofmeasure.org"
            }
          }
        ],
        "text": {
          "status": "generated",
          "div": "<div xmlns=\"http://www.w3.org/1999/xhtml\"><table class=\"hl7__eu__lab__report\"><tr><th>Test</th><th>13-Mar-2018</th><th>Reference&#xA0;Range</th><th>Unit</th></tr><tr><td>Cholesterol in HDL [Mass/volume] in Serum or Plasma</td><td>45.4</td><td>40 - 60</td><td></td><td>mg/dL</td></tr></table></div>"
        },
        "status": "final",
        "subject": {
          "reference": "urn:uuid:e53da455-0049-4dc6-83b9-93592beccd37",
          "display": "Roy Harrison"
        },
        "effectiveDateTime": "2018-03-13T02:49:43Z",
        "specimen": {
          "reference": "urn:uuid:ec34bfe5-05e1-41b6-b397-624faa85eb27"
        }
      }
    },
    {
      "fullUrl": "urn:uuid:67b96089-17dd-4571-b37b-25a690857bb4",
      "resource": {
        "resourceType": "Observation",
        "id": "67b96089-17dd-4571-b37b-25a690857bb4",
        "meta": {
          "profile": [
            "http://hl7.eu/fhir/laboratory/StructureDefinition/Observation-resultslab-eu-lab"
          ]
        },
        "performer": [
          {
            "display": "The Central European Lab"
          }
        ],
        "category": [
          {
            "coding": [
              {
                "system": "http://terminology.hl7.org/CodeSystem/observation-category",
                "code": "laboratory"
              }
            ]
          }
        ],
        "code": {
          "coding": [
            {
              "code": "14959-1",
              "system": "http://loinc.org",
              "display": "Microalbumin/Creatinine [Mass Ratio] in Urine"
            }
          ],
          "text": "Microalbumin/Creatinine [Mass Ratio] in Urine"
        },
        "valueQuantity": {
          "system": "http://unitsofmeasure.org",
          "value": 3.7,
          "unit": "mg/g",
          "code": "mg/g"
        },
        "referenceRange": [
          {
            "low": {
              "value": 0,
              "code": "mg/g",
              "system": "http://unitsofmeasure.org"
            }
          },
          {
            "high": {
              "value": 30,
              "code": "mg/g",
              "system": "http://unitsofmeasure.org"
            }
          }
        ],
        "text": {
          "status": "generated",
          "div": "<div xmlns=\"http://www.w3.org/1999/xhtml\"><table class=\"hl7__eu__lab__report\"><tr><th>Test</th><th>13-Mar-2018</th><th>Reference&#xA0;Range</th><th>Unit</th></tr><tr><td>Microalbumin/Creatinine [Mass Ratio] in Urine</td><td>3.7</td><td>0 - 30</td><td></td><td>mg/g</td></tr></table></div>"
        },
        "status": "final",
        "subject": {
          "reference": "urn:uuid:e53da455-0049-4dc6-83b9-93592beccd37",
          "display": "Roy Harrison"
        },
        "effectiveDateTime": "2018-03-13T02:49:43Z",
        "specimen": {
          "reference": "urn:uuid:73ef8408-048a-450b-881b-9f63171dedbc"
        }
      }
    },
    {
      "fullUrl": "urn:uuid:f2363f0c-2358-4c39-8f3e-369deed7d821",
      "resource": {
        "resourceType": "Device",
        "id": "f2363f0c-2358-4c39-8f3e-369deed7d821",
        "deviceName": [
          {
            "name": "SYNDERAI Synthetic Generator",
            "type": "manufacturer-name"
          }
        ],
        "version": [
          {
            "value": "5.0"
          }
        ],
        "text": {
          "status": "generated",
          "div": "<div xmlns=\"http://www.w3.org/1999/xhtml\">SYNDERAI Synthetic Generator v5.0</div>"
        },
        "status": "active\"",
        "distinctIdentifier": "synderai-generator-50",
        "manufacturer": "SYNDERAI Project"
      }
    },
    {
      "fullUrl": "urn:uuid:978027c7-f34a-4bb2-8acf-6620d6e01f60",
      "resource": {
        "resourceType": "Provenance",
        "id": "978027c7-f34a-4bb2-8acf-6620d6e01f60",
        "target": [
          {
            "reference": "Patient/e53da455-0049-4dc6-83b9-93592beccd37"
          },
          {
            "reference": "Bundle/806d8696-3809-4573-8328-1062ea66f0d3"
          },
          {
            "reference": "Composition/aa12b520-8f5c-49e5-b3f9-2815c7c17385"
          },
          {
            "reference": "PractitionerRole/a7968e03-729e-4549-b42d-0c9dce23490a"
          },
          {
            "reference": "Practitioner/e4042802-3757-42d7-8af1-54790fce0498"
          },
          {
            "reference": "PractitionerRole/5bb6a041-c958-4f7e-8f71-d72dad385ff0"
          },
          {
            "reference": "Organization/164fc609-a62c-4b3f-9cca-c5120ec0e278"
          }
        ],
        "activity": {
          "text": "Synthetic Example Data Generation"
        },
        "policy": [
          "https://synderai.net/synderai-synthetic-data-policy"
        ],
        "agent": [
          {
            "type": {
              "text": "author"
            },
            "who": {
              "reference": "Device/f2363f0c-2358-4c39-8f3e-369deed7d821"
            }
          }
        ],
        "reason": [
          {
            "text": "Interoperability Testing and Training (non-clinical use)"
          }
        ],
        "text": {
          "status": "generated",
          "div": "<div xmlns=\"http://www.w3.org/1999/xhtml\">Provenance for SYNDERAI Synthetic Example Data Resource</div>"
        },
        "recorded": "2018-03-13T03:49:43Z"
      }
    },
    {
      "fullUrl": "urn:uuid:a7968e03-729e-4549-b42d-0c9dce23490a",
      "resource": {
        "resourceType": "PractitionerRole",
        "id": "a7968e03-729e-4549-b42d-0c9dce23490a",
        "meta": {
          "profile": [
            "http://hl7.eu/fhir/base/StructureDefinition/practitionerRole-eu"
          ]
        },
        "text": {
          "status": "generated",
          "div": "<div xmlns=\"http://www.w3.org/1999/xhtml\">Laboratory Role Id: a7968e03-729e-4549-b42d-0c9dce23490a</div>"
        },
        "practitioner": {
          "reference": "urn:uuid:e4042802-3757-42d7-8af1-54790fce0498"
        }
      }
    },
    {
      "fullUrl": "urn:uuid:e4042802-3757-42d7-8af1-54790fce0498",
      "resource": {
        "resourceType": "Practitioner",
        "id": "e4042802-3757-42d7-8af1-54790fce0498",
        "meta": {
          "profile": [
            "http://hl7.eu/fhir/base/StructureDefinition/practitioner-eu"
          ]
        },
        "identifier": [
          {
            "assigner": {
              "display": "HL7 Europe"
            },
            "system": "urn:oid:2.16.840.1.113883.2.51.999",
            "value": "a1224d28-cea1-48c9-8ec0-bbb538bcd125"
          }
        ],
        "name": [
          {
            "prefix": [
              "dr"
            ],
            "given": [
              "Ex"
            ],
            "family": "Ample"
          }
        ],
        "address": [
          {
            "line": [
              "Laboratoire Central Europenne",
              "Boulevard du Jardin Botanique 32"
            ],
            "postalCode": "1000",
            "city": "Brussels",
            "country": "Belgium"
          }
        ],
        "text": {
          "status": "generated",
          "div": "<div xmlns=\"http://www.w3.org/1999/xhtml\">Laboratory: Laboratoire Central Europenne, 1000 Brussels, Belgium</div>"
        }
      }
    }
  ],
  "type": "document",
  "timestamp": "2018-03-13T03:49:43Z"
}
