<Bundle xmlns="http://hl7.org/fhir">
   <id value="69336e73-ce58-4f11-bf63-b4420966bb0e"/>
   <meta>
      <profile value="http://hl7.eu/fhir/laboratory/StructureDefinition/Bundle-eu-lab"/>
   </meta>
   <identifier>
      <system value="urn:oid:2.16.840.1.113883.2.51.999"/>
      <value value="846c1f7e-3643-4222-b805-8e0005321510"/>
      <assigner>
         <display value="HL7 Europe"/>
      </assigner>
   </identifier>
   <type value="document"/>
   <timestamp value="2020-11-11T07:55:24Z"/>
   <entry>
      <fullUrl value="urn:uuid:1d580e5b-3448-4678-867d-b41b2f56d801"/>
      <resource>
         <Composition>
            <id value="1d580e5b-3448-4678-867d-b41b2f56d801"/>
            <meta>
               <profile value="http://hl7.eu/fhir/laboratory/StructureDefinition/Composition-eu-lab"/>
            </meta>
            <identifier>
               <system value="urn:oid:2.16.840.1.113883.2.51.999"/>
               <value value="1c4ba764-af27-4451-ae63-ddc9f47fd027"/>
               <assigner>
                  <display value="HL7 Europe"/>
               </assigner>
            </identifier>
            <status value="final"/>
            <type>
               <coding>
                  <system value="http://loinc.org"/>
                  <code value="11502-2"/>
                  <display value="Laboratory report"/>
               </coding>
               <text value="Laboratory Report"/>
            </type>
            <category>
               <coding>
                  <system value="http://loinc.org"/>
                  <code value="26436-6"/>
                  <display value="Laboratory studies (set)"/>
               </coding>
            </category>
            <subject>
               <reference value="urn:uuid:aebfdfd1-ceb2-4ab0-a2d6-da563091438d"/>
               <display value="Lazăr Florea"/>
            </subject>
            <date value="2020-11-11T07:55:24Z"/>
            <author>
               <reference value="urn:uuid:f129c3e9-5a3d-4431-88e6-8574264c336f"/>
            </author>
            <title value="Laboratory Report"/>
            <confidentiality value="N"/>
            <section>
               <title value="Laboratory Report"/>
               <code>
                  <coding>
                     <system value="http://loinc.org"/>
                     <code value="26436-6"/>
                     <display value="Laboratory studies (set)"/>
                  </coding>
                  <text value="Laboratory studies"/>
               </code>
               <section>
                  <title value="Microbiology"/>
                  <code>
                     <coding>
                        <system value="http://loinc.org"/>
                        <code value="$18725-2"/>
                        <display value="Microbiology studies"/>
                     </coding>
                     <text value="Microbiology"/>
                  </code>
                  <text>
                     <status value="generated"/>
                     <div xmlns="http://www.w3.org/1999/xhtml">
                        <h3>Microbiology</h3>
                        <table class="hl7__eu__lab__report">
                           <thead>
                              <tr>
                                 <th>Test</th>
                                 <th>11-NOV-2020</th>
                                 <th>Reference Range</th>
                                 <th>Unit</th>
                              </tr>
                           </thead>
                           <tbody>
                              <tr>
                                 <td>Bacteria identified in Blood by Culture</td>
                                 <td>Bacteria identified in Blood by Culture</td>
                                 <td/>
                                 <td/>
                              </tr>
                           </tbody>
                        </table>
                     </div>
                  </text>
                  <entry>
                     <reference value="urn:uuid:6682f6d9-b539-447d-acc4-4fbb9e2feb91"/>
                  </entry>
               </section>
            </section>
            <section>
               <title value="Annotation comment"/>
               <code>
                  <coding>
                     <system value="http://loinc.org"/>
                     <code value="48767-8"/>
                     <display value="Annotation comment"/>
                  </coding>
               </code>
               <text>
                  <status value="generated"/>
                  <div xmlns="http://www.w3.org/1999/xhtml">
                     <h3>Annotation</h3>
                     <table class="hl7__eu__lab__report">
                        <tr>
                           <th>Conclusion and Recommendations based on this report and previous findings known to us</th>
                        </tr>
                        <tr>
                           <td>No bacteria were identified in the blood culture, indicating no evidence of bloodstream infection at the time of testing. This is a favorable finding from an infectious disease perspective. Clinical correlation is recommended.</td>
                        </tr>
                     </table>
                  </div>
               </text>
            </section>
         </Composition>
      </resource>
   </entry>
   <entry>
      <fullUrl value="urn:uuid:6405147c-b589-4e2e-b741-1e2443f8b472"/>
      <resource>
         <DiagnosticReport>
            <id value="6405147c-b589-4e2e-b741-1e2443f8b472"/>
            <meta>
               <profile value="http://hl7.eu/fhir/laboratory/StructureDefinition/DiagnosticReport-eu-lab"/>
            </meta>
            <extension url="http://hl7.org/fhir/5.0/StructureDefinition/extension-DiagnosticReport.composition">
               <valueReference>
                  <reference value="urn:uuid:1c4ba764-af27-4451-ae63-ddc9f47fd027"/>
               </valueReference>
            </extension>
            <identifier>
               <system value="urn:oid:2.16.840.1.113883.2.51.999"/>
               <value value="94b2f750-bd2c-4300-86ec-676d52b86a16"/>
               <assigner>
                  <display value="HL7 Europe"/>
               </assigner>
            </identifier>
            <status value="registered"/>
            <category>
               <coding>
                  <system value="http://loinc.org"/>
                  <code value="26436-6"/>
                  <display value="Laboratory studies (set)"/>
               </coding>
            </category>
            <code>
               <coding>
                  <system value="http://loinc.org"/>
                  <code value="11502-2"/>
                  <display value="Laboratory report"/>
               </coding>
            </code>
            <subject>
               <reference value="urn:uuid:aebfdfd1-ceb2-4ab0-a2d6-da563091438d"/>
               <display value="Lazăr Florea"/>
            </subject>
            <specimen>
               <reference value="urn:uuid:efc73fb2-6513-45c7-8316-2eb0b8a661cd"/>
            </specimen>
            <result>
               <reference value="urn:uuid:6682f6d9-b539-447d-acc4-4fbb9e2feb91"/>
            </result>
         </DiagnosticReport>
      </resource>
   </entry>
   <entry>
      <fullUrl value="urn:uuid:aebfdfd1-ceb2-4ab0-a2d6-da563091438d"/>
      <resource>
         <Patient>
            <id value="aebfdfd1-ceb2-4ab0-a2d6-da563091438d"/>
            <meta>
               <profile value="http://hl7.eu/fhir/base/StructureDefinition/patient-eu-core"/>
               <security>
                  <system value="http://terminology.hl7.org/CodeSystem/v3-ActReason"/>
                  <code value="HTEST"/>
               </security>
               <security>
                  <system value="http://terminology.hl7.org/CodeSystem/v3-ActReason"/>
                  <code value="TRAIN"/>
               </security>
               <tag>
                  <system value="https://synderai.net/fhir/CodeSystem/tags"/>
                  <code value="synthetic"/>
                  <display value="SYNDERAI Synthetic data"/>
               </tag>
            </meta>
            <text>
               <status value="generated"/>
               <div xmlns="http://www.w3.org/1999/xhtml">
                  <table class="hl7__ips">
                     <tr>
                        <td>Lazăr Florea</td>
                        <td>male</td>
                        <td>10-Feb-1946</td>
                     </tr>
                  </table>
               </div>
            </text>
            <extension url="http://hl7.org/fhir/StructureDefinition/patient-nationality">
               <valueCodeableConcept>
                  <coding>
                     <system value="http://hl7.org/fhir/ValueSet/country"/>
                     <code value="RO"/>
                  </coding>
               </valueCodeableConcept>
            </extension>
            <identifier>
               <type>
                  <coding>
                     <system value="http://terminology.hl7.org/CodeSystem/v2-0203"/>
                     <code value="PT"/>
                  </coding>
               </type>
               <system value="http://ec.europa.eu/identifier/eci"/>
               <value value="8693-862290-8"/>
            </identifier>
            <identifier>
               <type>
                  <coding>
                     <system value="http://terminology.hl7.org/CodeSystem/v2-0203"/>
                     <code value="MR"/>
                  </coding>
               </type>
               <system value="http://local.setting.eu/identifier"/>
               <value value="602fbbf5-967b-6d86-a533-5cec24b13e71"/>
            </identifier>
            <name>
               <family value="Florea"/>
            </name>
            <name>
               <given value="Lazăr"/>
            </name>
            <name>
               <text value="Lazăr Florea"/>
            </name>
            <telecom>
               <system value="phone"/>
               <value value="0753 950 380"/>
            </telecom>
            <gender value="male"/>
            <birthDate value="1946-02-10"/>
            <address>
               <use value="home"/>
               <type value="physical"/>
               <line value="Drumul Grațian Nistor"/>
               <city value="Lupeni"/>
               <postalCode value="265300"/>
               <country value="Romania"/>
            </address>
         </Patient>
      </resource>
   </entry>
   <entry>
      <fullUrl value="urn:uuid:9107001e-6693-4063-ab61-3ee821c8a4ce"/>
      <resource>
         <ServiceRequest>
            <id value="9107001e-6693-4063-ab61-3ee821c8a4ce"/>
            <meta>
               <profile value="http://hl7.eu/fhir/laboratory/StructureDefinition/ServiceRequest-eu-lab"/>
            </meta>
            <identifier>
               <system value="http://example.org"/>
               <value value="b20ce308-224c-4d0a-9e3d-5a778b698732"/>
            </identifier>
            <status value="active"/>
            <intent value="order"/>
            <code>
               <coding>
                  <system value="http://snomed.info/sct"/>
                  <code value="108252007"/>
                  <display value="Laboratory procedure"/>
               </coding>
            </code>
            <subject>
               <reference value="urn:uuid:aebfdfd1-ceb2-4ab0-a2d6-da563091438d"/>
               <display value="Lazăr Florea"/>
            </subject>
            <requester>
               <reference value="urn:uuid:3d0ac11d-ca16-46b3-bcd0-1cd18d6d3053"/>
            </requester>
            <reasonCode>
               <coding>
                  <system value="http://snomed.info/sct"/>
                  <code value="197927001"/>
                  <display value="Recurrent urinary tract infection"/>
               </coding>
            </reasonCode>
            <reasonCode>
               <coding>
                  <system value="http://snomed.info/sct"/>
                  <code value="414545008"/>
                  <display value="Ischemic heart disease"/>
               </coding>
            </reasonCode>
            <reasonCode>
               <coding>
                  <system value="http://snomed.info/sct"/>
                  <code value="237602007"/>
                  <display value="Metabolic syndrome X"/>
               </coding>
            </reasonCode>
            <reasonCode>
               <coding>
                  <system value="http://snomed.info/sct"/>
                  <code value="271737000"/>
                  <display value="Anemia"/>
               </coding>
            </reasonCode>
            <reasonCode>
               <coding>
                  <system value="http://snomed.info/sct"/>
                  <code value="15777000"/>
                  <display value="Prediabetes"/>
               </coding>
            </reasonCode>
            <reasonCode>
               <coding>
                  <system value="http://snomed.info/sct"/>
                  <code value="59621000"/>
                  <display value="Essential hypertension"/>
               </coding>
            </reasonCode>
            <reasonCode>
               <coding>
                  <system value="http://snomed.info/sct"/>
                  <code value="40055000"/>
                  <display value="Chronic sinusitis"/>
               </coding>
            </reasonCode>
            <specimen>
               <reference value="urn:uuid:efc73fb2-6513-45c7-8316-2eb0b8a661cd"/>
            </specimen>
         </ServiceRequest>
      </resource>
   </entry>
   <entry>
      <fullUrl value="urn:uuid:3d0ac11d-ca16-46b3-bcd0-1cd18d6d3053"/>
      <resource>
         <PractitionerRole>
            <id value="3d0ac11d-ca16-46b3-bcd0-1cd18d6d3053"/>
            <meta>
               <profile value="http://hl7.eu/fhir/base/StructureDefinition/practitionerRole-eu"/>
            </meta>
            <text>
               <status value="generated"/>
               <div xmlns="http://www.w3.org/1999/xhtml">Provider Role Id: 3d0ac11d-ca16-46b3-bcd0-1cd18d6d3053</div>
            </text>
            <organization>
               <reference value="urn:uuid:f7138cf7-0a91-42dd-8d22-b6be0f739a2d"/>
            </organization>
         </PractitionerRole>
      </resource>
   </entry>
   <entry>
      <fullUrl value="urn:uuid:f7138cf7-0a91-42dd-8d22-b6be0f739a2d"/>
      <resource>
         <Organization>
            <id value="f7138cf7-0a91-42dd-8d22-b6be0f739a2d"/>
            <meta>
               <profile value="http://hl7.eu/fhir/base/StructureDefinition/organization-eu"/>
            </meta>
            <text>
               <status value="generated"/>
               <div xmlns="http://www.w3.org/1999/xhtml">Provider Organization: Spitalul de Urgență</div>
            </text>
            <identifier>
               <system value="urn:oid:2.16.840.1.113883.2.51.999"/>
               <value value="a9b1121c-2a2b-4591-a599-108f869162b2"/>
               <assigner>
                  <display value="HL7 Europe"/>
               </assigner>
            </identifier>
            <name value="Spitalul de Urgență"/>
            <address>
               <line value="Strada 1 Decembrie 1918 137 A"/>
               <city value="Petroșani"/>
               <postalCode value="332019"/>
               <country value="Romania"/>
            </address>
         </Organization>
      </resource>
   </entry>
   <entry>
      <fullUrl value="urn:uuid:efc73fb2-6513-45c7-8316-2eb0b8a661cd"/>
      <resource>
         <Specimen>
            <id value="efc73fb2-6513-45c7-8316-2eb0b8a661cd"/>
            <meta>
               <profile value="http://hl7.eu/fhir/laboratory/StructureDefinition/Specimen-eu-lab"/>
            </meta>
            <text>
               <status value="generated"/>
               <div xmlns="http://www.w3.org/1999/xhtml">
                  <table class="hl7__eu__lab__report">
                     <tr>
                        <th>Specimen</th>
                        <th>Collection Date</th>
                     </tr>
                     <tr>
                        <td>Whole blood specimen (specimen)</td>
                        <td>
                           <span class="nb">11-Nov-2020</span>
                        </td>
                     </tr>
                  </table>
               </div>
            </text>
            <type>
               <coding>
                  <system value="http://snomed.info/sct"/>
                  <code value="258580003"/>
                  <display value="Whole blood specimen (specimen)"/>
               </coding>
            </type>
            <collection>
               <collectedDateTime value="2020-11-11"/>
            </collection>
         </Specimen>
      </resource>
   </entry>
   <entry>
      <fullUrl value="urn:uuid:6682f6d9-b539-447d-acc4-4fbb9e2feb91"/>
      <resource>
         <Observation>
            <id value="6682f6d9-b539-447d-acc4-4fbb9e2feb91"/>
            <meta>
               <profile value="http://hl7.eu/fhir/laboratory/StructureDefinition/Observation-resultslab-eu-lab"/>
            </meta>
            <text>
               <status value="generated"/>
               <div xmlns="http://www.w3.org/1999/xhtml">
                  <table class="hl7__eu__lab__report">
                     <tr>
                        <th>Test</th>
                        <th>11-Nov-2020</th>
                        <th>Reference Range</th>
                        <th>Unit</th>
                     </tr>
                     <tr>
                        <td>Bacteria identified in Blood by Culture</td>
                     </tr>
                  </table>
               </div>
            </text>
            <status value="final"/>
            <category>
               <coding>
                  <system value="http://terminology.hl7.org/CodeSystem/observation-category"/>
                  <code value="laboratory"/>
               </coding>
            </category>
            <code>
               <coding>
                  <system value="http://loinc.org"/>
                  <code value="600-7"/>
                  <display value="Bacteria identified in Blood by Culture"/>
               </coding>
               <text value="Bacteria identified in Blood by Culture"/>
            </code>
            <subject>
               <reference value="urn:uuid:aebfdfd1-ceb2-4ab0-a2d6-da563091438d"/>
               <display value="Lazăr Florea"/>
            </subject>
            <effectiveDateTime value="2020-11-11T06:55:24Z"/>
            <performer>
               <display value="The Central European Lab"/>
            </performer>
            <specimen>
               <reference value="urn:uuid:efc73fb2-6513-45c7-8316-2eb0b8a661cd"/>
            </specimen>
         </Observation>
      </resource>
   </entry>
   <entry>
      <fullUrl value="urn:uuid:72d5d878-3ba3-4145-8f98-a1c0d160dc84"/>
      <resource>
         <Device>
            <id value="72d5d878-3ba3-4145-8f98-a1c0d160dc84"/>
            <text>
               <status value="generated"/>
               <div xmlns="http://www.w3.org/1999/xhtml">SYNDERAI Synthetic Generator v5.0</div>
            </text>
            <status value="active&#34;"/>
            <distinctIdentifier value="synderai-generator-50"/>
            <manufacturer value="SYNDERAI Project"/>
            <deviceName>
               <name value="SYNDERAI Synthetic Generator"/>
               <type value="manufacturer-name"/>
            </deviceName>
            <version>
               <value value="5.0"/>
            </version>
         </Device>
      </resource>
   </entry>
   <entry>
      <fullUrl value="urn:uuid:01c9e1d0-c589-4d87-b585-b43477ad00d6"/>
      <resource>
         <Provenance>
            <id value="01c9e1d0-c589-4d87-b585-b43477ad00d6"/>
            <text>
               <status value="generated"/>
               <div xmlns="http://www.w3.org/1999/xhtml">Provenance for SYNDERAI Synthetic Example Data Resource</div>
            </text>
            <target>
               <reference value="Patient/aebfdfd1-ceb2-4ab0-a2d6-da563091438d"/>
            </target>
            <target>
               <reference value="Bundle/69336e73-ce58-4f11-bf63-b4420966bb0e"/>
            </target>
            <target>
               <reference value="Composition/1d580e5b-3448-4678-867d-b41b2f56d801"/>
            </target>
            <target>
               <reference value="PractitionerRole/f129c3e9-5a3d-4431-88e6-8574264c336f"/>
            </target>
            <target>
               <reference value="Practitioner/ed6d2d36-28d9-4947-8eb7-c6951772366f"/>
            </target>
            <target>
               <reference value="PractitionerRole/3d0ac11d-ca16-46b3-bcd0-1cd18d6d3053"/>
            </target>
            <target>
               <reference value="Organization/f7138cf7-0a91-42dd-8d22-b6be0f739a2d"/>
            </target>
            <recorded value="2020-11-11T07:55:24Z"/>
            <policy value="https://synderai.net/synderai-synthetic-data-policy"/>
            <reason>
               <text value="Interoperability Testing and Training (non-clinical use)"/>
            </reason>
            <activity>
               <text value="Synthetic Example Data Generation"/>
            </activity>
            <agent>
               <type>
                  <text value="author"/>
               </type>
               <who>
                  <reference value="Device/72d5d878-3ba3-4145-8f98-a1c0d160dc84"/>
               </who>
            </agent>
         </Provenance>
      </resource>
   </entry>
   <entry>
      <fullUrl value="urn:uuid:f129c3e9-5a3d-4431-88e6-8574264c336f"/>
      <resource>
         <PractitionerRole>
            <id value="f129c3e9-5a3d-4431-88e6-8574264c336f"/>
            <meta>
               <profile value="http://hl7.eu/fhir/base/StructureDefinition/practitionerRole-eu"/>
            </meta>
            <text>
               <status value="generated"/>
               <div xmlns="http://www.w3.org/1999/xhtml">Laboratory Role Id: f129c3e9-5a3d-4431-88e6-8574264c336f</div>
            </text>
            <practitioner>
               <reference value="urn:uuid:ed6d2d36-28d9-4947-8eb7-c6951772366f"/>
            </practitioner>
         </PractitionerRole>
      </resource>
   </entry>
   <entry>
      <fullUrl value="urn:uuid:ed6d2d36-28d9-4947-8eb7-c6951772366f"/>
      <resource>
         <Practitioner>
            <id value="ed6d2d36-28d9-4947-8eb7-c6951772366f"/>
            <meta>
               <profile value="http://hl7.eu/fhir/base/StructureDefinition/practitioner-eu"/>
            </meta>
            <text>
               <status value="generated"/>
               <div xmlns="http://www.w3.org/1999/xhtml">Laboratory: Laboratoire Central Européenne, 1000 Brussels, Belgium</div>
            </text>
            <identifier>
               <system value="urn:oid:2.16.840.1.113883.2.51.999"/>
               <value value="0f02312d-abde-4cda-9b17-9a5b41ac4b63"/>
               <assigner>
                  <display value="HL7 Europe"/>
               </assigner>
            </identifier>
            <name>
               <family value="Ample"/>
               <given value="Ex"/>
               <prefix value="dr"/>
            </name>
            <address>
               <line value="Laboratoire Central Européenne"/>
               <line value="Boulevard du Jardin Botanique 32"/>
               <city value="Brussels"/>
               <postalCode value="1000"/>
               <country value="Belgium"/>
            </address>
         </Practitioner>
      </resource>
   </entry>
</Bundle>