{
  "resourceType": "Bundle",
  "id": "c5c933a7-1c6c-4b36-a8eb-e0637dbd9421",
  "meta": {
    "profile": [
      "http://hl7.eu/fhir/laboratory/StructureDefinition/Bundle-eu-lab"
    ]
  },
  "identifier": {
    "assigner": {
      "display": "HL7 Europe"
    },
    "system": "urn:oid:2.16.840.1.113883.2.51.999",
    "value": "3c8e5e06-575d-4cc1-9a38-b76b2b9504db"
  },
  "entry": [
    {
      "fullUrl": "urn:uuid:6f5784f1-2bcf-484b-9c7c-53f4f2c24ad0",
      "resource": {
        "resourceType": "Composition",
        "id": "6f5784f1-2bcf-484b-9c7c-53f4f2c24ad0",
        "meta": {
          "profile": [
            "http://hl7.eu/fhir/laboratory/StructureDefinition/Composition-eu-lab"
          ]
        },
        "identifier": {
          "assigner": {
            "display": "HL7 Europe"
          },
          "system": "urn:oid:2.16.840.1.113883.2.51.999",
          "value": "6bf99858-2c5f-4b4e-a5b9-f4d19d79d426"
        },
        "author": [
          {
            "reference": "urn:uuid:d0371e09-b9b9-4819-a159-45d062207456"
          }
        ],
        "category": [
          {
            "coding": [
              {
                "code": "26436-6",
                "system": "http://loinc.org",
                "display": "Laboratory studies (set)"
              }
            ]
          }
        ],
        "type": {
          "coding": [
            {
              "code": "11502-2",
              "system": "http://loinc.org",
              "display": "Laboratory report"
            }
          ],
          "text": "Laboratory Report"
        },
        "section": [
          {
            "code": {
              "coding": [
                {
                  "code": "26436-6",
                  "system": "http://loinc.org",
                  "display": "Laboratory studies (set)"
                }
              ],
              "text": "Laboratory studies"
            },
            "section": [
              {
                "code": {
                  "coding": [
                    {
                      "code": "$18719-5",
                      "system": "http://loinc.org",
                      "display": "Chemistry studies (set)"
                    }
                  ],
                  "text": "Chemistry"
                },
                "entry": [
                  {
                    "reference": "urn:uuid:3a915d46-2019-4fdb-9322-53ca71148512"
                  },
                  {
                    "reference": "urn:uuid:2611d5d5-d573-46e2-8909-99eb940a8594"
                  },
                  {
                    "reference": "urn:uuid:6ff2904d-9eb1-4f62-9214-f64a6c2bc4d2"
                  },
                  {
                    "reference": "urn:uuid:7e3479f2-800c-4f8e-9860-e31765423e46"
                  },
                  {
                    "reference": "urn:uuid:bd0ff502-2f19-43ad-a2a7-8dd307bfb8c8"
                  },
                  {
                    "reference": "urn:uuid:8f1c076d-e648-4096-8611-8ef156be2faf"
                  },
                  {
                    "reference": "urn:uuid:17605710-ca1d-4bdb-9680-529d2bc38ece"
                  },
                  {
                    "reference": "urn:uuid:a5cb4915-3a5c-428b-83ff-d661cd906096"
                  },
                  {
                    "reference": "urn:uuid:d706b39e-ccc4-4824-93a8-04d6aa06af5d"
                  },
                  {
                    "reference": "urn:uuid:c3fa0216-3f8b-42ee-a1a0-60b25530fe78"
                  },
                  {
                    "reference": "urn:uuid:59c582cf-e002-4c5a-a1b6-b70150ac7821"
                  },
                  {
                    "reference": "urn:uuid:4c30aeaf-b5ec-46bd-8c1e-99b1d4733b97"
                  },
                  {
                    "reference": "urn:uuid:7294a80c-3aab-4c1a-a2e1-51a519ea6e82"
                  },
                  {
                    "reference": "urn:uuid:e28cfa5f-86b2-40c8-9acc-6198ed6af984"
                  },
                  {
                    "reference": "urn:uuid:b4f222af-681d-4991-959b-bb563f157e9b"
                  },
                  {
                    "reference": "urn:uuid:b17a5c64-b285-4641-b5e5-854959c741c0"
                  },
                  {
                    "reference": "urn:uuid:a444834f-8865-439d-8278-57a5bb139428"
                  },
                  {
                    "reference": "urn:uuid:d933a778-0114-4dca-9628-fc3ff0909d03"
                  },
                  {
                    "reference": "urn:uuid:218f31b4-3ca8-40dc-80ca-7a7f37b10478"
                  }
                ],
                "text": {
                  "status": "generated",
                  "div": "<div xmlns=\"http://www.w3.org/1999/xhtml\"><h3>Chemistry</h3><table class=\"hl7__eu__lab__report\"><thead><tr><th>Test</th><th>05-MAY-2025</th><th>Reference&#xA0;Range</th><th>Unit</th></tr></thead><tbody><tr><td>Glucose [Mass/volume] in Blood</td><td>99.4</td><td>70 - 140</td><td>mg/dL</td></tr><tr><td>Urea nitrogen [Mass/volume] in Blood</td><td>15.8</td><td>7 - 20</td><td>mg/dL</td></tr><tr><td>Creatinine [Mass/volume] in Blood</td><td><strong>3.1 H</strong></td><td>0.6 - 1.1</td><td>mg/dL</td></tr><tr><td>Calcium [Mass/volume] in Blood</td><td>9.7</td><td>8.5 - 10.4</td><td>mg/dL</td></tr><tr><td>Sodium [Moles/volume] in Blood</td><td>136.4</td><td>135 - 145</td><td>mmol/L</td></tr><tr><td>Potassium [Moles/volume] in Blood</td><td>4.5</td><td>3.5 - 5.1</td><td>mmol/L</td></tr><tr><td>Chloride [Moles/volume] in Blood</td><td>105.1</td><td>98 - 108</td><td>mmol/L</td></tr><tr><td>Carbon dioxide, total [Moles/volume] in Blood</td><td>26.1</td><td>22 - 29</td><td>mmol/L</td></tr><tr><td>Protein [Mass/volume] in Serum or Plasma</td><td>6.8</td><td>6 - 8.3</td><td>g/dL</td></tr><tr><td>Albumin [Mass/volume] in Serum or Plasma</td><td><strong>5.2 H</strong></td><td>3.4 - 5</td><td>g/dL</td></tr><tr><td>Globulin [Mass/volume] in Serum by calculation</td><td>2.1</td><td>2 - 3.5</td><td>g/L</td></tr><tr><td>Bilirubin.total [Mass/volume] in Serum or Plasma</td><td>0.7</td><td>0.2 - 1.2</td><td>mg/dL</td></tr><tr><td>Alkaline phosphatase [Enzymatic activity/volume] in Serum or Plasma</td><td><strong>127.5 H</strong></td><td>44 - 104</td><td>U/L</td></tr><tr><td>Alanine aminotransferase [Enzymatic activity/volume] in Serum or Plasma</td><td><strong>46.3 H</strong></td><td>13 - 36</td><td>U/L</td></tr><tr><td>Aspartate aminotransferase [Enzymatic activity/volume] in Serum or Plasma</td><td>36.8</td><td>10 - 40</td><td>U/L</td></tr><tr><td>Cholesterol [Mass/volume] in Serum or Plasma</td><td>181.1</td><td>130 - 200</td><td>mg/dL</td></tr><tr><td>Triglyceride [Mass/volume] in Serum or Plasma</td><td>101.8</td><td>35 - 175</td><td>mg/dL</td></tr><tr><td>Cholesterol in LDL [Mass/volume] in Serum or Plasma by Direct assay</td><td>94.0</td><td>0 - 190</td><td>mg/dL</td></tr><tr><td>Cholesterol in HDL [Mass/volume] in Serum or Plasma</td><td>54.9</td><td>50 - 100</td><td>mg/dL</td></tr></tbody></table></div>"
                },
                "title": "Chemistry"
              }
            ],
            "title": "Laboratory Report"
          },
          {
            "text": {
              "status": "generated",
              "div": "<div xmlns=\"http://www.w3.org/1999/xhtml\"><h3>Annotation</h3><table class=\"hl7__eu__lab__report\"><tr><th>Conclusion and Recommendations based on this report and previous findings known to us</th></tr><tr><td>The patient shows elevated creatinine, suggesting impaired renal function, and mildly increased liver enzymes (ALT, ALP), which may indicate hepatic or biliary involvement. Albumin is slightly above normal, but other parameters are within reference ranges. Recommend clinical correlation and further evaluation of renal and liver function.</td></tr></table></div>"
            },
            "code": {
              "coding": [
                {
                  "system": "http://loinc.org",
                  "code": "48767-8",
                  "display": "Annotation comment"
                }
              ]
            },
            "title": "Annotation comment"
          }
        ],
        "status": "final",
        "subject": {
          "reference": "urn:uuid:4e475507-e80f-4e3e-8d3b-960682a10cf0",
          "display": "Eileen Taylor"
        },
        "date": "2025-05-05T07:47:02Z",
        "title": "Laboratory Report",
        "confidentiality": "N"
      }
    },
    {
      "fullUrl": "urn:uuid:6a634cc6-69ac-4e08-a272-77200c9e821d",
      "resource": {
        "resourceType": "DiagnosticReport",
        "id": "6a634cc6-69ac-4e08-a272-77200c9e821d",
        "meta": {
          "profile": [
            "http://hl7.eu/fhir/laboratory/StructureDefinition/DiagnosticReport-eu-lab"
          ]
        },
        "identifier": [
          {
            "assigner": {
              "display": "HL7 Europe"
            },
            "system": "urn:oid:2.16.840.1.113883.2.51.999",
            "value": "51c6fe03-dba6-4503-9578-672e98d93146"
          }
        ],
        "extension": [
          {
            "url": "http://hl7.org/fhir/5.0/StructureDefinition/extension-DiagnosticReport.composition",
            "valueReference": {
              "reference": "urn:uuid:6bf99858-2c5f-4b4e-a5b9-f4d19d79d426"
            }
          }
        ],
        "category": [
          {
            "coding": [
              {
                "code": "26436-6",
                "system": "http://loinc.org",
                "display": "Laboratory studies (set)"
              }
            ]
          }
        ],
        "specimen": [
          {
            "reference": "urn:uuid:42b776fd-0c1b-40a9-8cad-fe043c6c6195"
          },
          {
            "reference": "urn:uuid:d4edd8f8-1381-4edc-85af-588d3fb2778a"
          },
          {
            "reference": "urn:uuid:59a25d3b-38be-4866-9085-f87890ad98c9"
          }
        ],
        "result": [
          {
            "reference": "urn:uuid:3a915d46-2019-4fdb-9322-53ca71148512"
          },
          {
            "reference": "urn:uuid:2611d5d5-d573-46e2-8909-99eb940a8594"
          },
          {
            "reference": "urn:uuid:6ff2904d-9eb1-4f62-9214-f64a6c2bc4d2"
          },
          {
            "reference": "urn:uuid:7e3479f2-800c-4f8e-9860-e31765423e46"
          },
          {
            "reference": "urn:uuid:bd0ff502-2f19-43ad-a2a7-8dd307bfb8c8"
          },
          {
            "reference": "urn:uuid:8f1c076d-e648-4096-8611-8ef156be2faf"
          },
          {
            "reference": "urn:uuid:17605710-ca1d-4bdb-9680-529d2bc38ece"
          },
          {
            "reference": "urn:uuid:a5cb4915-3a5c-428b-83ff-d661cd906096"
          },
          {
            "reference": "urn:uuid:d706b39e-ccc4-4824-93a8-04d6aa06af5d"
          },
          {
            "reference": "urn:uuid:c3fa0216-3f8b-42ee-a1a0-60b25530fe78"
          },
          {
            "reference": "urn:uuid:59c582cf-e002-4c5a-a1b6-b70150ac7821"
          },
          {
            "reference": "urn:uuid:4c30aeaf-b5ec-46bd-8c1e-99b1d4733b97"
          },
          {
            "reference": "urn:uuid:7294a80c-3aab-4c1a-a2e1-51a519ea6e82"
          },
          {
            "reference": "urn:uuid:e28cfa5f-86b2-40c8-9acc-6198ed6af984"
          },
          {
            "reference": "urn:uuid:b4f222af-681d-4991-959b-bb563f157e9b"
          },
          {
            "reference": "urn:uuid:b17a5c64-b285-4641-b5e5-854959c741c0"
          },
          {
            "reference": "urn:uuid:a444834f-8865-439d-8278-57a5bb139428"
          },
          {
            "reference": "urn:uuid:d933a778-0114-4dca-9628-fc3ff0909d03"
          },
          {
            "reference": "urn:uuid:218f31b4-3ca8-40dc-80ca-7a7f37b10478"
          }
        ],
        "status": "registered",
        "code": {
          "coding": [
            {
              "code": "11502-2",
              "system": "http://loinc.org",
              "display": "Laboratory report"
            }
          ]
        },
        "subject": {
          "reference": "urn:uuid:4e475507-e80f-4e3e-8d3b-960682a10cf0",
          "display": "Eileen Taylor"
        }
      }
    },
    {
      "fullUrl": "urn:uuid:4e475507-e80f-4e3e-8d3b-960682a10cf0",
      "resource": {
        "resourceType": "Patient",
        "id": "4e475507-e80f-4e3e-8d3b-960682a10cf0",
        "meta": {
          "security": [
            {
              "system": "http://terminology.hl7.org/CodeSystem/v3-ActReason",
              "code": "HTEST"
            },
            {
              "system": "http://terminology.hl7.org/CodeSystem/v3-ActReason",
              "code": "TRAIN"
            }
          ],
          "tag": [
            {
              "system": "https://synderai.net/fhir/CodeSystem/tags",
              "code": "synthetic",
              "display": "SYNDERAI Synthetic data"
            }
          ],
          "profile": [
            "http://hl7.eu/fhir/base/StructureDefinition/patient-eu-core"
          ]
        },
        "identifier": [
          {
            "type": {
              "coding": [
                {
                  "code": "PT",
                  "system": "http://terminology.hl7.org/CodeSystem/v2-0203"
                }
              ]
            },
            "system": "http://ec.europa.eu/identifier/eci",
            "value": "6172-576075-7"
          },
          {
            "type": {
              "coding": [
                {
                  "code": "MR",
                  "system": "http://terminology.hl7.org/CodeSystem/v2-0203"
                }
              ]
            },
            "system": "http://local.setting.eu/identifier",
            "value": "f7f175da-cf0d-5686-8800-840d9ab7b47b"
          }
        ],
        "name": [
          {
            "family": "Taylor"
          },
          {
            "given": [
              "Eileen"
            ]
          },
          {
            "text": "Eileen Taylor"
          }
        ],
        "address": [
          {
            "line": [
              "39 Slater harbors"
            ],
            "use": "home",
            "type": "physical",
            "postalCode": "LE17",
            "city": "Smithtown",
            "country": "United Kingdom"
          }
        ],
        "telecom": [
          {
            "system": "phone",
            "value": "+44(0)1614960460"
          }
        ],
        "extension": [
          {
            "url": "http://hl7.org/fhir/StructureDefinition/patient-nationality",
            "valueCodeableConcept": {
              "coding": [
                {
                  "code": "GB",
                  "system": "http://hl7.org/fhir/ValueSet/country"
                }
              ]
            }
          }
        ],
        "text": {
          "status": "generated",
          "div": "<div xmlns=\"http://www.w3.org/1999/xhtml\"><table class=\"hl7__ips\"><tr><td>Eileen Taylor</td><td>female</td><td>11-Dec-1951</td></tr></table></div>"
        },
        "gender": "female",
        "birthDate": "1951-12-11"
      }
    },
    {
      "fullUrl": "urn:uuid:ec7b8ff7-5b18-41dd-b3e8-153524295554",
      "resource": {
        "resourceType": "ServiceRequest",
        "id": "ec7b8ff7-5b18-41dd-b3e8-153524295554",
        "meta": {
          "profile": [
            "http://hl7.eu/fhir/laboratory/StructureDefinition/ServiceRequest-eu-lab"
          ]
        },
        "identifier": [
          {
            "system": "http://example.org",
            "value": "bf8c391d-b107-4e0d-baed-57616516a89f"
          }
        ],
        "specimen": [
          {
            "reference": "urn:uuid:42b776fd-0c1b-40a9-8cad-fe043c6c6195"
          },
          {
            "reference": "urn:uuid:d4edd8f8-1381-4edc-85af-588d3fb2778a"
          },
          {
            "reference": "urn:uuid:59a25d3b-38be-4866-9085-f87890ad98c9"
          }
        ],
        "reasonCode": [
          {
            "coding": [
              {
                "code": "203082005",
                "system": "http://snomed.info/sct",
                "display": "Fibromyalgia"
              }
            ]
          },
          {
            "coding": [
              {
                "code": "239873007",
                "system": "http://snomed.info/sct",
                "display": "Osteoarthritis of knee"
              }
            ]
          },
          {
            "coding": [
              {
                "code": "55822004",
                "system": "http://snomed.info/sct",
                "display": "Hyperlipidemia"
              }
            ]
          },
          {
            "coding": [
              {
                "code": "254837009",
                "system": "http://snomed.info/sct",
                "display": "Malignant neoplasm of breast"
              }
            ]
          },
          {
            "coding": [
              {
                "code": "197927001",
                "system": "http://snomed.info/sct",
                "display": "Recurrent urinary tract infection"
              }
            ]
          }
        ],
        "status": "active",
        "intent": "order",
        "code": {
          "coding": [
            {
              "code": "108252007",
              "system": "http://snomed.info/sct",
              "display": "Laboratory procedure"
            }
          ]
        },
        "subject": {
          "reference": "urn:uuid:4e475507-e80f-4e3e-8d3b-960682a10cf0",
          "display": "Eileen Taylor"
        },
        "requester": {
          "reference": "urn:uuid:a8b0f256-daae-487a-b6e9-eaa4f1bf455c"
        }
      }
    },
    {
      "fullUrl": "urn:uuid:a8b0f256-daae-487a-b6e9-eaa4f1bf455c",
      "resource": {
        "resourceType": "PractitionerRole",
        "id": "a8b0f256-daae-487a-b6e9-eaa4f1bf455c",
        "meta": {
          "profile": [
            "http://hl7.eu/fhir/base/StructureDefinition/practitionerRole-eu"
          ]
        },
        "text": {
          "status": "generated",
          "div": "<div xmlns=\"http://www.w3.org/1999/xhtml\">Provider Role Id: a8b0f256-daae-487a-b6e9-eaa4f1bf455c</div>"
        },
        "organization": {
          "reference": "urn:uuid:907928b3-53aa-4a95-bc9b-aac420d132f1"
        }
      }
    },
    {
      "fullUrl": "urn:uuid:907928b3-53aa-4a95-bc9b-aac420d132f1",
      "resource": {
        "resourceType": "Organization",
        "id": "907928b3-53aa-4a95-bc9b-aac420d132f1",
        "meta": {
          "profile": [
            "http://hl7.eu/fhir/base/StructureDefinition/organization-eu"
          ]
        },
        "identifier": [
          {
            "assigner": {
              "display": "HL7 Europe"
            },
            "system": "urn:oid:2.16.840.1.113883.2.51.999",
            "value": "b3b0e50c-acda-4999-bc0f-32b731d8866a"
          }
        ],
        "address": [
          {
            "city": "Leicester",
            "postalCode": "LE2 7",
            "country": "United Kingdom"
          }
        ],
        "text": {
          "status": "generated",
          "div": "<div xmlns=\"http://www.w3.org/1999/xhtml\">Provider Organization: Leicester Royal Infirmary</div>"
        },
        "name": "Leicester Royal Infirmary"
      }
    },
    {
      "fullUrl": "urn:uuid:42b776fd-0c1b-40a9-8cad-fe043c6c6195",
      "resource": {
        "resourceType": "Specimen",
        "id": "42b776fd-0c1b-40a9-8cad-fe043c6c6195",
        "meta": {
          "profile": [
            "http://hl7.eu/fhir/laboratory/StructureDefinition/Specimen-eu-lab"
          ]
        },
        "collection": {
          "collectedDateTime": "2025-05-05"
        },
        "text": {
          "status": "generated",
          "div": "<div xmlns=\"http://www.w3.org/1999/xhtml\"><table class=\"hl7__eu__lab__report\"><tr><th>Specimen</th><th>Collection Date</th></tr><tr><td>Whole blood specimen (specimen)</td><td><span class=\"nb\">05-May-2025</span></td></tr></table></div>"
        },
        "type": {
          "coding": [
            {
              "code": "258580003",
              "system": "http://snomed.info/sct",
              "display": "Whole blood specimen (specimen)"
            }
          ]
        }
      }
    },
    {
      "fullUrl": "urn:uuid:d4edd8f8-1381-4edc-85af-588d3fb2778a",
      "resource": {
        "resourceType": "Specimen",
        "id": "d4edd8f8-1381-4edc-85af-588d3fb2778a",
        "meta": {
          "profile": [
            "http://hl7.eu/fhir/laboratory/StructureDefinition/Specimen-eu-lab"
          ]
        },
        "collection": {
          "collectedDateTime": "2025-05-05"
        },
        "text": {
          "status": "generated",
          "div": "<div xmlns=\"http://www.w3.org/1999/xhtml\"><table class=\"hl7__eu__lab__report\"><tr><th>Specimen</th><th>Collection Date</th></tr><tr><td>Acellular blood (serum or plasma) specimen</td><td><span class=\"nb\">05-May-2025</span></td></tr></table></div>"
        },
        "type": {
          "coding": [
            {
              "code": "122592007",
              "system": "http://snomed.info/sct",
              "display": "Acellular blood (serum or plasma) specimen"
            }
          ]
        }
      }
    },
    {
      "fullUrl": "urn:uuid:59a25d3b-38be-4866-9085-f87890ad98c9",
      "resource": {
        "resourceType": "Specimen",
        "id": "59a25d3b-38be-4866-9085-f87890ad98c9",
        "meta": {
          "profile": [
            "http://hl7.eu/fhir/laboratory/StructureDefinition/Specimen-eu-lab"
          ]
        },
        "collection": {
          "collectedDateTime": "2025-05-05"
        },
        "text": {
          "status": "generated",
          "div": "<div xmlns=\"http://www.w3.org/1999/xhtml\"><table class=\"hl7__eu__lab__report\"><tr><th>Specimen</th><th>Collection Date</th></tr><tr><td>Serum specimen</td><td><span class=\"nb\">05-May-2025</span></td></tr></table></div>"
        },
        "type": {
          "coding": [
            {
              "code": "119364003",
              "system": "http://snomed.info/sct",
              "display": "Serum specimen"
            }
          ]
        }
      }
    },
    {
      "fullUrl": "urn:uuid:3a915d46-2019-4fdb-9322-53ca71148512",
      "resource": {
        "resourceType": "Observation",
        "id": "3a915d46-2019-4fdb-9322-53ca71148512",
        "meta": {
          "profile": [
            "http://hl7.eu/fhir/laboratory/StructureDefinition/Observation-resultslab-eu-lab"
          ]
        },
        "performer": [
          {
            "display": "The Central European Lab"
          }
        ],
        "category": [
          {
            "coding": [
              {
                "system": "http://terminology.hl7.org/CodeSystem/observation-category",
                "code": "laboratory"
              }
            ]
          }
        ],
        "code": {
          "coding": [
            {
              "code": "2339-0",
              "system": "http://loinc.org",
              "display": "Glucose [Mass/volume] in Blood"
            }
          ],
          "text": "Glucose [Mass/volume] in Blood"
        },
        "valueQuantity": {
          "system": "http://unitsofmeasure.org",
          "value": 99.4,
          "unit": "mg/dL",
          "code": "mg/dL"
        },
        "referenceRange": [
          {
            "low": {
              "value": 70,
              "code": "mg/dL",
              "system": "http://unitsofmeasure.org"
            }
          },
          {
            "high": {
              "value": 140,
              "code": "mg/dL",
              "system": "http://unitsofmeasure.org"
            }
          }
        ],
        "text": {
          "status": "generated",
          "div": "<div xmlns=\"http://www.w3.org/1999/xhtml\"><table class=\"hl7__eu__lab__report\"><tr><th>Test</th><th>05-May-2025</th><th>Reference&#xA0;Range</th><th>Unit</th></tr><tr><td>Glucose [Mass/volume] in Blood</td><td>99.4</td><td>70 - 140</td><td></td><td>mg/dL</td></tr></table></div>"
        },
        "status": "final",
        "subject": {
          "reference": "urn:uuid:4e475507-e80f-4e3e-8d3b-960682a10cf0",
          "display": "Eileen Taylor"
        },
        "effectiveDateTime": "2025-05-05T05:47:02Z",
        "specimen": {
          "reference": "urn:uuid:42b776fd-0c1b-40a9-8cad-fe043c6c6195"
        }
      }
    },
    {
      "fullUrl": "urn:uuid:2611d5d5-d573-46e2-8909-99eb940a8594",
      "resource": {
        "resourceType": "Observation",
        "id": "2611d5d5-d573-46e2-8909-99eb940a8594",
        "meta": {
          "profile": [
            "http://hl7.eu/fhir/laboratory/StructureDefinition/Observation-resultslab-eu-lab"
          ]
        },
        "performer": [
          {
            "display": "The Central European Lab"
          }
        ],
        "category": [
          {
            "coding": [
              {
                "system": "http://terminology.hl7.org/CodeSystem/observation-category",
                "code": "laboratory"
              }
            ]
          }
        ],
        "code": {
          "coding": [
            {
              "code": "6299-2",
              "system": "http://loinc.org",
              "display": "Urea nitrogen [Mass/volume] in Blood"
            }
          ],
          "text": "Urea nitrogen [Mass/volume] in Blood"
        },
        "valueQuantity": {
          "system": "http://unitsofmeasure.org",
          "value": 15.8,
          "unit": "mg/dL",
          "code": "mg/dL"
        },
        "referenceRange": [
          {
            "low": {
              "value": 7,
              "code": "mg/dL",
              "system": "http://unitsofmeasure.org"
            }
          },
          {
            "high": {
              "value": 20,
              "code": "mg/dL",
              "system": "http://unitsofmeasure.org"
            }
          }
        ],
        "text": {
          "status": "generated",
          "div": "<div xmlns=\"http://www.w3.org/1999/xhtml\"><table class=\"hl7__eu__lab__report\"><tr><th>Test</th><th>05-May-2025</th><th>Reference&#xA0;Range</th><th>Unit</th></tr><tr><td>Urea nitrogen [Mass/volume] in Blood</td><td>15.8</td><td>7 - 20</td><td></td><td>mg/dL</td></tr></table></div>"
        },
        "status": "final",
        "subject": {
          "reference": "urn:uuid:4e475507-e80f-4e3e-8d3b-960682a10cf0",
          "display": "Eileen Taylor"
        },
        "effectiveDateTime": "2025-05-05T05:47:02Z",
        "specimen": {
          "reference": "urn:uuid:42b776fd-0c1b-40a9-8cad-fe043c6c6195"
        }
      }
    },
    {
      "fullUrl": "urn:uuid:6ff2904d-9eb1-4f62-9214-f64a6c2bc4d2",
      "resource": {
        "resourceType": "Observation",
        "id": "6ff2904d-9eb1-4f62-9214-f64a6c2bc4d2",
        "meta": {
          "profile": [
            "http://hl7.eu/fhir/laboratory/StructureDefinition/Observation-resultslab-eu-lab"
          ]
        },
        "performer": [
          {
            "display": "The Central European Lab"
          }
        ],
        "category": [
          {
            "coding": [
              {
                "system": "http://terminology.hl7.org/CodeSystem/observation-category",
                "code": "laboratory"
              }
            ]
          }
        ],
        "code": {
          "coding": [
            {
              "code": "38483-4",
              "system": "http://loinc.org",
              "display": "Creatinine [Mass/volume] in Blood"
            }
          ],
          "text": "Creatinine [Mass/volume] in Blood"
        },
        "valueQuantity": {
          "system": "http://unitsofmeasure.org",
          "value": 3.1,
          "unit": "mg/dL",
          "code": "mg/dL"
        },
        "referenceRange": [
          {
            "low": {
              "value": 0.6,
              "code": "mg/dL",
              "system": "http://unitsofmeasure.org"
            }
          },
          {
            "high": {
              "value": 1.1,
              "code": "mg/dL",
              "system": "http://unitsofmeasure.org"
            }
          }
        ],
        "interpretation": [
          {
            "coding": [
              {
                "code": "H",
                "system": "http://terminology.hl7.org/CodeSystem/v3-ObservationInterpretation",
                "display": "High"
              }
            ]
          }
        ],
        "text": {
          "status": "generated",
          "div": "<div xmlns=\"http://www.w3.org/1999/xhtml\"><table class=\"hl7__eu__lab__report\"><tr><th>Test</th><th>05-May-2025</th><th>Reference&#xA0;Range</th><th>Unit</th></tr><tr><td>Creatinine [Mass/volume] in Blood</td><td>3.1</td><td>0.6 - 1.1</td><td>H</td><td>mg/dL</td></tr></table></div>"
        },
        "status": "final",
        "subject": {
          "reference": "urn:uuid:4e475507-e80f-4e3e-8d3b-960682a10cf0",
          "display": "Eileen Taylor"
        },
        "effectiveDateTime": "2025-05-05T05:47:02Z",
        "specimen": {
          "reference": "urn:uuid:42b776fd-0c1b-40a9-8cad-fe043c6c6195"
        }
      }
    },
    {
      "fullUrl": "urn:uuid:7e3479f2-800c-4f8e-9860-e31765423e46",
      "resource": {
        "resourceType": "Observation",
        "id": "7e3479f2-800c-4f8e-9860-e31765423e46",
        "meta": {
          "profile": [
            "http://hl7.eu/fhir/laboratory/StructureDefinition/Observation-resultslab-eu-lab"
          ]
        },
        "performer": [
          {
            "display": "The Central European Lab"
          }
        ],
        "category": [
          {
            "coding": [
              {
                "system": "http://terminology.hl7.org/CodeSystem/observation-category",
                "code": "laboratory"
              }
            ]
          }
        ],
        "code": {
          "coding": [
            {
              "code": "49765-1",
              "system": "http://loinc.org",
              "display": "Calcium [Mass/volume] in Blood"
            }
          ],
          "text": "Calcium [Mass/volume] in Blood"
        },
        "valueQuantity": {
          "system": "http://unitsofmeasure.org",
          "value": 9.7,
          "unit": "mg/dL",
          "code": "mg/dL"
        },
        "referenceRange": [
          {
            "low": {
              "value": 8.5,
              "code": "mg/dL",
              "system": "http://unitsofmeasure.org"
            }
          },
          {
            "high": {
              "value": 10.4,
              "code": "mg/dL",
              "system": "http://unitsofmeasure.org"
            }
          }
        ],
        "text": {
          "status": "generated",
          "div": "<div xmlns=\"http://www.w3.org/1999/xhtml\"><table class=\"hl7__eu__lab__report\"><tr><th>Test</th><th>05-May-2025</th><th>Reference&#xA0;Range</th><th>Unit</th></tr><tr><td>Calcium [Mass/volume] in Blood</td><td>9.7</td><td>8.5 - 10.4</td><td></td><td>mg/dL</td></tr></table></div>"
        },
        "status": "final",
        "subject": {
          "reference": "urn:uuid:4e475507-e80f-4e3e-8d3b-960682a10cf0",
          "display": "Eileen Taylor"
        },
        "effectiveDateTime": "2025-05-05T05:47:02Z",
        "specimen": {
          "reference": "urn:uuid:42b776fd-0c1b-40a9-8cad-fe043c6c6195"
        }
      }
    },
    {
      "fullUrl": "urn:uuid:bd0ff502-2f19-43ad-a2a7-8dd307bfb8c8",
      "resource": {
        "resourceType": "Observation",
        "id": "bd0ff502-2f19-43ad-a2a7-8dd307bfb8c8",
        "meta": {
          "profile": [
            "http://hl7.eu/fhir/laboratory/StructureDefinition/Observation-resultslab-eu-lab"
          ]
        },
        "performer": [
          {
            "display": "The Central European Lab"
          }
        ],
        "category": [
          {
            "coding": [
              {
                "system": "http://terminology.hl7.org/CodeSystem/observation-category",
                "code": "laboratory"
              }
            ]
          }
        ],
        "code": {
          "coding": [
            {
              "code": "2947-0",
              "system": "http://loinc.org",
              "display": "Sodium [Moles/volume] in Blood"
            }
          ],
          "text": "Sodium [Moles/volume] in Blood"
        },
        "valueQuantity": {
          "system": "http://unitsofmeasure.org",
          "value": 136.4,
          "unit": "mmol/L",
          "code": "mmol/L"
        },
        "referenceRange": [
          {
            "low": {
              "value": 135,
              "code": "mmol/L",
              "system": "http://unitsofmeasure.org"
            }
          },
          {
            "high": {
              "value": 145,
              "code": "mmol/L",
              "system": "http://unitsofmeasure.org"
            }
          }
        ],
        "text": {
          "status": "generated",
          "div": "<div xmlns=\"http://www.w3.org/1999/xhtml\"><table class=\"hl7__eu__lab__report\"><tr><th>Test</th><th>05-May-2025</th><th>Reference&#xA0;Range</th><th>Unit</th></tr><tr><td>Sodium [Moles/volume] in Blood</td><td>136.4</td><td>135 - 145</td><td></td><td>mmol/L</td></tr></table></div>"
        },
        "status": "final",
        "subject": {
          "reference": "urn:uuid:4e475507-e80f-4e3e-8d3b-960682a10cf0",
          "display": "Eileen Taylor"
        },
        "effectiveDateTime": "2025-05-05T05:47:02Z",
        "specimen": {
          "reference": "urn:uuid:42b776fd-0c1b-40a9-8cad-fe043c6c6195"
        }
      }
    },
    {
      "fullUrl": "urn:uuid:8f1c076d-e648-4096-8611-8ef156be2faf",
      "resource": {
        "resourceType": "Observation",
        "id": "8f1c076d-e648-4096-8611-8ef156be2faf",
        "meta": {
          "profile": [
            "http://hl7.eu/fhir/laboratory/StructureDefinition/Observation-resultslab-eu-lab"
          ]
        },
        "performer": [
          {
            "display": "The Central European Lab"
          }
        ],
        "category": [
          {
            "coding": [
              {
                "system": "http://terminology.hl7.org/CodeSystem/observation-category",
                "code": "laboratory"
              }
            ]
          }
        ],
        "code": {
          "coding": [
            {
              "code": "6298-4",
              "system": "http://loinc.org",
              "display": "Potassium [Moles/volume] in Blood"
            }
          ],
          "text": "Potassium [Moles/volume] in Blood"
        },
        "valueQuantity": {
          "system": "http://unitsofmeasure.org",
          "value": 4.5,
          "unit": "mmol/L",
          "code": "mmol/L"
        },
        "referenceRange": [
          {
            "low": {
              "value": 3.5,
              "code": "mmol/L",
              "system": "http://unitsofmeasure.org"
            }
          },
          {
            "high": {
              "value": 5.1,
              "code": "mmol/L",
              "system": "http://unitsofmeasure.org"
            }
          }
        ],
        "text": {
          "status": "generated",
          "div": "<div xmlns=\"http://www.w3.org/1999/xhtml\"><table class=\"hl7__eu__lab__report\"><tr><th>Test</th><th>05-May-2025</th><th>Reference&#xA0;Range</th><th>Unit</th></tr><tr><td>Potassium [Moles/volume] in Blood</td><td>4.5</td><td>3.5 - 5.1</td><td></td><td>mmol/L</td></tr></table></div>"
        },
        "status": "final",
        "subject": {
          "reference": "urn:uuid:4e475507-e80f-4e3e-8d3b-960682a10cf0",
          "display": "Eileen Taylor"
        },
        "effectiveDateTime": "2025-05-05T05:47:02Z",
        "specimen": {
          "reference": "urn:uuid:42b776fd-0c1b-40a9-8cad-fe043c6c6195"
        }
      }
    },
    {
      "fullUrl": "urn:uuid:17605710-ca1d-4bdb-9680-529d2bc38ece",
      "resource": {
        "resourceType": "Observation",
        "id": "17605710-ca1d-4bdb-9680-529d2bc38ece",
        "meta": {
          "profile": [
            "http://hl7.eu/fhir/laboratory/StructureDefinition/Observation-resultslab-eu-lab"
          ]
        },
        "performer": [
          {
            "display": "The Central European Lab"
          }
        ],
        "category": [
          {
            "coding": [
              {
                "system": "http://terminology.hl7.org/CodeSystem/observation-category",
                "code": "laboratory"
              }
            ]
          }
        ],
        "code": {
          "coding": [
            {
              "code": "2069-3",
              "system": "http://loinc.org",
              "display": "Chloride [Moles/volume] in Blood"
            }
          ],
          "text": "Chloride [Moles/volume] in Blood"
        },
        "valueQuantity": {
          "system": "http://unitsofmeasure.org",
          "value": 105.1,
          "unit": "mmol/L",
          "code": "mmol/L"
        },
        "referenceRange": [
          {
            "low": {
              "value": 98,
              "code": "mmol/L",
              "system": "http://unitsofmeasure.org"
            }
          },
          {
            "high": {
              "value": 108,
              "code": "mmol/L",
              "system": "http://unitsofmeasure.org"
            }
          }
        ],
        "text": {
          "status": "generated",
          "div": "<div xmlns=\"http://www.w3.org/1999/xhtml\"><table class=\"hl7__eu__lab__report\"><tr><th>Test</th><th>05-May-2025</th><th>Reference&#xA0;Range</th><th>Unit</th></tr><tr><td>Chloride [Moles/volume] in Blood</td><td>105.1</td><td>98 - 108</td><td></td><td>mmol/L</td></tr></table></div>"
        },
        "status": "final",
        "subject": {
          "reference": "urn:uuid:4e475507-e80f-4e3e-8d3b-960682a10cf0",
          "display": "Eileen Taylor"
        },
        "effectiveDateTime": "2025-05-05T05:47:02Z",
        "specimen": {
          "reference": "urn:uuid:42b776fd-0c1b-40a9-8cad-fe043c6c6195"
        }
      }
    },
    {
      "fullUrl": "urn:uuid:a5cb4915-3a5c-428b-83ff-d661cd906096",
      "resource": {
        "resourceType": "Observation",
        "id": "a5cb4915-3a5c-428b-83ff-d661cd906096",
        "meta": {
          "profile": [
            "http://hl7.eu/fhir/laboratory/StructureDefinition/Observation-resultslab-eu-lab"
          ]
        },
        "performer": [
          {
            "display": "The Central European Lab"
          }
        ],
        "category": [
          {
            "coding": [
              {
                "system": "http://terminology.hl7.org/CodeSystem/observation-category",
                "code": "laboratory"
              }
            ]
          }
        ],
        "code": {
          "coding": [
            {
              "code": "20565-8",
              "system": "http://loinc.org",
              "display": "Carbon dioxide, total [Moles/volume] in Blood"
            }
          ],
          "text": "Carbon dioxide, total [Moles/volume] in Blood"
        },
        "valueQuantity": {
          "system": "http://unitsofmeasure.org",
          "value": 26.1,
          "unit": "mmol/L",
          "code": "mmol/L"
        },
        "referenceRange": [
          {
            "low": {
              "value": 22,
              "code": "mmol/L",
              "system": "http://unitsofmeasure.org"
            }
          },
          {
            "high": {
              "value": 29,
              "code": "mmol/L",
              "system": "http://unitsofmeasure.org"
            }
          }
        ],
        "text": {
          "status": "generated",
          "div": "<div xmlns=\"http://www.w3.org/1999/xhtml\"><table class=\"hl7__eu__lab__report\"><tr><th>Test</th><th>05-May-2025</th><th>Reference&#xA0;Range</th><th>Unit</th></tr><tr><td>Carbon dioxide, total [Moles/volume] in Blood</td><td>26.1</td><td>22 - 29</td><td></td><td>mmol/L</td></tr></table></div>"
        },
        "status": "final",
        "subject": {
          "reference": "urn:uuid:4e475507-e80f-4e3e-8d3b-960682a10cf0",
          "display": "Eileen Taylor"
        },
        "effectiveDateTime": "2025-05-05T05:47:02Z",
        "specimen": {
          "reference": "urn:uuid:42b776fd-0c1b-40a9-8cad-fe043c6c6195"
        }
      }
    },
    {
      "fullUrl": "urn:uuid:d706b39e-ccc4-4824-93a8-04d6aa06af5d",
      "resource": {
        "resourceType": "Observation",
        "id": "d706b39e-ccc4-4824-93a8-04d6aa06af5d",
        "meta": {
          "profile": [
            "http://hl7.eu/fhir/laboratory/StructureDefinition/Observation-resultslab-eu-lab"
          ]
        },
        "performer": [
          {
            "display": "The Central European Lab"
          }
        ],
        "category": [
          {
            "coding": [
              {
                "system": "http://terminology.hl7.org/CodeSystem/observation-category",
                "code": "laboratory"
              }
            ]
          }
        ],
        "code": {
          "coding": [
            {
              "code": "2885-2",
              "system": "http://loinc.org",
              "display": "Protein [Mass/volume] in Serum or Plasma"
            }
          ],
          "text": "Protein [Mass/volume] in Serum or Plasma"
        },
        "valueQuantity": {
          "system": "http://unitsofmeasure.org",
          "value": 6.8,
          "unit": "g/dL",
          "code": "g/dL"
        },
        "referenceRange": [
          {
            "low": {
              "value": 6,
              "code": "g/dL",
              "system": "http://unitsofmeasure.org"
            }
          },
          {
            "high": {
              "value": 8.3,
              "code": "g/dL",
              "system": "http://unitsofmeasure.org"
            }
          }
        ],
        "text": {
          "status": "generated",
          "div": "<div xmlns=\"http://www.w3.org/1999/xhtml\"><table class=\"hl7__eu__lab__report\"><tr><th>Test</th><th>05-May-2025</th><th>Reference&#xA0;Range</th><th>Unit</th></tr><tr><td>Protein [Mass/volume] in Serum or Plasma</td><td>6.8</td><td>6 - 8.3</td><td></td><td>g/dL</td></tr></table></div>"
        },
        "status": "final",
        "subject": {
          "reference": "urn:uuid:4e475507-e80f-4e3e-8d3b-960682a10cf0",
          "display": "Eileen Taylor"
        },
        "effectiveDateTime": "2025-05-05T05:47:02Z",
        "specimen": {
          "reference": "urn:uuid:d4edd8f8-1381-4edc-85af-588d3fb2778a"
        }
      }
    },
    {
      "fullUrl": "urn:uuid:c3fa0216-3f8b-42ee-a1a0-60b25530fe78",
      "resource": {
        "resourceType": "Observation",
        "id": "c3fa0216-3f8b-42ee-a1a0-60b25530fe78",
        "meta": {
          "profile": [
            "http://hl7.eu/fhir/laboratory/StructureDefinition/Observation-resultslab-eu-lab"
          ]
        },
        "performer": [
          {
            "display": "The Central European Lab"
          }
        ],
        "category": [
          {
            "coding": [
              {
                "system": "http://terminology.hl7.org/CodeSystem/observation-category",
                "code": "laboratory"
              }
            ]
          }
        ],
        "code": {
          "coding": [
            {
              "code": "1751-7",
              "system": "http://loinc.org",
              "display": "Albumin [Mass/volume] in Serum or Plasma"
            }
          ],
          "text": "Albumin [Mass/volume] in Serum or Plasma"
        },
        "valueQuantity": {
          "system": "http://unitsofmeasure.org",
          "value": 5.2,
          "unit": "g/dL",
          "code": "g/dL"
        },
        "referenceRange": [
          {
            "low": {
              "value": 3.4,
              "code": "g/dL",
              "system": "http://unitsofmeasure.org"
            }
          },
          {
            "high": {
              "value": 5,
              "code": "g/dL",
              "system": "http://unitsofmeasure.org"
            }
          }
        ],
        "interpretation": [
          {
            "coding": [
              {
                "code": "H",
                "system": "http://terminology.hl7.org/CodeSystem/v3-ObservationInterpretation",
                "display": "High"
              }
            ]
          }
        ],
        "text": {
          "status": "generated",
          "div": "<div xmlns=\"http://www.w3.org/1999/xhtml\"><table class=\"hl7__eu__lab__report\"><tr><th>Test</th><th>05-May-2025</th><th>Reference&#xA0;Range</th><th>Unit</th></tr><tr><td>Albumin [Mass/volume] in Serum or Plasma</td><td>5.2</td><td>3.4 - 5</td><td>H</td><td>g/dL</td></tr></table></div>"
        },
        "status": "final",
        "subject": {
          "reference": "urn:uuid:4e475507-e80f-4e3e-8d3b-960682a10cf0",
          "display": "Eileen Taylor"
        },
        "effectiveDateTime": "2025-05-05T05:47:02Z",
        "specimen": {
          "reference": "urn:uuid:d4edd8f8-1381-4edc-85af-588d3fb2778a"
        }
      }
    },
    {
      "fullUrl": "urn:uuid:59c582cf-e002-4c5a-a1b6-b70150ac7821",
      "resource": {
        "resourceType": "Observation",
        "id": "59c582cf-e002-4c5a-a1b6-b70150ac7821",
        "meta": {
          "profile": [
            "http://hl7.eu/fhir/laboratory/StructureDefinition/Observation-resultslab-eu-lab"
          ]
        },
        "performer": [
          {
            "display": "The Central European Lab"
          }
        ],
        "category": [
          {
            "coding": [
              {
                "system": "http://terminology.hl7.org/CodeSystem/observation-category",
                "code": "laboratory"
              }
            ]
          }
        ],
        "code": {
          "coding": [
            {
              "code": "10834-0",
              "system": "http://loinc.org",
              "display": "Globulin [Mass/volume] in Serum by calculation"
            }
          ],
          "text": "Globulin [Mass/volume] in Serum by calculation"
        },
        "valueQuantity": {
          "system": "http://unitsofmeasure.org",
          "value": 2.1,
          "unit": "g/L",
          "code": "g/L"
        },
        "referenceRange": [
          {
            "low": {
              "value": 2,
              "code": "g/L",
              "system": "http://unitsofmeasure.org"
            }
          },
          {
            "high": {
              "value": 3.5,
              "code": "g/L",
              "system": "http://unitsofmeasure.org"
            }
          }
        ],
        "text": {
          "status": "generated",
          "div": "<div xmlns=\"http://www.w3.org/1999/xhtml\"><table class=\"hl7__eu__lab__report\"><tr><th>Test</th><th>05-May-2025</th><th>Reference&#xA0;Range</th><th>Unit</th></tr><tr><td>Globulin [Mass/volume] in Serum by calculation</td><td>2.1</td><td>2 - 3.5</td><td></td><td>g/L</td></tr></table></div>"
        },
        "status": "final",
        "subject": {
          "reference": "urn:uuid:4e475507-e80f-4e3e-8d3b-960682a10cf0",
          "display": "Eileen Taylor"
        },
        "effectiveDateTime": "2025-05-05T05:47:02Z",
        "specimen": {
          "reference": "urn:uuid:59a25d3b-38be-4866-9085-f87890ad98c9"
        }
      }
    },
    {
      "fullUrl": "urn:uuid:4c30aeaf-b5ec-46bd-8c1e-99b1d4733b97",
      "resource": {
        "resourceType": "Observation",
        "id": "4c30aeaf-b5ec-46bd-8c1e-99b1d4733b97",
        "meta": {
          "profile": [
            "http://hl7.eu/fhir/laboratory/StructureDefinition/Observation-resultslab-eu-lab"
          ]
        },
        "performer": [
          {
            "display": "The Central European Lab"
          }
        ],
        "category": [
          {
            "coding": [
              {
                "system": "http://terminology.hl7.org/CodeSystem/observation-category",
                "code": "laboratory"
              }
            ]
          }
        ],
        "code": {
          "coding": [
            {
              "code": "1975-2",
              "system": "http://loinc.org",
              "display": "Bilirubin.total [Mass/volume] in Serum or Plasma"
            }
          ],
          "text": "Bilirubin.total [Mass/volume] in Serum or Plasma"
        },
        "valueQuantity": {
          "system": "http://unitsofmeasure.org",
          "value": 0.7,
          "unit": "mg/dL",
          "code": "mg/dL"
        },
        "referenceRange": [
          {
            "low": {
              "value": 0.2,
              "code": "mg/dL",
              "system": "http://unitsofmeasure.org"
            }
          },
          {
            "high": {
              "value": 1.2,
              "code": "mg/dL",
              "system": "http://unitsofmeasure.org"
            }
          }
        ],
        "text": {
          "status": "generated",
          "div": "<div xmlns=\"http://www.w3.org/1999/xhtml\"><table class=\"hl7__eu__lab__report\"><tr><th>Test</th><th>05-May-2025</th><th>Reference&#xA0;Range</th><th>Unit</th></tr><tr><td>Bilirubin.total [Mass/volume] in Serum or Plasma</td><td>0.7</td><td>0.2 - 1.2</td><td></td><td>mg/dL</td></tr></table></div>"
        },
        "status": "final",
        "subject": {
          "reference": "urn:uuid:4e475507-e80f-4e3e-8d3b-960682a10cf0",
          "display": "Eileen Taylor"
        },
        "effectiveDateTime": "2025-05-05T05:47:02Z",
        "specimen": {
          "reference": "urn:uuid:d4edd8f8-1381-4edc-85af-588d3fb2778a"
        }
      }
    },
    {
      "fullUrl": "urn:uuid:7294a80c-3aab-4c1a-a2e1-51a519ea6e82",
      "resource": {
        "resourceType": "Observation",
        "id": "7294a80c-3aab-4c1a-a2e1-51a519ea6e82",
        "meta": {
          "profile": [
            "http://hl7.eu/fhir/laboratory/StructureDefinition/Observation-resultslab-eu-lab"
          ]
        },
        "performer": [
          {
            "display": "The Central European Lab"
          }
        ],
        "category": [
          {
            "coding": [
              {
                "system": "http://terminology.hl7.org/CodeSystem/observation-category",
                "code": "laboratory"
              }
            ]
          }
        ],
        "code": {
          "coding": [
            {
              "code": "6768-6",
              "system": "http://loinc.org",
              "display": "Alkaline phosphatase [Enzymatic activity/volume] in Serum or Plasma"
            }
          ],
          "text": "Alkaline phosphatase [Enzymatic activity/volume] in Serum or Plasma"
        },
        "valueQuantity": {
          "system": "http://unitsofmeasure.org",
          "value": 127.5,
          "unit": "U/L",
          "code": "U/L"
        },
        "referenceRange": [
          {
            "low": {
              "value": 44,
              "code": "U/L",
              "system": "http://unitsofmeasure.org"
            }
          },
          {
            "high": {
              "value": 104,
              "code": "U/L",
              "system": "http://unitsofmeasure.org"
            }
          }
        ],
        "interpretation": [
          {
            "coding": [
              {
                "code": "H",
                "system": "http://terminology.hl7.org/CodeSystem/v3-ObservationInterpretation",
                "display": "High"
              }
            ]
          }
        ],
        "text": {
          "status": "generated",
          "div": "<div xmlns=\"http://www.w3.org/1999/xhtml\"><table class=\"hl7__eu__lab__report\"><tr><th>Test</th><th>05-May-2025</th><th>Reference&#xA0;Range</th><th>Unit</th></tr><tr><td>Alkaline phosphatase [Enzymatic activity/volume] in Serum or Plasma</td><td>127.5</td><td>44 - 104</td><td>H</td><td>U/L</td></tr></table></div>"
        },
        "status": "final",
        "subject": {
          "reference": "urn:uuid:4e475507-e80f-4e3e-8d3b-960682a10cf0",
          "display": "Eileen Taylor"
        },
        "effectiveDateTime": "2025-05-05T05:47:02Z",
        "specimen": {
          "reference": "urn:uuid:d4edd8f8-1381-4edc-85af-588d3fb2778a"
        }
      }
    },
    {
      "fullUrl": "urn:uuid:e28cfa5f-86b2-40c8-9acc-6198ed6af984",
      "resource": {
        "resourceType": "Observation",
        "id": "e28cfa5f-86b2-40c8-9acc-6198ed6af984",
        "meta": {
          "profile": [
            "http://hl7.eu/fhir/laboratory/StructureDefinition/Observation-resultslab-eu-lab"
          ]
        },
        "performer": [
          {
            "display": "The Central European Lab"
          }
        ],
        "category": [
          {
            "coding": [
              {
                "system": "http://terminology.hl7.org/CodeSystem/observation-category",
                "code": "laboratory"
              }
            ]
          }
        ],
        "code": {
          "coding": [
            {
              "code": "1742-6",
              "system": "http://loinc.org",
              "display": "Alanine aminotransferase [Enzymatic activity/volume] in Serum or Plasma"
            }
          ],
          "text": "Alanine aminotransferase [Enzymatic activity/volume] in Serum or Plasma"
        },
        "valueQuantity": {
          "system": "http://unitsofmeasure.org",
          "value": 46.3,
          "unit": "U/L",
          "code": "U/L"
        },
        "referenceRange": [
          {
            "low": {
              "value": 13,
              "code": "U/L",
              "system": "http://unitsofmeasure.org"
            }
          },
          {
            "high": {
              "value": 36,
              "code": "U/L",
              "system": "http://unitsofmeasure.org"
            }
          }
        ],
        "interpretation": [
          {
            "coding": [
              {
                "code": "H",
                "system": "http://terminology.hl7.org/CodeSystem/v3-ObservationInterpretation",
                "display": "High"
              }
            ]
          }
        ],
        "text": {
          "status": "generated",
          "div": "<div xmlns=\"http://www.w3.org/1999/xhtml\"><table class=\"hl7__eu__lab__report\"><tr><th>Test</th><th>05-May-2025</th><th>Reference&#xA0;Range</th><th>Unit</th></tr><tr><td>Alanine aminotransferase [Enzymatic activity/volume] in Serum or Plasma</td><td>46.3</td><td>13 - 36</td><td>H</td><td>U/L</td></tr></table></div>"
        },
        "status": "final",
        "subject": {
          "reference": "urn:uuid:4e475507-e80f-4e3e-8d3b-960682a10cf0",
          "display": "Eileen Taylor"
        },
        "effectiveDateTime": "2025-05-05T05:47:02Z",
        "specimen": {
          "reference": "urn:uuid:d4edd8f8-1381-4edc-85af-588d3fb2778a"
        }
      }
    },
    {
      "fullUrl": "urn:uuid:b4f222af-681d-4991-959b-bb563f157e9b",
      "resource": {
        "resourceType": "Observation",
        "id": "b4f222af-681d-4991-959b-bb563f157e9b",
        "meta": {
          "profile": [
            "http://hl7.eu/fhir/laboratory/StructureDefinition/Observation-resultslab-eu-lab"
          ]
        },
        "performer": [
          {
            "display": "The Central European Lab"
          }
        ],
        "category": [
          {
            "coding": [
              {
                "system": "http://terminology.hl7.org/CodeSystem/observation-category",
                "code": "laboratory"
              }
            ]
          }
        ],
        "code": {
          "coding": [
            {
              "code": "1920-8",
              "system": "http://loinc.org",
              "display": "Aspartate aminotransferase [Enzymatic activity/volume] in Serum or Plasma"
            }
          ],
          "text": "Aspartate aminotransferase [Enzymatic activity/volume] in Serum or Plasma"
        },
        "valueQuantity": {
          "system": "http://unitsofmeasure.org",
          "value": 36.8,
          "unit": "U/L",
          "code": "U/L"
        },
        "referenceRange": [
          {
            "low": {
              "value": 10,
              "code": "U/L",
              "system": "http://unitsofmeasure.org"
            }
          },
          {
            "high": {
              "value": 40,
              "code": "U/L",
              "system": "http://unitsofmeasure.org"
            }
          }
        ],
        "text": {
          "status": "generated",
          "div": "<div xmlns=\"http://www.w3.org/1999/xhtml\"><table class=\"hl7__eu__lab__report\"><tr><th>Test</th><th>05-May-2025</th><th>Reference&#xA0;Range</th><th>Unit</th></tr><tr><td>Aspartate aminotransferase [Enzymatic activity/volume] in Serum or Plasma</td><td>36.8</td><td>10 - 40</td><td></td><td>U/L</td></tr></table></div>"
        },
        "status": "final",
        "subject": {
          "reference": "urn:uuid:4e475507-e80f-4e3e-8d3b-960682a10cf0",
          "display": "Eileen Taylor"
        },
        "effectiveDateTime": "2025-05-05T05:47:02Z",
        "specimen": {
          "reference": "urn:uuid:d4edd8f8-1381-4edc-85af-588d3fb2778a"
        }
      }
    },
    {
      "fullUrl": "urn:uuid:b17a5c64-b285-4641-b5e5-854959c741c0",
      "resource": {
        "resourceType": "Observation",
        "id": "b17a5c64-b285-4641-b5e5-854959c741c0",
        "meta": {
          "profile": [
            "http://hl7.eu/fhir/laboratory/StructureDefinition/Observation-resultslab-eu-lab"
          ]
        },
        "performer": [
          {
            "display": "The Central European Lab"
          }
        ],
        "category": [
          {
            "coding": [
              {
                "system": "http://terminology.hl7.org/CodeSystem/observation-category",
                "code": "laboratory"
              }
            ]
          }
        ],
        "code": {
          "coding": [
            {
              "code": "2093-3",
              "system": "http://loinc.org",
              "display": "Cholesterol [Mass/volume] in Serum or Plasma"
            }
          ],
          "text": "Cholesterol [Mass/volume] in Serum or Plasma"
        },
        "valueQuantity": {
          "system": "http://unitsofmeasure.org",
          "value": 181.1,
          "unit": "mg/dL",
          "code": "mg/dL"
        },
        "referenceRange": [
          {
            "low": {
              "value": 130,
              "code": "mg/dL",
              "system": "http://unitsofmeasure.org"
            }
          },
          {
            "high": {
              "value": 200,
              "code": "mg/dL",
              "system": "http://unitsofmeasure.org"
            }
          }
        ],
        "text": {
          "status": "generated",
          "div": "<div xmlns=\"http://www.w3.org/1999/xhtml\"><table class=\"hl7__eu__lab__report\"><tr><th>Test</th><th>05-May-2025</th><th>Reference&#xA0;Range</th><th>Unit</th></tr><tr><td>Cholesterol [Mass/volume] in Serum or Plasma</td><td>181.1</td><td>130 - 200</td><td></td><td>mg/dL</td></tr></table></div>"
        },
        "status": "final",
        "subject": {
          "reference": "urn:uuid:4e475507-e80f-4e3e-8d3b-960682a10cf0",
          "display": "Eileen Taylor"
        },
        "effectiveDateTime": "2025-05-05T05:47:02Z",
        "specimen": {
          "reference": "urn:uuid:d4edd8f8-1381-4edc-85af-588d3fb2778a"
        }
      }
    },
    {
      "fullUrl": "urn:uuid:a444834f-8865-439d-8278-57a5bb139428",
      "resource": {
        "resourceType": "Observation",
        "id": "a444834f-8865-439d-8278-57a5bb139428",
        "meta": {
          "profile": [
            "http://hl7.eu/fhir/laboratory/StructureDefinition/Observation-resultslab-eu-lab"
          ]
        },
        "performer": [
          {
            "display": "The Central European Lab"
          }
        ],
        "category": [
          {
            "coding": [
              {
                "system": "http://terminology.hl7.org/CodeSystem/observation-category",
                "code": "laboratory"
              }
            ]
          }
        ],
        "code": {
          "coding": [
            {
              "code": "2571-8",
              "system": "http://loinc.org",
              "display": "Triglyceride [Mass/volume] in Serum or Plasma"
            }
          ],
          "text": "Triglyceride [Mass/volume] in Serum or Plasma"
        },
        "valueQuantity": {
          "system": "http://unitsofmeasure.org",
          "value": 101.8,
          "unit": "mg/dL",
          "code": "mg/dL"
        },
        "referenceRange": [
          {
            "low": {
              "value": 35,
              "code": "mg/dL",
              "system": "http://unitsofmeasure.org"
            }
          },
          {
            "high": {
              "value": 175,
              "code": "mg/dL",
              "system": "http://unitsofmeasure.org"
            }
          }
        ],
        "text": {
          "status": "generated",
          "div": "<div xmlns=\"http://www.w3.org/1999/xhtml\"><table class=\"hl7__eu__lab__report\"><tr><th>Test</th><th>05-May-2025</th><th>Reference&#xA0;Range</th><th>Unit</th></tr><tr><td>Triglyceride [Mass/volume] in Serum or Plasma</td><td>101.8</td><td>35 - 175</td><td></td><td>mg/dL</td></tr></table></div>"
        },
        "status": "final",
        "subject": {
          "reference": "urn:uuid:4e475507-e80f-4e3e-8d3b-960682a10cf0",
          "display": "Eileen Taylor"
        },
        "effectiveDateTime": "2025-05-05T05:47:02Z",
        "specimen": {
          "reference": "urn:uuid:d4edd8f8-1381-4edc-85af-588d3fb2778a"
        }
      }
    },
    {
      "fullUrl": "urn:uuid:d933a778-0114-4dca-9628-fc3ff0909d03",
      "resource": {
        "resourceType": "Observation",
        "id": "d933a778-0114-4dca-9628-fc3ff0909d03",
        "meta": {
          "profile": [
            "http://hl7.eu/fhir/laboratory/StructureDefinition/Observation-resultslab-eu-lab"
          ]
        },
        "performer": [
          {
            "display": "The Central European Lab"
          }
        ],
        "category": [
          {
            "coding": [
              {
                "system": "http://terminology.hl7.org/CodeSystem/observation-category",
                "code": "laboratory"
              }
            ]
          }
        ],
        "code": {
          "coding": [
            {
              "code": "18262-6",
              "system": "http://loinc.org",
              "display": "Cholesterol in LDL [Mass/volume] in Serum or Plasma by Direct assay"
            }
          ],
          "text": "Cholesterol in LDL [Mass/volume] in Serum or Plasma by Direct assay"
        },
        "valueQuantity": {
          "system": "http://unitsofmeasure.org",
          "value": 94,
          "unit": "mg/dL",
          "code": "mg/dL"
        },
        "referenceRange": [
          {
            "low": {
              "value": 0,
              "code": "mg/dL",
              "system": "http://unitsofmeasure.org"
            }
          },
          {
            "high": {
              "value": 190,
              "code": "mg/dL",
              "system": "http://unitsofmeasure.org"
            }
          }
        ],
        "text": {
          "status": "generated",
          "div": "<div xmlns=\"http://www.w3.org/1999/xhtml\"><table class=\"hl7__eu__lab__report\"><tr><th>Test</th><th>05-May-2025</th><th>Reference&#xA0;Range</th><th>Unit</th></tr><tr><td>Cholesterol in LDL [Mass/volume] in Serum or Plasma by Direct assay</td><td>94.0</td><td>0 - 190</td><td></td><td>mg/dL</td></tr></table></div>"
        },
        "status": "final",
        "subject": {
          "reference": "urn:uuid:4e475507-e80f-4e3e-8d3b-960682a10cf0",
          "display": "Eileen Taylor"
        },
        "effectiveDateTime": "2025-05-05T05:47:02Z",
        "specimen": {
          "reference": "urn:uuid:d4edd8f8-1381-4edc-85af-588d3fb2778a"
        }
      }
    },
    {
      "fullUrl": "urn:uuid:218f31b4-3ca8-40dc-80ca-7a7f37b10478",
      "resource": {
        "resourceType": "Observation",
        "id": "218f31b4-3ca8-40dc-80ca-7a7f37b10478",
        "meta": {
          "profile": [
            "http://hl7.eu/fhir/laboratory/StructureDefinition/Observation-resultslab-eu-lab"
          ]
        },
        "performer": [
          {
            "display": "The Central European Lab"
          }
        ],
        "category": [
          {
            "coding": [
              {
                "system": "http://terminology.hl7.org/CodeSystem/observation-category",
                "code": "laboratory"
              }
            ]
          }
        ],
        "code": {
          "coding": [
            {
              "code": "2085-9",
              "system": "http://loinc.org",
              "display": "Cholesterol in HDL [Mass/volume] in Serum or Plasma"
            }
          ],
          "text": "Cholesterol in HDL [Mass/volume] in Serum or Plasma"
        },
        "valueQuantity": {
          "system": "http://unitsofmeasure.org",
          "value": 54.9,
          "unit": "mg/dL",
          "code": "mg/dL"
        },
        "referenceRange": [
          {
            "low": {
              "value": 50,
              "code": "mg/dL",
              "system": "http://unitsofmeasure.org"
            }
          },
          {
            "high": {
              "value": 100,
              "code": "mg/dL",
              "system": "http://unitsofmeasure.org"
            }
          }
        ],
        "text": {
          "status": "generated",
          "div": "<div xmlns=\"http://www.w3.org/1999/xhtml\"><table class=\"hl7__eu__lab__report\"><tr><th>Test</th><th>05-May-2025</th><th>Reference&#xA0;Range</th><th>Unit</th></tr><tr><td>Cholesterol in HDL [Mass/volume] in Serum or Plasma</td><td>54.9</td><td>50 - 100</td><td></td><td>mg/dL</td></tr></table></div>"
        },
        "status": "final",
        "subject": {
          "reference": "urn:uuid:4e475507-e80f-4e3e-8d3b-960682a10cf0",
          "display": "Eileen Taylor"
        },
        "effectiveDateTime": "2025-05-05T05:47:02Z",
        "specimen": {
          "reference": "urn:uuid:d4edd8f8-1381-4edc-85af-588d3fb2778a"
        }
      }
    },
    {
      "fullUrl": "urn:uuid:ce3b47c6-37e1-42a0-980e-c7971ff24c17",
      "resource": {
        "resourceType": "Device",
        "id": "ce3b47c6-37e1-42a0-980e-c7971ff24c17",
        "deviceName": [
          {
            "name": "SYNDERAI Synthetic Generator",
            "type": "manufacturer-name"
          }
        ],
        "version": [
          {
            "value": "5.0"
          }
        ],
        "text": {
          "status": "generated",
          "div": "<div xmlns=\"http://www.w3.org/1999/xhtml\">SYNDERAI Synthetic Generator v5.0</div>"
        },
        "status": "active\"",
        "distinctIdentifier": "synderai-generator-50",
        "manufacturer": "SYNDERAI Project"
      }
    },
    {
      "fullUrl": "urn:uuid:105c16c1-32de-4bb8-beca-5dc21c204471",
      "resource": {
        "resourceType": "Provenance",
        "id": "105c16c1-32de-4bb8-beca-5dc21c204471",
        "target": [
          {
            "reference": "Patient/4e475507-e80f-4e3e-8d3b-960682a10cf0"
          },
          {
            "reference": "Bundle/c5c933a7-1c6c-4b36-a8eb-e0637dbd9421"
          },
          {
            "reference": "Composition/6f5784f1-2bcf-484b-9c7c-53f4f2c24ad0"
          },
          {
            "reference": "PractitionerRole/d0371e09-b9b9-4819-a159-45d062207456"
          },
          {
            "reference": "Practitioner/bc0db512-5c95-417f-ae7b-0ba3455b3bc2"
          },
          {
            "reference": "PractitionerRole/a8b0f256-daae-487a-b6e9-eaa4f1bf455c"
          },
          {
            "reference": "Organization/907928b3-53aa-4a95-bc9b-aac420d132f1"
          }
        ],
        "activity": {
          "text": "Synthetic Example Data Generation"
        },
        "policy": [
          "https://synderai.net/synderai-synthetic-data-policy"
        ],
        "agent": [
          {
            "type": {
              "text": "author"
            },
            "who": {
              "reference": "Device/ce3b47c6-37e1-42a0-980e-c7971ff24c17"
            }
          }
        ],
        "reason": [
          {
            "text": "Interoperability Testing and Training (non-clinical use)"
          }
        ],
        "text": {
          "status": "generated",
          "div": "<div xmlns=\"http://www.w3.org/1999/xhtml\">Provenance for SYNDERAI Synthetic Example Data Resource</div>"
        },
        "recorded": "2025-05-05T07:47:02Z"
      }
    },
    {
      "fullUrl": "urn:uuid:d0371e09-b9b9-4819-a159-45d062207456",
      "resource": {
        "resourceType": "PractitionerRole",
        "id": "d0371e09-b9b9-4819-a159-45d062207456",
        "meta": {
          "profile": [
            "http://hl7.eu/fhir/base/StructureDefinition/practitionerRole-eu"
          ]
        },
        "text": {
          "status": "generated",
          "div": "<div xmlns=\"http://www.w3.org/1999/xhtml\">Laboratory Role Id: d0371e09-b9b9-4819-a159-45d062207456</div>"
        },
        "practitioner": {
          "reference": "urn:uuid:bc0db512-5c95-417f-ae7b-0ba3455b3bc2"
        }
      }
    },
    {
      "fullUrl": "urn:uuid:bc0db512-5c95-417f-ae7b-0ba3455b3bc2",
      "resource": {
        "resourceType": "Practitioner",
        "id": "bc0db512-5c95-417f-ae7b-0ba3455b3bc2",
        "meta": {
          "profile": [
            "http://hl7.eu/fhir/base/StructureDefinition/practitioner-eu"
          ]
        },
        "identifier": [
          {
            "assigner": {
              "display": "HL7 Europe"
            },
            "system": "urn:oid:2.16.840.1.113883.2.51.999",
            "value": "dd5caa88-bbc6-4460-9ff4-f8a6139f7888"
          }
        ],
        "name": [
          {
            "prefix": [
              "dr"
            ],
            "given": [
              "Ex"
            ],
            "family": "Ample"
          }
        ],
        "address": [
          {
            "line": [
              "Laboratoire Central Europenne",
              "Boulevard du Jardin Botanique 32"
            ],
            "postalCode": "1000",
            "city": "Brussels",
            "country": "Belgium"
          }
        ],
        "text": {
          "status": "generated",
          "div": "<div xmlns=\"http://www.w3.org/1999/xhtml\">Laboratory: Laboratoire Central Europenne, 1000 Brussels, Belgium</div>"
        }
      }
    }
  ],
  "type": "document",
  "timestamp": "2025-05-05T07:47:02Z"
}
