{
  "resourceType": "Bundle",
  "id": "49953770-d33e-453e-80f9-074a45ddb15d",
  "meta": {
    "profile": [
      "http://hl7.eu/fhir/laboratory/StructureDefinition/Bundle-eu-lab"
    ]
  },
  "identifier": {
    "assigner": {
      "display": "HL7 Europe"
    },
    "system": "urn:oid:2.16.840.1.113883.2.51.999",
    "value": "0f16305d-e3cf-45d9-b10a-e441d91c4d9f"
  },
  "entry": [
    {
      "fullUrl": "urn:uuid:a8135e01-abb6-4f36-9063-78b88c0d77e5",
      "resource": {
        "resourceType": "Composition",
        "id": "a8135e01-abb6-4f36-9063-78b88c0d77e5",
        "meta": {
          "profile": [
            "http://hl7.eu/fhir/laboratory/StructureDefinition/Composition-eu-lab"
          ]
        },
        "identifier": {
          "assigner": {
            "display": "HL7 Europe"
          },
          "system": "urn:oid:2.16.840.1.113883.2.51.999",
          "value": "0d8fca6e-e4f7-445c-9bda-398746dcb471"
        },
        "author": [
          {
            "reference": "urn:uuid:5ae7cccf-ddaf-4159-8c07-e79882ce788c"
          }
        ],
        "category": [
          {
            "coding": [
              {
                "code": "26436-6",
                "system": "http://loinc.org",
                "display": "Laboratory studies (set)"
              }
            ]
          }
        ],
        "type": {
          "coding": [
            {
              "code": "11502-2",
              "system": "http://loinc.org",
              "display": "Laboratory report"
            }
          ],
          "text": "Laboratory Report"
        },
        "section": [
          {
            "code": {
              "coding": [
                {
                  "code": "26436-6",
                  "system": "http://loinc.org",
                  "display": "Laboratory studies (set)"
                }
              ],
              "text": "Laboratory studies"
            },
            "section": [
              {
                "code": {
                  "coding": [
                    {
                      "code": "$18719-5",
                      "system": "http://loinc.org",
                      "display": "Chemistry studies (set)"
                    }
                  ],
                  "text": "Chemistry"
                },
                "entry": [
                  {
                    "reference": "urn:uuid:8b740e1c-4b36-43d3-8894-1707c6d430a5"
                  },
                  {
                    "reference": "urn:uuid:e2a0cca0-35ab-4cf5-8a0f-e9a853e8a9be"
                  },
                  {
                    "reference": "urn:uuid:2f6b04d9-7271-4367-bc93-f4f36608c1b9"
                  },
                  {
                    "reference": "urn:uuid:adb4ebe8-4de7-44b0-a574-b5a4eb020514"
                  },
                  {
                    "reference": "urn:uuid:ee56b4d1-d56e-4a54-b608-7cb45c3b4d4f"
                  },
                  {
                    "reference": "urn:uuid:fee8489a-7f62-4780-aa95-ebbdf0bac3f3"
                  },
                  {
                    "reference": "urn:uuid:5874e5d4-7fec-4753-a5b5-8a3b0e72bff2"
                  },
                  {
                    "reference": "urn:uuid:4f18874e-ff3d-4e7a-95c0-bd2e480cead4"
                  },
                  {
                    "reference": "urn:uuid:79f397b9-8434-4ce2-b1f0-abbb2516e598"
                  },
                  {
                    "reference": "urn:uuid:6be32423-a7ff-4dbe-b21e-b918fe04afb4"
                  },
                  {
                    "reference": "urn:uuid:c3f7ee9b-1a7d-4279-9143-1050326fc3ea"
                  },
                  {
                    "reference": "urn:uuid:18d082cc-de3e-4247-a606-894d1ac6e1bb"
                  },
                  {
                    "reference": "urn:uuid:9a0a68d5-86e4-41fe-8dee-2c9537771eaf"
                  },
                  {
                    "reference": "urn:uuid:cc706d3d-9495-4ffb-b76c-1ff12d9edf10"
                  },
                  {
                    "reference": "urn:uuid:8b2601ba-b2b6-41a1-bfc8-63006e2eba87"
                  },
                  {
                    "reference": "urn:uuid:a71fcaa0-e1c3-478a-8ed0-54f7ce7f144e"
                  },
                  {
                    "reference": "urn:uuid:383fed8b-7557-4018-a724-383940b38082"
                  },
                  {
                    "reference": "urn:uuid:67691abd-c3ea-40fb-84c3-7acf0ff7e73a"
                  },
                  {
                    "reference": "urn:uuid:40616e9d-e789-4dcb-9965-e59c3ea7215c"
                  }
                ],
                "text": {
                  "status": "generated",
                  "div": "<div xmlns=\"http://www.w3.org/1999/xhtml\"><h3>Chemistry</h3><table class=\"hl7__eu__lab__report\"><thead><tr><th>Test</th><th>20-MAR-2018</th><th>Reference&#xA0;Range</th><th>Unit</th></tr></thead><tbody><tr><td>Glucose [Mass/volume] in Blood</td><td>91.3</td><td>70 - 140</td><td>mg/dL</td></tr><tr><td>Urea nitrogen [Mass/volume] in Blood</td><td>11.1</td><td>7 - 20</td><td>mg/dL</td></tr><tr><td>Creatinine [Mass/volume] in Blood</td><td><strong>2.7 H</strong></td><td>0.6 - 1.1</td><td>mg/dL</td></tr><tr><td>Calcium [Mass/volume] in Blood</td><td>9.1</td><td>8.5 - 10.4</td><td>mg/dL</td></tr><tr><td>Sodium [Moles/volume] in Blood</td><td>142.9</td><td>135 - 145</td><td>mmol/L</td></tr><tr><td>Potassium [Moles/volume] in Blood</td><td>5.0</td><td>3.5 - 5.1</td><td>mmol/L</td></tr><tr><td>Chloride [Moles/volume] in Blood</td><td>107.9</td><td>98 - 108</td><td>mmol/L</td></tr><tr><td>Carbon dioxide, total [Moles/volume] in Blood</td><td>28.5</td><td>22 - 29</td><td>mmol/L</td></tr><tr><td>Protein [Mass/volume] in Serum or Plasma</td><td>6.3</td><td>6 - 8.3</td><td>g/dL</td></tr><tr><td>Albumin [Mass/volume] in Serum or Plasma</td><td>3.7</td><td>3.4 - 5</td><td>g/dL</td></tr><tr><td>Globulin [Mass/volume] in Serum by calculation</td><td>2.6</td><td>2 - 3.5</td><td>g/L</td></tr><tr><td>Bilirubin.total [Mass/volume] in Serum or Plasma</td><td>0.4</td><td>0.2 - 1.2</td><td>mg/dL</td></tr><tr><td>Alkaline phosphatase [Enzymatic activity/volume] in Serum or Plasma</td><td><strong>133.4 H</strong></td><td>44 - 104</td><td>U/L</td></tr><tr><td>Alanine aminotransferase [Enzymatic activity/volume] in Serum or Plasma</td><td>34.2</td><td>13 - 36</td><td>U/L</td></tr><tr><td>Aspartate aminotransferase [Enzymatic activity/volume] in Serum or Plasma</td><td>23.1</td><td>10 - 40</td><td>U/L</td></tr><tr><td>Cholesterol [Mass/volume] in Serum or Plasma</td><td>151.5</td><td>130 - 200</td><td>mg/dL</td></tr><tr><td>Triglyceride [Mass/volume] in Serum or Plasma</td><td><strong>179.1 H</strong></td><td>35 - 175</td><td>mg/dL</td></tr><tr><td>Cholesterol in LDL [Mass/volume] in Serum or Plasma by Direct assay</td><td>145.1</td><td>0 - 190</td><td>mg/dL</td></tr><tr><td>Cholesterol in HDL [Mass/volume] in Serum or Plasma</td><td>53.9</td><td>50 - 100</td><td>mg/dL</td></tr></tbody></table></div>"
                },
                "title": "Chemistry"
              }
            ],
            "title": "Laboratory Report"
          },
          {
            "text": {
              "status": "generated",
              "div": "<div xmlns=\"http://www.w3.org/1999/xhtml\"><h3>Annotation</h3><table class=\"hl7__eu__lab__report\"><tr><th>Conclusion and Recommendations based on this report and previous findings known to us</th></tr><tr><td>Renal function is impaired as indicated by elevated creatinine. Alkaline phosphatase is also elevated, which may suggest possible hepatobiliary or bone involvement. Triglycerides are mildly elevated. Other parameters, including glucose, electrolytes, liver transaminases, and proteins, are within normal limits. Recommend clinical correlation and further evaluation of renal and hepatobiliary status.</td></tr></table></div>"
            },
            "code": {
              "coding": [
                {
                  "system": "http://loinc.org",
                  "code": "48767-8",
                  "display": "Annotation comment"
                }
              ]
            },
            "title": "Annotation comment"
          }
        ],
        "status": "final",
        "subject": {
          "reference": "urn:uuid:d7df4597-14ae-4dbd-8003-b722a7a94901",
          "display": "Eileen Taylor"
        },
        "date": "2018-03-20T06:47:02Z",
        "title": "Laboratory Report",
        "confidentiality": "N"
      }
    },
    {
      "fullUrl": "urn:uuid:79cc48ea-bbe8-426b-8f2f-0bb5883a836d",
      "resource": {
        "resourceType": "DiagnosticReport",
        "id": "79cc48ea-bbe8-426b-8f2f-0bb5883a836d",
        "meta": {
          "profile": [
            "http://hl7.eu/fhir/laboratory/StructureDefinition/DiagnosticReport-eu-lab"
          ]
        },
        "identifier": [
          {
            "assigner": {
              "display": "HL7 Europe"
            },
            "system": "urn:oid:2.16.840.1.113883.2.51.999",
            "value": "b9a22ae0-0707-4a9c-90a5-f6162fe8de24"
          }
        ],
        "extension": [
          {
            "url": "http://hl7.org/fhir/5.0/StructureDefinition/extension-DiagnosticReport.composition",
            "valueReference": {
              "reference": "urn:uuid:0d8fca6e-e4f7-445c-9bda-398746dcb471"
            }
          }
        ],
        "category": [
          {
            "coding": [
              {
                "code": "26436-6",
                "system": "http://loinc.org",
                "display": "Laboratory studies (set)"
              }
            ]
          }
        ],
        "specimen": [
          {
            "reference": "urn:uuid:fff2bdda-b143-454a-94e4-2132161ce5b0"
          },
          {
            "reference": "urn:uuid:6f780990-aba7-42c4-9e0c-486705a89074"
          },
          {
            "reference": "urn:uuid:4defdea4-91cd-4cad-a54d-76c9ea1c5649"
          }
        ],
        "result": [
          {
            "reference": "urn:uuid:8b740e1c-4b36-43d3-8894-1707c6d430a5"
          },
          {
            "reference": "urn:uuid:e2a0cca0-35ab-4cf5-8a0f-e9a853e8a9be"
          },
          {
            "reference": "urn:uuid:2f6b04d9-7271-4367-bc93-f4f36608c1b9"
          },
          {
            "reference": "urn:uuid:adb4ebe8-4de7-44b0-a574-b5a4eb020514"
          },
          {
            "reference": "urn:uuid:ee56b4d1-d56e-4a54-b608-7cb45c3b4d4f"
          },
          {
            "reference": "urn:uuid:fee8489a-7f62-4780-aa95-ebbdf0bac3f3"
          },
          {
            "reference": "urn:uuid:5874e5d4-7fec-4753-a5b5-8a3b0e72bff2"
          },
          {
            "reference": "urn:uuid:4f18874e-ff3d-4e7a-95c0-bd2e480cead4"
          },
          {
            "reference": "urn:uuid:79f397b9-8434-4ce2-b1f0-abbb2516e598"
          },
          {
            "reference": "urn:uuid:6be32423-a7ff-4dbe-b21e-b918fe04afb4"
          },
          {
            "reference": "urn:uuid:c3f7ee9b-1a7d-4279-9143-1050326fc3ea"
          },
          {
            "reference": "urn:uuid:18d082cc-de3e-4247-a606-894d1ac6e1bb"
          },
          {
            "reference": "urn:uuid:9a0a68d5-86e4-41fe-8dee-2c9537771eaf"
          },
          {
            "reference": "urn:uuid:cc706d3d-9495-4ffb-b76c-1ff12d9edf10"
          },
          {
            "reference": "urn:uuid:8b2601ba-b2b6-41a1-bfc8-63006e2eba87"
          },
          {
            "reference": "urn:uuid:a71fcaa0-e1c3-478a-8ed0-54f7ce7f144e"
          },
          {
            "reference": "urn:uuid:383fed8b-7557-4018-a724-383940b38082"
          },
          {
            "reference": "urn:uuid:67691abd-c3ea-40fb-84c3-7acf0ff7e73a"
          },
          {
            "reference": "urn:uuid:40616e9d-e789-4dcb-9965-e59c3ea7215c"
          }
        ],
        "status": "registered",
        "code": {
          "coding": [
            {
              "code": "11502-2",
              "system": "http://loinc.org",
              "display": "Laboratory report"
            }
          ]
        },
        "subject": {
          "reference": "urn:uuid:d7df4597-14ae-4dbd-8003-b722a7a94901",
          "display": "Eileen Taylor"
        }
      }
    },
    {
      "fullUrl": "urn:uuid:d7df4597-14ae-4dbd-8003-b722a7a94901",
      "resource": {
        "resourceType": "Patient",
        "id": "d7df4597-14ae-4dbd-8003-b722a7a94901",
        "meta": {
          "security": [
            {
              "system": "http://terminology.hl7.org/CodeSystem/v3-ActReason",
              "code": "HTEST"
            },
            {
              "system": "http://terminology.hl7.org/CodeSystem/v3-ActReason",
              "code": "TRAIN"
            }
          ],
          "tag": [
            {
              "system": "https://synderai.net/fhir/CodeSystem/tags",
              "code": "synthetic",
              "display": "SYNDERAI Synthetic data"
            }
          ],
          "profile": [
            "http://hl7.eu/fhir/base/StructureDefinition/patient-eu-core"
          ]
        },
        "identifier": [
          {
            "type": {
              "coding": [
                {
                  "code": "PT",
                  "system": "http://terminology.hl7.org/CodeSystem/v2-0203"
                }
              ]
            },
            "system": "http://ec.europa.eu/identifier/eci",
            "value": "6172-576075-7"
          },
          {
            "type": {
              "coding": [
                {
                  "code": "MR",
                  "system": "http://terminology.hl7.org/CodeSystem/v2-0203"
                }
              ]
            },
            "system": "http://local.setting.eu/identifier",
            "value": "f7f175da-cf0d-5686-8800-840d9ab7b47b"
          }
        ],
        "name": [
          {
            "family": "Taylor"
          },
          {
            "given": [
              "Eileen"
            ]
          },
          {
            "text": "Eileen Taylor"
          }
        ],
        "address": [
          {
            "line": [
              "39 Slater harbors"
            ],
            "use": "home",
            "type": "physical",
            "postalCode": "LE17",
            "city": "Smithtown",
            "country": "United Kingdom"
          }
        ],
        "telecom": [
          {
            "system": "phone",
            "value": "+44(0)1614960460"
          }
        ],
        "extension": [
          {
            "url": "http://hl7.org/fhir/StructureDefinition/patient-nationality",
            "valueCodeableConcept": {
              "coding": [
                {
                  "code": "GB",
                  "system": "http://hl7.org/fhir/ValueSet/country"
                }
              ]
            }
          }
        ],
        "text": {
          "status": "generated",
          "div": "<div xmlns=\"http://www.w3.org/1999/xhtml\"><table class=\"hl7__ips\"><tr><td>Eileen Taylor</td><td>female</td><td>11-Dec-1951</td></tr></table></div>"
        },
        "gender": "female",
        "birthDate": "1951-12-11"
      }
    },
    {
      "fullUrl": "urn:uuid:7f81b3dc-7d5e-42e2-9b03-10be129c06ed",
      "resource": {
        "resourceType": "ServiceRequest",
        "id": "7f81b3dc-7d5e-42e2-9b03-10be129c06ed",
        "meta": {
          "profile": [
            "http://hl7.eu/fhir/laboratory/StructureDefinition/ServiceRequest-eu-lab"
          ]
        },
        "identifier": [
          {
            "system": "http://example.org",
            "value": "acdbef8e-0380-41e4-9c8a-0e7e8c782522"
          }
        ],
        "specimen": [
          {
            "reference": "urn:uuid:fff2bdda-b143-454a-94e4-2132161ce5b0"
          },
          {
            "reference": "urn:uuid:6f780990-aba7-42c4-9e0c-486705a89074"
          },
          {
            "reference": "urn:uuid:4defdea4-91cd-4cad-a54d-76c9ea1c5649"
          }
        ],
        "reasonCode": [
          {
            "coding": [
              {
                "code": "203082005",
                "system": "http://snomed.info/sct",
                "display": "Fibromyalgia"
              }
            ]
          },
          {
            "coding": [
              {
                "code": "239873007",
                "system": "http://snomed.info/sct",
                "display": "Osteoarthritis of knee"
              }
            ]
          },
          {
            "coding": [
              {
                "code": "55822004",
                "system": "http://snomed.info/sct",
                "display": "Hyperlipidemia"
              }
            ]
          },
          {
            "coding": [
              {
                "code": "254837009",
                "system": "http://snomed.info/sct",
                "display": "Malignant neoplasm of breast"
              }
            ]
          },
          {
            "coding": [
              {
                "code": "197927001",
                "system": "http://snomed.info/sct",
                "display": "Recurrent urinary tract infection"
              }
            ]
          }
        ],
        "status": "active",
        "intent": "order",
        "code": {
          "coding": [
            {
              "code": "108252007",
              "system": "http://snomed.info/sct",
              "display": "Laboratory procedure"
            }
          ]
        },
        "subject": {
          "reference": "urn:uuid:d7df4597-14ae-4dbd-8003-b722a7a94901",
          "display": "Eileen Taylor"
        },
        "requester": {
          "reference": "urn:uuid:a9fa4b38-d897-4529-8d3b-0180733c0a40"
        }
      }
    },
    {
      "fullUrl": "urn:uuid:a9fa4b38-d897-4529-8d3b-0180733c0a40",
      "resource": {
        "resourceType": "PractitionerRole",
        "id": "a9fa4b38-d897-4529-8d3b-0180733c0a40",
        "meta": {
          "profile": [
            "http://hl7.eu/fhir/base/StructureDefinition/practitionerRole-eu"
          ]
        },
        "text": {
          "status": "generated",
          "div": "<div xmlns=\"http://www.w3.org/1999/xhtml\">Provider Role Id: a9fa4b38-d897-4529-8d3b-0180733c0a40</div>"
        },
        "organization": {
          "reference": "urn:uuid:76d052d5-61cc-46b1-ba74-cd1538964872"
        }
      }
    },
    {
      "fullUrl": "urn:uuid:76d052d5-61cc-46b1-ba74-cd1538964872",
      "resource": {
        "resourceType": "Organization",
        "id": "76d052d5-61cc-46b1-ba74-cd1538964872",
        "meta": {
          "profile": [
            "http://hl7.eu/fhir/base/StructureDefinition/organization-eu"
          ]
        },
        "identifier": [
          {
            "assigner": {
              "display": "HL7 Europe"
            },
            "system": "urn:oid:2.16.840.1.113883.2.51.999",
            "value": "0c311ce7-cf5c-4f2c-ae9d-270ee5ce3ea5"
          }
        ],
        "address": [
          {
            "city": "Leicester",
            "postalCode": "LE2 7",
            "country": "United Kingdom"
          }
        ],
        "text": {
          "status": "generated",
          "div": "<div xmlns=\"http://www.w3.org/1999/xhtml\">Provider Organization: Leicester Royal Infirmary</div>"
        },
        "name": "Leicester Royal Infirmary"
      }
    },
    {
      "fullUrl": "urn:uuid:fff2bdda-b143-454a-94e4-2132161ce5b0",
      "resource": {
        "resourceType": "Specimen",
        "id": "fff2bdda-b143-454a-94e4-2132161ce5b0",
        "meta": {
          "profile": [
            "http://hl7.eu/fhir/laboratory/StructureDefinition/Specimen-eu-lab"
          ]
        },
        "collection": {
          "collectedDateTime": "2018-03-20"
        },
        "text": {
          "status": "generated",
          "div": "<div xmlns=\"http://www.w3.org/1999/xhtml\"><table class=\"hl7__eu__lab__report\"><tr><th>Specimen</th><th>Collection Date</th></tr><tr><td>Whole blood specimen (specimen)</td><td><span class=\"nb\">20-Mar-2018</span></td></tr></table></div>"
        },
        "type": {
          "coding": [
            {
              "code": "258580003",
              "system": "http://snomed.info/sct",
              "display": "Whole blood specimen (specimen)"
            }
          ]
        }
      }
    },
    {
      "fullUrl": "urn:uuid:6f780990-aba7-42c4-9e0c-486705a89074",
      "resource": {
        "resourceType": "Specimen",
        "id": "6f780990-aba7-42c4-9e0c-486705a89074",
        "meta": {
          "profile": [
            "http://hl7.eu/fhir/laboratory/StructureDefinition/Specimen-eu-lab"
          ]
        },
        "collection": {
          "collectedDateTime": "2018-03-20"
        },
        "text": {
          "status": "generated",
          "div": "<div xmlns=\"http://www.w3.org/1999/xhtml\"><table class=\"hl7__eu__lab__report\"><tr><th>Specimen</th><th>Collection Date</th></tr><tr><td>Acellular blood (serum or plasma) specimen</td><td><span class=\"nb\">20-Mar-2018</span></td></tr></table></div>"
        },
        "type": {
          "coding": [
            {
              "code": "122592007",
              "system": "http://snomed.info/sct",
              "display": "Acellular blood (serum or plasma) specimen"
            }
          ]
        }
      }
    },
    {
      "fullUrl": "urn:uuid:4defdea4-91cd-4cad-a54d-76c9ea1c5649",
      "resource": {
        "resourceType": "Specimen",
        "id": "4defdea4-91cd-4cad-a54d-76c9ea1c5649",
        "meta": {
          "profile": [
            "http://hl7.eu/fhir/laboratory/StructureDefinition/Specimen-eu-lab"
          ]
        },
        "collection": {
          "collectedDateTime": "2018-03-20"
        },
        "text": {
          "status": "generated",
          "div": "<div xmlns=\"http://www.w3.org/1999/xhtml\"><table class=\"hl7__eu__lab__report\"><tr><th>Specimen</th><th>Collection Date</th></tr><tr><td>Serum specimen</td><td><span class=\"nb\">20-Mar-2018</span></td></tr></table></div>"
        },
        "type": {
          "coding": [
            {
              "code": "119364003",
              "system": "http://snomed.info/sct",
              "display": "Serum specimen"
            }
          ]
        }
      }
    },
    {
      "fullUrl": "urn:uuid:8b740e1c-4b36-43d3-8894-1707c6d430a5",
      "resource": {
        "resourceType": "Observation",
        "id": "8b740e1c-4b36-43d3-8894-1707c6d430a5",
        "meta": {
          "profile": [
            "http://hl7.eu/fhir/laboratory/StructureDefinition/Observation-resultslab-eu-lab"
          ]
        },
        "performer": [
          {
            "display": "The Central European Lab"
          }
        ],
        "category": [
          {
            "coding": [
              {
                "system": "http://terminology.hl7.org/CodeSystem/observation-category",
                "code": "laboratory"
              }
            ]
          }
        ],
        "code": {
          "coding": [
            {
              "code": "2339-0",
              "system": "http://loinc.org",
              "display": "Glucose [Mass/volume] in Blood"
            }
          ],
          "text": "Glucose [Mass/volume] in Blood"
        },
        "valueQuantity": {
          "system": "http://unitsofmeasure.org",
          "value": 91.3,
          "unit": "mg/dL",
          "code": "mg/dL"
        },
        "referenceRange": [
          {
            "low": {
              "value": 70,
              "code": "mg/dL",
              "system": "http://unitsofmeasure.org"
            }
          },
          {
            "high": {
              "value": 140,
              "code": "mg/dL",
              "system": "http://unitsofmeasure.org"
            }
          }
        ],
        "text": {
          "status": "generated",
          "div": "<div xmlns=\"http://www.w3.org/1999/xhtml\"><table class=\"hl7__eu__lab__report\"><tr><th>Test</th><th>20-Mar-2018</th><th>Reference&#xA0;Range</th><th>Unit</th></tr><tr><td>Glucose [Mass/volume] in Blood</td><td>91.3</td><td>70 - 140</td><td></td><td>mg/dL</td></tr></table></div>"
        },
        "status": "final",
        "subject": {
          "reference": "urn:uuid:d7df4597-14ae-4dbd-8003-b722a7a94901",
          "display": "Eileen Taylor"
        },
        "effectiveDateTime": "2018-03-20T05:47:02Z",
        "specimen": {
          "reference": "urn:uuid:fff2bdda-b143-454a-94e4-2132161ce5b0"
        }
      }
    },
    {
      "fullUrl": "urn:uuid:e2a0cca0-35ab-4cf5-8a0f-e9a853e8a9be",
      "resource": {
        "resourceType": "Observation",
        "id": "e2a0cca0-35ab-4cf5-8a0f-e9a853e8a9be",
        "meta": {
          "profile": [
            "http://hl7.eu/fhir/laboratory/StructureDefinition/Observation-resultslab-eu-lab"
          ]
        },
        "performer": [
          {
            "display": "The Central European Lab"
          }
        ],
        "category": [
          {
            "coding": [
              {
                "system": "http://terminology.hl7.org/CodeSystem/observation-category",
                "code": "laboratory"
              }
            ]
          }
        ],
        "code": {
          "coding": [
            {
              "code": "6299-2",
              "system": "http://loinc.org",
              "display": "Urea nitrogen [Mass/volume] in Blood"
            }
          ],
          "text": "Urea nitrogen [Mass/volume] in Blood"
        },
        "valueQuantity": {
          "system": "http://unitsofmeasure.org",
          "value": 11.1,
          "unit": "mg/dL",
          "code": "mg/dL"
        },
        "referenceRange": [
          {
            "low": {
              "value": 7,
              "code": "mg/dL",
              "system": "http://unitsofmeasure.org"
            }
          },
          {
            "high": {
              "value": 20,
              "code": "mg/dL",
              "system": "http://unitsofmeasure.org"
            }
          }
        ],
        "text": {
          "status": "generated",
          "div": "<div xmlns=\"http://www.w3.org/1999/xhtml\"><table class=\"hl7__eu__lab__report\"><tr><th>Test</th><th>20-Mar-2018</th><th>Reference&#xA0;Range</th><th>Unit</th></tr><tr><td>Urea nitrogen [Mass/volume] in Blood</td><td>11.1</td><td>7 - 20</td><td></td><td>mg/dL</td></tr></table></div>"
        },
        "status": "final",
        "subject": {
          "reference": "urn:uuid:d7df4597-14ae-4dbd-8003-b722a7a94901",
          "display": "Eileen Taylor"
        },
        "effectiveDateTime": "2018-03-20T05:47:02Z",
        "specimen": {
          "reference": "urn:uuid:fff2bdda-b143-454a-94e4-2132161ce5b0"
        }
      }
    },
    {
      "fullUrl": "urn:uuid:2f6b04d9-7271-4367-bc93-f4f36608c1b9",
      "resource": {
        "resourceType": "Observation",
        "id": "2f6b04d9-7271-4367-bc93-f4f36608c1b9",
        "meta": {
          "profile": [
            "http://hl7.eu/fhir/laboratory/StructureDefinition/Observation-resultslab-eu-lab"
          ]
        },
        "performer": [
          {
            "display": "The Central European Lab"
          }
        ],
        "category": [
          {
            "coding": [
              {
                "system": "http://terminology.hl7.org/CodeSystem/observation-category",
                "code": "laboratory"
              }
            ]
          }
        ],
        "code": {
          "coding": [
            {
              "code": "38483-4",
              "system": "http://loinc.org",
              "display": "Creatinine [Mass/volume] in Blood"
            }
          ],
          "text": "Creatinine [Mass/volume] in Blood"
        },
        "valueQuantity": {
          "system": "http://unitsofmeasure.org",
          "value": 2.7,
          "unit": "mg/dL",
          "code": "mg/dL"
        },
        "referenceRange": [
          {
            "low": {
              "value": 0.6,
              "code": "mg/dL",
              "system": "http://unitsofmeasure.org"
            }
          },
          {
            "high": {
              "value": 1.1,
              "code": "mg/dL",
              "system": "http://unitsofmeasure.org"
            }
          }
        ],
        "interpretation": [
          {
            "coding": [
              {
                "code": "H",
                "system": "http://terminology.hl7.org/CodeSystem/v3-ObservationInterpretation",
                "display": "High"
              }
            ]
          }
        ],
        "text": {
          "status": "generated",
          "div": "<div xmlns=\"http://www.w3.org/1999/xhtml\"><table class=\"hl7__eu__lab__report\"><tr><th>Test</th><th>20-Mar-2018</th><th>Reference&#xA0;Range</th><th>Unit</th></tr><tr><td>Creatinine [Mass/volume] in Blood</td><td>2.7</td><td>0.6 - 1.1</td><td>H</td><td>mg/dL</td></tr></table></div>"
        },
        "status": "final",
        "subject": {
          "reference": "urn:uuid:d7df4597-14ae-4dbd-8003-b722a7a94901",
          "display": "Eileen Taylor"
        },
        "effectiveDateTime": "2018-03-20T05:47:02Z",
        "specimen": {
          "reference": "urn:uuid:fff2bdda-b143-454a-94e4-2132161ce5b0"
        }
      }
    },
    {
      "fullUrl": "urn:uuid:adb4ebe8-4de7-44b0-a574-b5a4eb020514",
      "resource": {
        "resourceType": "Observation",
        "id": "adb4ebe8-4de7-44b0-a574-b5a4eb020514",
        "meta": {
          "profile": [
            "http://hl7.eu/fhir/laboratory/StructureDefinition/Observation-resultslab-eu-lab"
          ]
        },
        "performer": [
          {
            "display": "The Central European Lab"
          }
        ],
        "category": [
          {
            "coding": [
              {
                "system": "http://terminology.hl7.org/CodeSystem/observation-category",
                "code": "laboratory"
              }
            ]
          }
        ],
        "code": {
          "coding": [
            {
              "code": "49765-1",
              "system": "http://loinc.org",
              "display": "Calcium [Mass/volume] in Blood"
            }
          ],
          "text": "Calcium [Mass/volume] in Blood"
        },
        "valueQuantity": {
          "system": "http://unitsofmeasure.org",
          "value": 9.1,
          "unit": "mg/dL",
          "code": "mg/dL"
        },
        "referenceRange": [
          {
            "low": {
              "value": 8.5,
              "code": "mg/dL",
              "system": "http://unitsofmeasure.org"
            }
          },
          {
            "high": {
              "value": 10.4,
              "code": "mg/dL",
              "system": "http://unitsofmeasure.org"
            }
          }
        ],
        "text": {
          "status": "generated",
          "div": "<div xmlns=\"http://www.w3.org/1999/xhtml\"><table class=\"hl7__eu__lab__report\"><tr><th>Test</th><th>20-Mar-2018</th><th>Reference&#xA0;Range</th><th>Unit</th></tr><tr><td>Calcium [Mass/volume] in Blood</td><td>9.1</td><td>8.5 - 10.4</td><td></td><td>mg/dL</td></tr></table></div>"
        },
        "status": "final",
        "subject": {
          "reference": "urn:uuid:d7df4597-14ae-4dbd-8003-b722a7a94901",
          "display": "Eileen Taylor"
        },
        "effectiveDateTime": "2018-03-20T05:47:02Z",
        "specimen": {
          "reference": "urn:uuid:fff2bdda-b143-454a-94e4-2132161ce5b0"
        }
      }
    },
    {
      "fullUrl": "urn:uuid:ee56b4d1-d56e-4a54-b608-7cb45c3b4d4f",
      "resource": {
        "resourceType": "Observation",
        "id": "ee56b4d1-d56e-4a54-b608-7cb45c3b4d4f",
        "meta": {
          "profile": [
            "http://hl7.eu/fhir/laboratory/StructureDefinition/Observation-resultslab-eu-lab"
          ]
        },
        "performer": [
          {
            "display": "The Central European Lab"
          }
        ],
        "category": [
          {
            "coding": [
              {
                "system": "http://terminology.hl7.org/CodeSystem/observation-category",
                "code": "laboratory"
              }
            ]
          }
        ],
        "code": {
          "coding": [
            {
              "code": "2947-0",
              "system": "http://loinc.org",
              "display": "Sodium [Moles/volume] in Blood"
            }
          ],
          "text": "Sodium [Moles/volume] in Blood"
        },
        "valueQuantity": {
          "system": "http://unitsofmeasure.org",
          "value": 142.9,
          "unit": "mmol/L",
          "code": "mmol/L"
        },
        "referenceRange": [
          {
            "low": {
              "value": 135,
              "code": "mmol/L",
              "system": "http://unitsofmeasure.org"
            }
          },
          {
            "high": {
              "value": 145,
              "code": "mmol/L",
              "system": "http://unitsofmeasure.org"
            }
          }
        ],
        "text": {
          "status": "generated",
          "div": "<div xmlns=\"http://www.w3.org/1999/xhtml\"><table class=\"hl7__eu__lab__report\"><tr><th>Test</th><th>20-Mar-2018</th><th>Reference&#xA0;Range</th><th>Unit</th></tr><tr><td>Sodium [Moles/volume] in Blood</td><td>142.9</td><td>135 - 145</td><td></td><td>mmol/L</td></tr></table></div>"
        },
        "status": "final",
        "subject": {
          "reference": "urn:uuid:d7df4597-14ae-4dbd-8003-b722a7a94901",
          "display": "Eileen Taylor"
        },
        "effectiveDateTime": "2018-03-20T05:47:02Z",
        "specimen": {
          "reference": "urn:uuid:fff2bdda-b143-454a-94e4-2132161ce5b0"
        }
      }
    },
    {
      "fullUrl": "urn:uuid:fee8489a-7f62-4780-aa95-ebbdf0bac3f3",
      "resource": {
        "resourceType": "Observation",
        "id": "fee8489a-7f62-4780-aa95-ebbdf0bac3f3",
        "meta": {
          "profile": [
            "http://hl7.eu/fhir/laboratory/StructureDefinition/Observation-resultslab-eu-lab"
          ]
        },
        "performer": [
          {
            "display": "The Central European Lab"
          }
        ],
        "category": [
          {
            "coding": [
              {
                "system": "http://terminology.hl7.org/CodeSystem/observation-category",
                "code": "laboratory"
              }
            ]
          }
        ],
        "code": {
          "coding": [
            {
              "code": "6298-4",
              "system": "http://loinc.org",
              "display": "Potassium [Moles/volume] in Blood"
            }
          ],
          "text": "Potassium [Moles/volume] in Blood"
        },
        "valueQuantity": {
          "system": "http://unitsofmeasure.org",
          "value": 5,
          "unit": "mmol/L",
          "code": "mmol/L"
        },
        "referenceRange": [
          {
            "low": {
              "value": 3.5,
              "code": "mmol/L",
              "system": "http://unitsofmeasure.org"
            }
          },
          {
            "high": {
              "value": 5.1,
              "code": "mmol/L",
              "system": "http://unitsofmeasure.org"
            }
          }
        ],
        "text": {
          "status": "generated",
          "div": "<div xmlns=\"http://www.w3.org/1999/xhtml\"><table class=\"hl7__eu__lab__report\"><tr><th>Test</th><th>20-Mar-2018</th><th>Reference&#xA0;Range</th><th>Unit</th></tr><tr><td>Potassium [Moles/volume] in Blood</td><td>5.0</td><td>3.5 - 5.1</td><td></td><td>mmol/L</td></tr></table></div>"
        },
        "status": "final",
        "subject": {
          "reference": "urn:uuid:d7df4597-14ae-4dbd-8003-b722a7a94901",
          "display": "Eileen Taylor"
        },
        "effectiveDateTime": "2018-03-20T05:47:02Z",
        "specimen": {
          "reference": "urn:uuid:fff2bdda-b143-454a-94e4-2132161ce5b0"
        }
      }
    },
    {
      "fullUrl": "urn:uuid:5874e5d4-7fec-4753-a5b5-8a3b0e72bff2",
      "resource": {
        "resourceType": "Observation",
        "id": "5874e5d4-7fec-4753-a5b5-8a3b0e72bff2",
        "meta": {
          "profile": [
            "http://hl7.eu/fhir/laboratory/StructureDefinition/Observation-resultslab-eu-lab"
          ]
        },
        "performer": [
          {
            "display": "The Central European Lab"
          }
        ],
        "category": [
          {
            "coding": [
              {
                "system": "http://terminology.hl7.org/CodeSystem/observation-category",
                "code": "laboratory"
              }
            ]
          }
        ],
        "code": {
          "coding": [
            {
              "code": "2069-3",
              "system": "http://loinc.org",
              "display": "Chloride [Moles/volume] in Blood"
            }
          ],
          "text": "Chloride [Moles/volume] in Blood"
        },
        "valueQuantity": {
          "system": "http://unitsofmeasure.org",
          "value": 107.9,
          "unit": "mmol/L",
          "code": "mmol/L"
        },
        "referenceRange": [
          {
            "low": {
              "value": 98,
              "code": "mmol/L",
              "system": "http://unitsofmeasure.org"
            }
          },
          {
            "high": {
              "value": 108,
              "code": "mmol/L",
              "system": "http://unitsofmeasure.org"
            }
          }
        ],
        "text": {
          "status": "generated",
          "div": "<div xmlns=\"http://www.w3.org/1999/xhtml\"><table class=\"hl7__eu__lab__report\"><tr><th>Test</th><th>20-Mar-2018</th><th>Reference&#xA0;Range</th><th>Unit</th></tr><tr><td>Chloride [Moles/volume] in Blood</td><td>107.9</td><td>98 - 108</td><td></td><td>mmol/L</td></tr></table></div>"
        },
        "status": "final",
        "subject": {
          "reference": "urn:uuid:d7df4597-14ae-4dbd-8003-b722a7a94901",
          "display": "Eileen Taylor"
        },
        "effectiveDateTime": "2018-03-20T05:47:02Z",
        "specimen": {
          "reference": "urn:uuid:fff2bdda-b143-454a-94e4-2132161ce5b0"
        }
      }
    },
    {
      "fullUrl": "urn:uuid:4f18874e-ff3d-4e7a-95c0-bd2e480cead4",
      "resource": {
        "resourceType": "Observation",
        "id": "4f18874e-ff3d-4e7a-95c0-bd2e480cead4",
        "meta": {
          "profile": [
            "http://hl7.eu/fhir/laboratory/StructureDefinition/Observation-resultslab-eu-lab"
          ]
        },
        "performer": [
          {
            "display": "The Central European Lab"
          }
        ],
        "category": [
          {
            "coding": [
              {
                "system": "http://terminology.hl7.org/CodeSystem/observation-category",
                "code": "laboratory"
              }
            ]
          }
        ],
        "code": {
          "coding": [
            {
              "code": "20565-8",
              "system": "http://loinc.org",
              "display": "Carbon dioxide, total [Moles/volume] in Blood"
            }
          ],
          "text": "Carbon dioxide, total [Moles/volume] in Blood"
        },
        "valueQuantity": {
          "system": "http://unitsofmeasure.org",
          "value": 28.5,
          "unit": "mmol/L",
          "code": "mmol/L"
        },
        "referenceRange": [
          {
            "low": {
              "value": 22,
              "code": "mmol/L",
              "system": "http://unitsofmeasure.org"
            }
          },
          {
            "high": {
              "value": 29,
              "code": "mmol/L",
              "system": "http://unitsofmeasure.org"
            }
          }
        ],
        "text": {
          "status": "generated",
          "div": "<div xmlns=\"http://www.w3.org/1999/xhtml\"><table class=\"hl7__eu__lab__report\"><tr><th>Test</th><th>20-Mar-2018</th><th>Reference&#xA0;Range</th><th>Unit</th></tr><tr><td>Carbon dioxide, total [Moles/volume] in Blood</td><td>28.5</td><td>22 - 29</td><td></td><td>mmol/L</td></tr></table></div>"
        },
        "status": "final",
        "subject": {
          "reference": "urn:uuid:d7df4597-14ae-4dbd-8003-b722a7a94901",
          "display": "Eileen Taylor"
        },
        "effectiveDateTime": "2018-03-20T05:47:02Z",
        "specimen": {
          "reference": "urn:uuid:fff2bdda-b143-454a-94e4-2132161ce5b0"
        }
      }
    },
    {
      "fullUrl": "urn:uuid:79f397b9-8434-4ce2-b1f0-abbb2516e598",
      "resource": {
        "resourceType": "Observation",
        "id": "79f397b9-8434-4ce2-b1f0-abbb2516e598",
        "meta": {
          "profile": [
            "http://hl7.eu/fhir/laboratory/StructureDefinition/Observation-resultslab-eu-lab"
          ]
        },
        "performer": [
          {
            "display": "The Central European Lab"
          }
        ],
        "category": [
          {
            "coding": [
              {
                "system": "http://terminology.hl7.org/CodeSystem/observation-category",
                "code": "laboratory"
              }
            ]
          }
        ],
        "code": {
          "coding": [
            {
              "code": "2885-2",
              "system": "http://loinc.org",
              "display": "Protein [Mass/volume] in Serum or Plasma"
            }
          ],
          "text": "Protein [Mass/volume] in Serum or Plasma"
        },
        "valueQuantity": {
          "system": "http://unitsofmeasure.org",
          "value": 6.3,
          "unit": "g/dL",
          "code": "g/dL"
        },
        "referenceRange": [
          {
            "low": {
              "value": 6,
              "code": "g/dL",
              "system": "http://unitsofmeasure.org"
            }
          },
          {
            "high": {
              "value": 8.3,
              "code": "g/dL",
              "system": "http://unitsofmeasure.org"
            }
          }
        ],
        "text": {
          "status": "generated",
          "div": "<div xmlns=\"http://www.w3.org/1999/xhtml\"><table class=\"hl7__eu__lab__report\"><tr><th>Test</th><th>20-Mar-2018</th><th>Reference&#xA0;Range</th><th>Unit</th></tr><tr><td>Protein [Mass/volume] in Serum or Plasma</td><td>6.3</td><td>6 - 8.3</td><td></td><td>g/dL</td></tr></table></div>"
        },
        "status": "final",
        "subject": {
          "reference": "urn:uuid:d7df4597-14ae-4dbd-8003-b722a7a94901",
          "display": "Eileen Taylor"
        },
        "effectiveDateTime": "2018-03-20T05:47:02Z",
        "specimen": {
          "reference": "urn:uuid:6f780990-aba7-42c4-9e0c-486705a89074"
        }
      }
    },
    {
      "fullUrl": "urn:uuid:6be32423-a7ff-4dbe-b21e-b918fe04afb4",
      "resource": {
        "resourceType": "Observation",
        "id": "6be32423-a7ff-4dbe-b21e-b918fe04afb4",
        "meta": {
          "profile": [
            "http://hl7.eu/fhir/laboratory/StructureDefinition/Observation-resultslab-eu-lab"
          ]
        },
        "performer": [
          {
            "display": "The Central European Lab"
          }
        ],
        "category": [
          {
            "coding": [
              {
                "system": "http://terminology.hl7.org/CodeSystem/observation-category",
                "code": "laboratory"
              }
            ]
          }
        ],
        "code": {
          "coding": [
            {
              "code": "1751-7",
              "system": "http://loinc.org",
              "display": "Albumin [Mass/volume] in Serum or Plasma"
            }
          ],
          "text": "Albumin [Mass/volume] in Serum or Plasma"
        },
        "valueQuantity": {
          "system": "http://unitsofmeasure.org",
          "value": 3.7,
          "unit": "g/dL",
          "code": "g/dL"
        },
        "referenceRange": [
          {
            "low": {
              "value": 3.4,
              "code": "g/dL",
              "system": "http://unitsofmeasure.org"
            }
          },
          {
            "high": {
              "value": 5,
              "code": "g/dL",
              "system": "http://unitsofmeasure.org"
            }
          }
        ],
        "text": {
          "status": "generated",
          "div": "<div xmlns=\"http://www.w3.org/1999/xhtml\"><table class=\"hl7__eu__lab__report\"><tr><th>Test</th><th>20-Mar-2018</th><th>Reference&#xA0;Range</th><th>Unit</th></tr><tr><td>Albumin [Mass/volume] in Serum or Plasma</td><td>3.7</td><td>3.4 - 5</td><td></td><td>g/dL</td></tr></table></div>"
        },
        "status": "final",
        "subject": {
          "reference": "urn:uuid:d7df4597-14ae-4dbd-8003-b722a7a94901",
          "display": "Eileen Taylor"
        },
        "effectiveDateTime": "2018-03-20T05:47:02Z",
        "specimen": {
          "reference": "urn:uuid:6f780990-aba7-42c4-9e0c-486705a89074"
        }
      }
    },
    {
      "fullUrl": "urn:uuid:c3f7ee9b-1a7d-4279-9143-1050326fc3ea",
      "resource": {
        "resourceType": "Observation",
        "id": "c3f7ee9b-1a7d-4279-9143-1050326fc3ea",
        "meta": {
          "profile": [
            "http://hl7.eu/fhir/laboratory/StructureDefinition/Observation-resultslab-eu-lab"
          ]
        },
        "performer": [
          {
            "display": "The Central European Lab"
          }
        ],
        "category": [
          {
            "coding": [
              {
                "system": "http://terminology.hl7.org/CodeSystem/observation-category",
                "code": "laboratory"
              }
            ]
          }
        ],
        "code": {
          "coding": [
            {
              "code": "10834-0",
              "system": "http://loinc.org",
              "display": "Globulin [Mass/volume] in Serum by calculation"
            }
          ],
          "text": "Globulin [Mass/volume] in Serum by calculation"
        },
        "valueQuantity": {
          "system": "http://unitsofmeasure.org",
          "value": 2.6,
          "unit": "g/L",
          "code": "g/L"
        },
        "referenceRange": [
          {
            "low": {
              "value": 2,
              "code": "g/L",
              "system": "http://unitsofmeasure.org"
            }
          },
          {
            "high": {
              "value": 3.5,
              "code": "g/L",
              "system": "http://unitsofmeasure.org"
            }
          }
        ],
        "text": {
          "status": "generated",
          "div": "<div xmlns=\"http://www.w3.org/1999/xhtml\"><table class=\"hl7__eu__lab__report\"><tr><th>Test</th><th>20-Mar-2018</th><th>Reference&#xA0;Range</th><th>Unit</th></tr><tr><td>Globulin [Mass/volume] in Serum by calculation</td><td>2.6</td><td>2 - 3.5</td><td></td><td>g/L</td></tr></table></div>"
        },
        "status": "final",
        "subject": {
          "reference": "urn:uuid:d7df4597-14ae-4dbd-8003-b722a7a94901",
          "display": "Eileen Taylor"
        },
        "effectiveDateTime": "2018-03-20T05:47:02Z",
        "specimen": {
          "reference": "urn:uuid:4defdea4-91cd-4cad-a54d-76c9ea1c5649"
        }
      }
    },
    {
      "fullUrl": "urn:uuid:18d082cc-de3e-4247-a606-894d1ac6e1bb",
      "resource": {
        "resourceType": "Observation",
        "id": "18d082cc-de3e-4247-a606-894d1ac6e1bb",
        "meta": {
          "profile": [
            "http://hl7.eu/fhir/laboratory/StructureDefinition/Observation-resultslab-eu-lab"
          ]
        },
        "performer": [
          {
            "display": "The Central European Lab"
          }
        ],
        "category": [
          {
            "coding": [
              {
                "system": "http://terminology.hl7.org/CodeSystem/observation-category",
                "code": "laboratory"
              }
            ]
          }
        ],
        "code": {
          "coding": [
            {
              "code": "1975-2",
              "system": "http://loinc.org",
              "display": "Bilirubin.total [Mass/volume] in Serum or Plasma"
            }
          ],
          "text": "Bilirubin.total [Mass/volume] in Serum or Plasma"
        },
        "valueQuantity": {
          "system": "http://unitsofmeasure.org",
          "value": 0.4,
          "unit": "mg/dL",
          "code": "mg/dL"
        },
        "referenceRange": [
          {
            "low": {
              "value": 0.2,
              "code": "mg/dL",
              "system": "http://unitsofmeasure.org"
            }
          },
          {
            "high": {
              "value": 1.2,
              "code": "mg/dL",
              "system": "http://unitsofmeasure.org"
            }
          }
        ],
        "text": {
          "status": "generated",
          "div": "<div xmlns=\"http://www.w3.org/1999/xhtml\"><table class=\"hl7__eu__lab__report\"><tr><th>Test</th><th>20-Mar-2018</th><th>Reference&#xA0;Range</th><th>Unit</th></tr><tr><td>Bilirubin.total [Mass/volume] in Serum or Plasma</td><td>0.4</td><td>0.2 - 1.2</td><td></td><td>mg/dL</td></tr></table></div>"
        },
        "status": "final",
        "subject": {
          "reference": "urn:uuid:d7df4597-14ae-4dbd-8003-b722a7a94901",
          "display": "Eileen Taylor"
        },
        "effectiveDateTime": "2018-03-20T05:47:02Z",
        "specimen": {
          "reference": "urn:uuid:6f780990-aba7-42c4-9e0c-486705a89074"
        }
      }
    },
    {
      "fullUrl": "urn:uuid:9a0a68d5-86e4-41fe-8dee-2c9537771eaf",
      "resource": {
        "resourceType": "Observation",
        "id": "9a0a68d5-86e4-41fe-8dee-2c9537771eaf",
        "meta": {
          "profile": [
            "http://hl7.eu/fhir/laboratory/StructureDefinition/Observation-resultslab-eu-lab"
          ]
        },
        "performer": [
          {
            "display": "The Central European Lab"
          }
        ],
        "category": [
          {
            "coding": [
              {
                "system": "http://terminology.hl7.org/CodeSystem/observation-category",
                "code": "laboratory"
              }
            ]
          }
        ],
        "code": {
          "coding": [
            {
              "code": "6768-6",
              "system": "http://loinc.org",
              "display": "Alkaline phosphatase [Enzymatic activity/volume] in Serum or Plasma"
            }
          ],
          "text": "Alkaline phosphatase [Enzymatic activity/volume] in Serum or Plasma"
        },
        "valueQuantity": {
          "system": "http://unitsofmeasure.org",
          "value": 133.4,
          "unit": "U/L",
          "code": "U/L"
        },
        "referenceRange": [
          {
            "low": {
              "value": 44,
              "code": "U/L",
              "system": "http://unitsofmeasure.org"
            }
          },
          {
            "high": {
              "value": 104,
              "code": "U/L",
              "system": "http://unitsofmeasure.org"
            }
          }
        ],
        "interpretation": [
          {
            "coding": [
              {
                "code": "H",
                "system": "http://terminology.hl7.org/CodeSystem/v3-ObservationInterpretation",
                "display": "High"
              }
            ]
          }
        ],
        "text": {
          "status": "generated",
          "div": "<div xmlns=\"http://www.w3.org/1999/xhtml\"><table class=\"hl7__eu__lab__report\"><tr><th>Test</th><th>20-Mar-2018</th><th>Reference&#xA0;Range</th><th>Unit</th></tr><tr><td>Alkaline phosphatase [Enzymatic activity/volume] in Serum or Plasma</td><td>133.4</td><td>44 - 104</td><td>H</td><td>U/L</td></tr></table></div>"
        },
        "status": "final",
        "subject": {
          "reference": "urn:uuid:d7df4597-14ae-4dbd-8003-b722a7a94901",
          "display": "Eileen Taylor"
        },
        "effectiveDateTime": "2018-03-20T05:47:02Z",
        "specimen": {
          "reference": "urn:uuid:6f780990-aba7-42c4-9e0c-486705a89074"
        }
      }
    },
    {
      "fullUrl": "urn:uuid:cc706d3d-9495-4ffb-b76c-1ff12d9edf10",
      "resource": {
        "resourceType": "Observation",
        "id": "cc706d3d-9495-4ffb-b76c-1ff12d9edf10",
        "meta": {
          "profile": [
            "http://hl7.eu/fhir/laboratory/StructureDefinition/Observation-resultslab-eu-lab"
          ]
        },
        "performer": [
          {
            "display": "The Central European Lab"
          }
        ],
        "category": [
          {
            "coding": [
              {
                "system": "http://terminology.hl7.org/CodeSystem/observation-category",
                "code": "laboratory"
              }
            ]
          }
        ],
        "code": {
          "coding": [
            {
              "code": "1742-6",
              "system": "http://loinc.org",
              "display": "Alanine aminotransferase [Enzymatic activity/volume] in Serum or Plasma"
            }
          ],
          "text": "Alanine aminotransferase [Enzymatic activity/volume] in Serum or Plasma"
        },
        "valueQuantity": {
          "system": "http://unitsofmeasure.org",
          "value": 34.2,
          "unit": "U/L",
          "code": "U/L"
        },
        "referenceRange": [
          {
            "low": {
              "value": 13,
              "code": "U/L",
              "system": "http://unitsofmeasure.org"
            }
          },
          {
            "high": {
              "value": 36,
              "code": "U/L",
              "system": "http://unitsofmeasure.org"
            }
          }
        ],
        "text": {
          "status": "generated",
          "div": "<div xmlns=\"http://www.w3.org/1999/xhtml\"><table class=\"hl7__eu__lab__report\"><tr><th>Test</th><th>20-Mar-2018</th><th>Reference&#xA0;Range</th><th>Unit</th></tr><tr><td>Alanine aminotransferase [Enzymatic activity/volume] in Serum or Plasma</td><td>34.2</td><td>13 - 36</td><td></td><td>U/L</td></tr></table></div>"
        },
        "status": "final",
        "subject": {
          "reference": "urn:uuid:d7df4597-14ae-4dbd-8003-b722a7a94901",
          "display": "Eileen Taylor"
        },
        "effectiveDateTime": "2018-03-20T05:47:02Z",
        "specimen": {
          "reference": "urn:uuid:6f780990-aba7-42c4-9e0c-486705a89074"
        }
      }
    },
    {
      "fullUrl": "urn:uuid:8b2601ba-b2b6-41a1-bfc8-63006e2eba87",
      "resource": {
        "resourceType": "Observation",
        "id": "8b2601ba-b2b6-41a1-bfc8-63006e2eba87",
        "meta": {
          "profile": [
            "http://hl7.eu/fhir/laboratory/StructureDefinition/Observation-resultslab-eu-lab"
          ]
        },
        "performer": [
          {
            "display": "The Central European Lab"
          }
        ],
        "category": [
          {
            "coding": [
              {
                "system": "http://terminology.hl7.org/CodeSystem/observation-category",
                "code": "laboratory"
              }
            ]
          }
        ],
        "code": {
          "coding": [
            {
              "code": "1920-8",
              "system": "http://loinc.org",
              "display": "Aspartate aminotransferase [Enzymatic activity/volume] in Serum or Plasma"
            }
          ],
          "text": "Aspartate aminotransferase [Enzymatic activity/volume] in Serum or Plasma"
        },
        "valueQuantity": {
          "system": "http://unitsofmeasure.org",
          "value": 23.1,
          "unit": "U/L",
          "code": "U/L"
        },
        "referenceRange": [
          {
            "low": {
              "value": 10,
              "code": "U/L",
              "system": "http://unitsofmeasure.org"
            }
          },
          {
            "high": {
              "value": 40,
              "code": "U/L",
              "system": "http://unitsofmeasure.org"
            }
          }
        ],
        "text": {
          "status": "generated",
          "div": "<div xmlns=\"http://www.w3.org/1999/xhtml\"><table class=\"hl7__eu__lab__report\"><tr><th>Test</th><th>20-Mar-2018</th><th>Reference&#xA0;Range</th><th>Unit</th></tr><tr><td>Aspartate aminotransferase [Enzymatic activity/volume] in Serum or Plasma</td><td>23.1</td><td>10 - 40</td><td></td><td>U/L</td></tr></table></div>"
        },
        "status": "final",
        "subject": {
          "reference": "urn:uuid:d7df4597-14ae-4dbd-8003-b722a7a94901",
          "display": "Eileen Taylor"
        },
        "effectiveDateTime": "2018-03-20T05:47:02Z",
        "specimen": {
          "reference": "urn:uuid:6f780990-aba7-42c4-9e0c-486705a89074"
        }
      }
    },
    {
      "fullUrl": "urn:uuid:a71fcaa0-e1c3-478a-8ed0-54f7ce7f144e",
      "resource": {
        "resourceType": "Observation",
        "id": "a71fcaa0-e1c3-478a-8ed0-54f7ce7f144e",
        "meta": {
          "profile": [
            "http://hl7.eu/fhir/laboratory/StructureDefinition/Observation-resultslab-eu-lab"
          ]
        },
        "performer": [
          {
            "display": "The Central European Lab"
          }
        ],
        "category": [
          {
            "coding": [
              {
                "system": "http://terminology.hl7.org/CodeSystem/observation-category",
                "code": "laboratory"
              }
            ]
          }
        ],
        "code": {
          "coding": [
            {
              "code": "2093-3",
              "system": "http://loinc.org",
              "display": "Cholesterol [Mass/volume] in Serum or Plasma"
            }
          ],
          "text": "Cholesterol [Mass/volume] in Serum or Plasma"
        },
        "valueQuantity": {
          "system": "http://unitsofmeasure.org",
          "value": 151.5,
          "unit": "mg/dL",
          "code": "mg/dL"
        },
        "referenceRange": [
          {
            "low": {
              "value": 130,
              "code": "mg/dL",
              "system": "http://unitsofmeasure.org"
            }
          },
          {
            "high": {
              "value": 200,
              "code": "mg/dL",
              "system": "http://unitsofmeasure.org"
            }
          }
        ],
        "text": {
          "status": "generated",
          "div": "<div xmlns=\"http://www.w3.org/1999/xhtml\"><table class=\"hl7__eu__lab__report\"><tr><th>Test</th><th>20-Mar-2018</th><th>Reference&#xA0;Range</th><th>Unit</th></tr><tr><td>Cholesterol [Mass/volume] in Serum or Plasma</td><td>151.5</td><td>130 - 200</td><td></td><td>mg/dL</td></tr></table></div>"
        },
        "status": "final",
        "subject": {
          "reference": "urn:uuid:d7df4597-14ae-4dbd-8003-b722a7a94901",
          "display": "Eileen Taylor"
        },
        "effectiveDateTime": "2018-03-20T05:47:02Z",
        "specimen": {
          "reference": "urn:uuid:6f780990-aba7-42c4-9e0c-486705a89074"
        }
      }
    },
    {
      "fullUrl": "urn:uuid:383fed8b-7557-4018-a724-383940b38082",
      "resource": {
        "resourceType": "Observation",
        "id": "383fed8b-7557-4018-a724-383940b38082",
        "meta": {
          "profile": [
            "http://hl7.eu/fhir/laboratory/StructureDefinition/Observation-resultslab-eu-lab"
          ]
        },
        "performer": [
          {
            "display": "The Central European Lab"
          }
        ],
        "category": [
          {
            "coding": [
              {
                "system": "http://terminology.hl7.org/CodeSystem/observation-category",
                "code": "laboratory"
              }
            ]
          }
        ],
        "code": {
          "coding": [
            {
              "code": "2571-8",
              "system": "http://loinc.org",
              "display": "Triglyceride [Mass/volume] in Serum or Plasma"
            }
          ],
          "text": "Triglyceride [Mass/volume] in Serum or Plasma"
        },
        "valueQuantity": {
          "system": "http://unitsofmeasure.org",
          "value": 179.1,
          "unit": "mg/dL",
          "code": "mg/dL"
        },
        "referenceRange": [
          {
            "low": {
              "value": 35,
              "code": "mg/dL",
              "system": "http://unitsofmeasure.org"
            }
          },
          {
            "high": {
              "value": 175,
              "code": "mg/dL",
              "system": "http://unitsofmeasure.org"
            }
          }
        ],
        "interpretation": [
          {
            "coding": [
              {
                "code": "H",
                "system": "http://terminology.hl7.org/CodeSystem/v3-ObservationInterpretation",
                "display": "High"
              }
            ]
          }
        ],
        "text": {
          "status": "generated",
          "div": "<div xmlns=\"http://www.w3.org/1999/xhtml\"><table class=\"hl7__eu__lab__report\"><tr><th>Test</th><th>20-Mar-2018</th><th>Reference&#xA0;Range</th><th>Unit</th></tr><tr><td>Triglyceride [Mass/volume] in Serum or Plasma</td><td>179.1</td><td>35 - 175</td><td>H</td><td>mg/dL</td></tr></table></div>"
        },
        "status": "final",
        "subject": {
          "reference": "urn:uuid:d7df4597-14ae-4dbd-8003-b722a7a94901",
          "display": "Eileen Taylor"
        },
        "effectiveDateTime": "2018-03-20T05:47:02Z",
        "specimen": {
          "reference": "urn:uuid:6f780990-aba7-42c4-9e0c-486705a89074"
        }
      }
    },
    {
      "fullUrl": "urn:uuid:67691abd-c3ea-40fb-84c3-7acf0ff7e73a",
      "resource": {
        "resourceType": "Observation",
        "id": "67691abd-c3ea-40fb-84c3-7acf0ff7e73a",
        "meta": {
          "profile": [
            "http://hl7.eu/fhir/laboratory/StructureDefinition/Observation-resultslab-eu-lab"
          ]
        },
        "performer": [
          {
            "display": "The Central European Lab"
          }
        ],
        "category": [
          {
            "coding": [
              {
                "system": "http://terminology.hl7.org/CodeSystem/observation-category",
                "code": "laboratory"
              }
            ]
          }
        ],
        "code": {
          "coding": [
            {
              "code": "18262-6",
              "system": "http://loinc.org",
              "display": "Cholesterol in LDL [Mass/volume] in Serum or Plasma by Direct assay"
            }
          ],
          "text": "Cholesterol in LDL [Mass/volume] in Serum or Plasma by Direct assay"
        },
        "valueQuantity": {
          "system": "http://unitsofmeasure.org",
          "value": 145.1,
          "unit": "mg/dL",
          "code": "mg/dL"
        },
        "referenceRange": [
          {
            "low": {
              "value": 0,
              "code": "mg/dL",
              "system": "http://unitsofmeasure.org"
            }
          },
          {
            "high": {
              "value": 190,
              "code": "mg/dL",
              "system": "http://unitsofmeasure.org"
            }
          }
        ],
        "text": {
          "status": "generated",
          "div": "<div xmlns=\"http://www.w3.org/1999/xhtml\"><table class=\"hl7__eu__lab__report\"><tr><th>Test</th><th>20-Mar-2018</th><th>Reference&#xA0;Range</th><th>Unit</th></tr><tr><td>Cholesterol in LDL [Mass/volume] in Serum or Plasma by Direct assay</td><td>145.1</td><td>0 - 190</td><td></td><td>mg/dL</td></tr></table></div>"
        },
        "status": "final",
        "subject": {
          "reference": "urn:uuid:d7df4597-14ae-4dbd-8003-b722a7a94901",
          "display": "Eileen Taylor"
        },
        "effectiveDateTime": "2018-03-20T05:47:02Z",
        "specimen": {
          "reference": "urn:uuid:6f780990-aba7-42c4-9e0c-486705a89074"
        }
      }
    },
    {
      "fullUrl": "urn:uuid:40616e9d-e789-4dcb-9965-e59c3ea7215c",
      "resource": {
        "resourceType": "Observation",
        "id": "40616e9d-e789-4dcb-9965-e59c3ea7215c",
        "meta": {
          "profile": [
            "http://hl7.eu/fhir/laboratory/StructureDefinition/Observation-resultslab-eu-lab"
          ]
        },
        "performer": [
          {
            "display": "The Central European Lab"
          }
        ],
        "category": [
          {
            "coding": [
              {
                "system": "http://terminology.hl7.org/CodeSystem/observation-category",
                "code": "laboratory"
              }
            ]
          }
        ],
        "code": {
          "coding": [
            {
              "code": "2085-9",
              "system": "http://loinc.org",
              "display": "Cholesterol in HDL [Mass/volume] in Serum or Plasma"
            }
          ],
          "text": "Cholesterol in HDL [Mass/volume] in Serum or Plasma"
        },
        "valueQuantity": {
          "system": "http://unitsofmeasure.org",
          "value": 53.9,
          "unit": "mg/dL",
          "code": "mg/dL"
        },
        "referenceRange": [
          {
            "low": {
              "value": 50,
              "code": "mg/dL",
              "system": "http://unitsofmeasure.org"
            }
          },
          {
            "high": {
              "value": 100,
              "code": "mg/dL",
              "system": "http://unitsofmeasure.org"
            }
          }
        ],
        "text": {
          "status": "generated",
          "div": "<div xmlns=\"http://www.w3.org/1999/xhtml\"><table class=\"hl7__eu__lab__report\"><tr><th>Test</th><th>20-Mar-2018</th><th>Reference&#xA0;Range</th><th>Unit</th></tr><tr><td>Cholesterol in HDL [Mass/volume] in Serum or Plasma</td><td>53.9</td><td>50 - 100</td><td></td><td>mg/dL</td></tr></table></div>"
        },
        "status": "final",
        "subject": {
          "reference": "urn:uuid:d7df4597-14ae-4dbd-8003-b722a7a94901",
          "display": "Eileen Taylor"
        },
        "effectiveDateTime": "2018-03-20T05:47:02Z",
        "specimen": {
          "reference": "urn:uuid:6f780990-aba7-42c4-9e0c-486705a89074"
        }
      }
    },
    {
      "fullUrl": "urn:uuid:0f744896-8311-45a9-bb10-401b838a8f4b",
      "resource": {
        "resourceType": "Device",
        "id": "0f744896-8311-45a9-bb10-401b838a8f4b",
        "deviceName": [
          {
            "name": "SYNDERAI Synthetic Generator",
            "type": "manufacturer-name"
          }
        ],
        "version": [
          {
            "value": "5.0"
          }
        ],
        "text": {
          "status": "generated",
          "div": "<div xmlns=\"http://www.w3.org/1999/xhtml\">SYNDERAI Synthetic Generator v5.0</div>"
        },
        "status": "active\"",
        "distinctIdentifier": "synderai-generator-50",
        "manufacturer": "SYNDERAI Project"
      }
    },
    {
      "fullUrl": "urn:uuid:5dfc9bac-fac5-4392-8713-bfff6605a7b1",
      "resource": {
        "resourceType": "Provenance",
        "id": "5dfc9bac-fac5-4392-8713-bfff6605a7b1",
        "target": [
          {
            "reference": "Patient/d7df4597-14ae-4dbd-8003-b722a7a94901"
          },
          {
            "reference": "Bundle/49953770-d33e-453e-80f9-074a45ddb15d"
          },
          {
            "reference": "Composition/a8135e01-abb6-4f36-9063-78b88c0d77e5"
          },
          {
            "reference": "PractitionerRole/5ae7cccf-ddaf-4159-8c07-e79882ce788c"
          },
          {
            "reference": "Practitioner/211df303-cfb3-44c1-b918-681649401bb1"
          },
          {
            "reference": "PractitionerRole/a9fa4b38-d897-4529-8d3b-0180733c0a40"
          },
          {
            "reference": "Organization/76d052d5-61cc-46b1-ba74-cd1538964872"
          }
        ],
        "activity": {
          "text": "Synthetic Example Data Generation"
        },
        "policy": [
          "https://synderai.net/synderai-synthetic-data-policy"
        ],
        "agent": [
          {
            "type": {
              "text": "author"
            },
            "who": {
              "reference": "Device/0f744896-8311-45a9-bb10-401b838a8f4b"
            }
          }
        ],
        "reason": [
          {
            "text": "Interoperability Testing and Training (non-clinical use)"
          }
        ],
        "text": {
          "status": "generated",
          "div": "<div xmlns=\"http://www.w3.org/1999/xhtml\">Provenance for SYNDERAI Synthetic Example Data Resource</div>"
        },
        "recorded": "2018-03-20T06:47:02Z"
      }
    },
    {
      "fullUrl": "urn:uuid:5ae7cccf-ddaf-4159-8c07-e79882ce788c",
      "resource": {
        "resourceType": "PractitionerRole",
        "id": "5ae7cccf-ddaf-4159-8c07-e79882ce788c",
        "meta": {
          "profile": [
            "http://hl7.eu/fhir/base/StructureDefinition/practitionerRole-eu"
          ]
        },
        "text": {
          "status": "generated",
          "div": "<div xmlns=\"http://www.w3.org/1999/xhtml\">Laboratory Role Id: 5ae7cccf-ddaf-4159-8c07-e79882ce788c</div>"
        },
        "practitioner": {
          "reference": "urn:uuid:211df303-cfb3-44c1-b918-681649401bb1"
        }
      }
    },
    {
      "fullUrl": "urn:uuid:211df303-cfb3-44c1-b918-681649401bb1",
      "resource": {
        "resourceType": "Practitioner",
        "id": "211df303-cfb3-44c1-b918-681649401bb1",
        "meta": {
          "profile": [
            "http://hl7.eu/fhir/base/StructureDefinition/practitioner-eu"
          ]
        },
        "identifier": [
          {
            "assigner": {
              "display": "HL7 Europe"
            },
            "system": "urn:oid:2.16.840.1.113883.2.51.999",
            "value": "049f1504-38c5-4d80-9876-f65cbe7e10b2"
          }
        ],
        "name": [
          {
            "prefix": [
              "dr"
            ],
            "given": [
              "Ex"
            ],
            "family": "Ample"
          }
        ],
        "address": [
          {
            "line": [
              "Laboratoire Central Europenne",
              "Boulevard du Jardin Botanique 32"
            ],
            "postalCode": "1000",
            "city": "Brussels",
            "country": "Belgium"
          }
        ],
        "text": {
          "status": "generated",
          "div": "<div xmlns=\"http://www.w3.org/1999/xhtml\">Laboratory: Laboratoire Central Europenne, 1000 Brussels, Belgium</div>"
        }
      }
    }
  ],
  "type": "document",
  "timestamp": "2018-03-20T06:47:02Z"
}
