{
  "resourceType": "Bundle",
  "id": "44771ac0-23b9-43ba-b569-f5b3346cd5b8",
  "meta": {
    "profile": [
      "http://hl7.eu/fhir/laboratory/StructureDefinition/Bundle-eu-lab"
    ]
  },
  "identifier": {
    "assigner": {
      "display": "HL7 Europe"
    },
    "system": "urn:oid:2.16.840.1.113883.2.51.999",
    "value": "7effa554-e348-4f94-ba01-4621319b018e"
  },
  "entry": [
    {
      "fullUrl": "urn:uuid:0edfe74e-5d82-4b97-b269-43e7e16c4db0",
      "resource": {
        "resourceType": "Composition",
        "id": "0edfe74e-5d82-4b97-b269-43e7e16c4db0",
        "meta": {
          "profile": [
            "http://hl7.eu/fhir/laboratory/StructureDefinition/Composition-eu-lab"
          ]
        },
        "identifier": {
          "assigner": {
            "display": "HL7 Europe"
          },
          "system": "urn:oid:2.16.840.1.113883.2.51.999",
          "value": "abcc9ed4-47c4-4ac7-af9c-f7299b444c08"
        },
        "author": [
          {
            "reference": "urn:uuid:eb0cd6df-69fc-4537-92f9-5aa74736aa87"
          }
        ],
        "category": [
          {
            "coding": [
              {
                "code": "26436-6",
                "system": "http://loinc.org",
                "display": "Laboratory studies (set)"
              }
            ]
          }
        ],
        "type": {
          "coding": [
            {
              "code": "11502-2",
              "system": "http://loinc.org",
              "display": "Laboratory report"
            }
          ],
          "text": "Laboratory Report"
        },
        "section": [
          {
            "code": {
              "coding": [
                {
                  "code": "26436-6",
                  "system": "http://loinc.org",
                  "display": "Laboratory studies (set)"
                }
              ],
              "text": "Laboratory studies"
            },
            "section": [
              {
                "code": {
                  "coding": [
                    {
                      "code": "$18719-5",
                      "system": "http://loinc.org",
                      "display": "Chemistry studies (set)"
                    }
                  ],
                  "text": "Chemistry"
                },
                "entry": [
                  {
                    "reference": "urn:uuid:f30ae4ed-923c-416b-bb2f-e29fab7d538d"
                  },
                  {
                    "reference": "urn:uuid:80f56304-0647-4f07-8ee8-a6de582c4911"
                  },
                  {
                    "reference": "urn:uuid:e0e3b3b3-786f-4f7c-ab7a-339c35d4447b"
                  },
                  {
                    "reference": "urn:uuid:f6d9c391-fe1d-4189-9437-d6ec7a57640e"
                  },
                  {
                    "reference": "urn:uuid:5724fdf0-f53a-4974-aaa5-f496e640d455"
                  },
                  {
                    "reference": "urn:uuid:98e9978b-5060-4d31-8f27-c22f2a036221"
                  },
                  {
                    "reference": "urn:uuid:43d5f86f-7734-4acc-98fb-f01348561139"
                  },
                  {
                    "reference": "urn:uuid:a7d2051a-5f20-48bf-8f00-ce3c9621d8ff"
                  },
                  {
                    "reference": "urn:uuid:7d32c449-9851-4700-a4cb-8a7aee5956b9"
                  }
                ],
                "text": {
                  "status": "generated",
                  "div": "<div xmlns=\"http://www.w3.org/1999/xhtml\"><h3>Chemistry</h3><table class=\"hl7__eu__lab__report\"><thead><tr><th>Test</th><th>11-SEP-2015</th><th>Reference&#xA0;Range</th><th>Unit</th></tr></thead><tbody><tr><td>Hemoglobin A1c/Hemoglobin.total in Blood</td><td><strong>4.0 L</strong></td><td>4.6 - 6.4</td><td>%</td></tr><tr><td>Glucose [Mass/volume] in Blood</td><td>86.8</td><td>70 - 110</td><td>mg/dL</td></tr><tr><td>Urea nitrogen [Mass/volume] in Blood</td><td>14.6</td><td>7 - 43</td><td>mg/dL</td></tr><tr><td>Creatinine [Mass/volume] in Blood</td><td>0.9</td><td>0.9 - 1.3</td><td>mg/dL</td></tr><tr><td>Calcium [Mass/volume] in Blood</td><td>9.8</td><td>8.5 - 10.5</td><td>mg/dL</td></tr><tr><td>Sodium [Moles/volume] in Blood</td><td>139.6</td><td>135 - 145</td><td>mmol/L</td></tr><tr><td>Potassium [Moles/volume] in Blood</td><td>4.4</td><td>3.5 - 5.3</td><td>mmol/L</td></tr><tr><td>Chloride [Moles/volume] in Blood</td><td>105.1</td><td>98 - 108</td><td>mmol/L</td></tr><tr><td>Carbon dioxide, total [Moles/volume] in Blood</td><td>23.1</td><td>22 - 29</td><td>mmol/L</td></tr></tbody></table></div>"
                },
                "title": "Chemistry"
              }
            ],
            "title": "Laboratory Report"
          },
          {
            "text": {
              "status": "generated",
              "div": "<div xmlns=\"http://www.w3.org/1999/xhtml\"><h3>Annotation</h3><table class=\"hl7__eu__lab__report\"><tr><th>Conclusion and Recommendations based on this report and previous findings known to us</th></tr><tr><td>All measured parameters are within normal limits except for a mildly decreased HbA1c, which may reflect recent changes in glucose metabolism, possible anemia, or laboratory variation. Renal function, electrolytes, and glucose are normal. No acute laboratory abnormalities detected; clinical correlation is recommended.</td></tr></table></div>"
            },
            "code": {
              "coding": [
                {
                  "system": "http://loinc.org",
                  "code": "48767-8",
                  "display": "Annotation comment"
                }
              ]
            },
            "title": "Annotation comment"
          }
        ],
        "status": "final",
        "subject": {
          "reference": "urn:uuid:b6d02311-66dd-44ce-811d-1609377cb16c",
          "display": "Gabrielius Gai훾i큰nas"
        },
        "date": "2015-09-11T18:05:46Z",
        "title": "Laboratory Report",
        "confidentiality": "N"
      }
    },
    {
      "fullUrl": "urn:uuid:fa99e4cd-29b9-4558-8d7c-594a181a16fe",
      "resource": {
        "resourceType": "DiagnosticReport",
        "id": "fa99e4cd-29b9-4558-8d7c-594a181a16fe",
        "meta": {
          "profile": [
            "http://hl7.eu/fhir/laboratory/StructureDefinition/DiagnosticReport-eu-lab"
          ]
        },
        "identifier": [
          {
            "assigner": {
              "display": "HL7 Europe"
            },
            "system": "urn:oid:2.16.840.1.113883.2.51.999",
            "value": "7ab11e58-3fcc-419d-963c-47ac381d3c4c"
          }
        ],
        "extension": [
          {
            "url": "http://hl7.org/fhir/5.0/StructureDefinition/extension-DiagnosticReport.composition",
            "valueReference": {
              "reference": "urn:uuid:abcc9ed4-47c4-4ac7-af9c-f7299b444c08"
            }
          }
        ],
        "category": [
          {
            "coding": [
              {
                "code": "26436-6",
                "system": "http://loinc.org",
                "display": "Laboratory studies (set)"
              }
            ]
          }
        ],
        "specimen": [
          {
            "reference": "urn:uuid:58532175-ba8a-440b-8496-3ce6186d31fb"
          }
        ],
        "result": [
          {
            "reference": "urn:uuid:f30ae4ed-923c-416b-bb2f-e29fab7d538d"
          },
          {
            "reference": "urn:uuid:80f56304-0647-4f07-8ee8-a6de582c4911"
          },
          {
            "reference": "urn:uuid:e0e3b3b3-786f-4f7c-ab7a-339c35d4447b"
          },
          {
            "reference": "urn:uuid:f6d9c391-fe1d-4189-9437-d6ec7a57640e"
          },
          {
            "reference": "urn:uuid:5724fdf0-f53a-4974-aaa5-f496e640d455"
          },
          {
            "reference": "urn:uuid:98e9978b-5060-4d31-8f27-c22f2a036221"
          },
          {
            "reference": "urn:uuid:43d5f86f-7734-4acc-98fb-f01348561139"
          },
          {
            "reference": "urn:uuid:a7d2051a-5f20-48bf-8f00-ce3c9621d8ff"
          },
          {
            "reference": "urn:uuid:7d32c449-9851-4700-a4cb-8a7aee5956b9"
          }
        ],
        "status": "registered",
        "code": {
          "coding": [
            {
              "code": "11502-2",
              "system": "http://loinc.org",
              "display": "Laboratory report"
            }
          ]
        },
        "subject": {
          "reference": "urn:uuid:b6d02311-66dd-44ce-811d-1609377cb16c",
          "display": "Gabrielius Gai훾i큰nas"
        }
      }
    },
    {
      "fullUrl": "urn:uuid:b6d02311-66dd-44ce-811d-1609377cb16c",
      "resource": {
        "resourceType": "Patient",
        "id": "b6d02311-66dd-44ce-811d-1609377cb16c",
        "meta": {
          "security": [
            {
              "system": "http://terminology.hl7.org/CodeSystem/v3-ActReason",
              "code": "HTEST"
            },
            {
              "system": "http://terminology.hl7.org/CodeSystem/v3-ActReason",
              "code": "TRAIN"
            }
          ],
          "tag": [
            {
              "system": "https://synderai.net/fhir/CodeSystem/tags",
              "code": "synthetic",
              "display": "SYNDERAI Synthetic data"
            }
          ],
          "profile": [
            "http://hl7.eu/fhir/base/StructureDefinition/patient-eu-core"
          ]
        },
        "identifier": [
          {
            "type": {
              "coding": [
                {
                  "code": "PT",
                  "system": "http://terminology.hl7.org/CodeSystem/v2-0203"
                }
              ]
            },
            "system": "http://ec.europa.eu/identifier/eci",
            "value": "5711-320329-3"
          },
          {
            "type": {
              "coding": [
                {
                  "code": "MR",
                  "system": "http://terminology.hl7.org/CodeSystem/v2-0203"
                }
              ]
            },
            "system": "http://local.setting.eu/identifier",
            "value": "b2cdf95b-c12d-3f56-84e4-d085f70edd0c"
          }
        ],
        "name": [
          {
            "family": "Gai훾i큰nas"
          },
          {
            "given": [
              "Gabrielius"
            ]
          },
          {
            "text": "Gabrielius Gai훾i큰nas"
          }
        ],
        "address": [
          {
            "line": [
              "5951 Monika Rapid"
            ],
            "use": "home",
            "type": "physical",
            "postalCode": "97190",
            "city": "Po큄katon",
            "country": "Lithuania"
          }
        ],
        "telecom": [
          {
            "system": "phone",
            "value": "+370 71605146"
          }
        ],
        "extension": [
          {
            "url": "http://hl7.org/fhir/StructureDefinition/patient-nationality",
            "valueCodeableConcept": {
              "coding": [
                {
                  "code": "LT",
                  "system": "http://hl7.org/fhir/ValueSet/country"
                }
              ]
            }
          }
        ],
        "text": {
          "status": "generated",
          "div": "<div xmlns=\"http://www.w3.org/1999/xhtml\"><table class=\"hl7__ips\"><tr><td>Gabrielius Gai훾i큰nas</td><td>male</td><td>19-May-1948</td></tr></table></div>"
        },
        "gender": "male",
        "birthDate": "1948-05-19"
      }
    },
    {
      "fullUrl": "urn:uuid:dc99f53b-4de7-47d8-95c2-e9633f956f18",
      "resource": {
        "resourceType": "ServiceRequest",
        "id": "dc99f53b-4de7-47d8-95c2-e9633f956f18",
        "meta": {
          "profile": [
            "http://hl7.eu/fhir/laboratory/StructureDefinition/ServiceRequest-eu-lab"
          ]
        },
        "identifier": [
          {
            "system": "http://example.org",
            "value": "3589bfc7-1ada-4df9-8d7b-f8a63acd77e6"
          }
        ],
        "specimen": [
          {
            "reference": "urn:uuid:58532175-ba8a-440b-8496-3ce6186d31fb"
          }
        ],
        "reasonCode": [
          {
            "coding": [
              {
                "code": "414545008",
                "system": "http://snomed.info/sct",
                "display": "Ischemic heart disease"
              }
            ]
          },
          {
            "coding": [
              {
                "code": "157141000119108",
                "system": "http://snomed.info/sct",
                "display": "Proteinuria due to type 2 diabetes mellitus"
              }
            ]
          },
          {
            "coding": [
              {
                "code": "401303003",
                "system": "http://snomed.info/sct",
                "display": "Acute ST segment elevation myocardial infarction"
              }
            ]
          },
          {
            "coding": [
              {
                "code": "40055000",
                "system": "http://snomed.info/sct",
                "display": "Chronic sinusitis"
              }
            ]
          },
          {
            "coding": [
              {
                "code": "90781000119102",
                "system": "http://snomed.info/sct",
                "display": "Microalbuminuria due to type 2 diabetes mellitus"
              }
            ]
          },
          {
            "coding": [
              {
                "code": "127013003",
                "system": "http://snomed.info/sct",
                "display": "Disorder of kidney due to diabetes mellitus"
              }
            ]
          },
          {
            "coding": [
              {
                "code": "59621000",
                "system": "http://snomed.info/sct",
                "display": "Essential hypertension"
              }
            ]
          },
          {
            "coding": [
              {
                "code": "15777000",
                "system": "http://snomed.info/sct",
                "display": "Prediabetes"
              }
            ]
          },
          {
            "coding": [
              {
                "code": "271737000",
                "system": "http://snomed.info/sct",
                "display": "Anemia"
              }
            ]
          }
        ],
        "status": "active",
        "intent": "order",
        "code": {
          "coding": [
            {
              "code": "108252007",
              "system": "http://snomed.info/sct",
              "display": "Laboratory procedure"
            }
          ]
        },
        "subject": {
          "reference": "urn:uuid:b6d02311-66dd-44ce-811d-1609377cb16c",
          "display": "Gabrielius Gai훾i큰nas"
        },
        "requester": {
          "reference": "urn:uuid:00d53a12-5050-4205-894a-aed1763f4577"
        }
      }
    },
    {
      "fullUrl": "urn:uuid:00d53a12-5050-4205-894a-aed1763f4577",
      "resource": {
        "resourceType": "PractitionerRole",
        "id": "00d53a12-5050-4205-894a-aed1763f4577",
        "meta": {
          "profile": [
            "http://hl7.eu/fhir/base/StructureDefinition/practitionerRole-eu"
          ]
        },
        "text": {
          "status": "generated",
          "div": "<div xmlns=\"http://www.w3.org/1999/xhtml\">Provider Role Id: 00d53a12-5050-4205-894a-aed1763f4577</div>"
        },
        "organization": {
          "reference": "urn:uuid:1719c00e-a612-40cc-96d5-9ec953125ad9"
        }
      }
    },
    {
      "fullUrl": "urn:uuid:1719c00e-a612-40cc-96d5-9ec953125ad9",
      "resource": {
        "resourceType": "Organization",
        "id": "1719c00e-a612-40cc-96d5-9ec953125ad9",
        "meta": {
          "profile": [
            "http://hl7.eu/fhir/base/StructureDefinition/organization-eu"
          ]
        },
        "identifier": [
          {
            "assigner": {
              "display": "HL7 Europe"
            },
            "system": "urn:oid:2.16.840.1.113883.2.51.999",
            "value": "a3f1a889-ead9-4cdb-a828-ac73c6633689"
          }
        ],
        "address": [
          {
            "line": [
              "182 Savanori킬 pr."
            ],
            "city": "Klaip휊da",
            "postalCode": "LT-91200",
            "country": "Lithuania"
          }
        ],
        "text": {
          "status": "generated",
          "div": "<div xmlns=\"http://www.w3.org/1999/xhtml\">Provider Organization: Dr. Tomas Bakas</div>"
        },
        "name": "Dr. Tomas Bakas"
      }
    },
    {
      "fullUrl": "urn:uuid:58532175-ba8a-440b-8496-3ce6186d31fb",
      "resource": {
        "resourceType": "Specimen",
        "id": "58532175-ba8a-440b-8496-3ce6186d31fb",
        "meta": {
          "profile": [
            "http://hl7.eu/fhir/laboratory/StructureDefinition/Specimen-eu-lab"
          ]
        },
        "collection": {
          "collectedDateTime": "2015-09-11"
        },
        "text": {
          "status": "generated",
          "div": "<div xmlns=\"http://www.w3.org/1999/xhtml\"><table class=\"hl7__eu__lab__report\"><tr><th>Specimen</th><th>Collection Date</th></tr><tr><td>Whole blood specimen (specimen)</td><td><span class=\"nb\">11-Sep-2015</span></td></tr></table></div>"
        },
        "type": {
          "coding": [
            {
              "code": "258580003",
              "system": "http://snomed.info/sct",
              "display": "Whole blood specimen (specimen)"
            }
          ]
        }
      }
    },
    {
      "fullUrl": "urn:uuid:f30ae4ed-923c-416b-bb2f-e29fab7d538d",
      "resource": {
        "resourceType": "Observation",
        "id": "f30ae4ed-923c-416b-bb2f-e29fab7d538d",
        "meta": {
          "profile": [
            "http://hl7.eu/fhir/laboratory/StructureDefinition/Observation-resultslab-eu-lab"
          ]
        },
        "performer": [
          {
            "display": "The Central European Lab"
          }
        ],
        "category": [
          {
            "coding": [
              {
                "system": "http://terminology.hl7.org/CodeSystem/observation-category",
                "code": "laboratory"
              }
            ]
          }
        ],
        "code": {
          "coding": [
            {
              "code": "4548-4",
              "system": "http://loinc.org",
              "display": "Hemoglobin A1c/Hemoglobin.total in Blood"
            }
          ],
          "text": "Hemoglobin A1c/Hemoglobin.total in Blood"
        },
        "valueQuantity": {
          "system": "http://unitsofmeasure.org",
          "value": 4,
          "unit": "%",
          "code": "%"
        },
        "referenceRange": [
          {
            "low": {
              "value": 4.6,
              "code": "%",
              "system": "http://unitsofmeasure.org"
            }
          },
          {
            "high": {
              "value": 6.4,
              "code": "%",
              "system": "http://unitsofmeasure.org"
            }
          }
        ],
        "interpretation": [
          {
            "coding": [
              {
                "code": "L",
                "system": "http://terminology.hl7.org/CodeSystem/v3-ObservationInterpretation",
                "display": "Low"
              }
            ]
          }
        ],
        "text": {
          "status": "generated",
          "div": "<div xmlns=\"http://www.w3.org/1999/xhtml\"><table class=\"hl7__eu__lab__report\"><tr><th>Test</th><th>11-Sep-2015</th><th>Reference&#xA0;Range</th><th>Unit</th></tr><tr><td>Hemoglobin A1c/Hemoglobin.total in Blood</td><td>4.0</td><td>4.6 - 6.4</td><td>L</td><td>%</td></tr></table></div>"
        },
        "status": "final",
        "subject": {
          "reference": "urn:uuid:b6d02311-66dd-44ce-811d-1609377cb16c",
          "display": "Gabrielius Gai훾i큰nas"
        },
        "effectiveDateTime": "2015-09-11T16:05:46Z",
        "specimen": {
          "reference": "urn:uuid:58532175-ba8a-440b-8496-3ce6186d31fb"
        }
      }
    },
    {
      "fullUrl": "urn:uuid:80f56304-0647-4f07-8ee8-a6de582c4911",
      "resource": {
        "resourceType": "Observation",
        "id": "80f56304-0647-4f07-8ee8-a6de582c4911",
        "meta": {
          "profile": [
            "http://hl7.eu/fhir/laboratory/StructureDefinition/Observation-resultslab-eu-lab"
          ]
        },
        "performer": [
          {
            "display": "The Central European Lab"
          }
        ],
        "category": [
          {
            "coding": [
              {
                "system": "http://terminology.hl7.org/CodeSystem/observation-category",
                "code": "laboratory"
              }
            ]
          }
        ],
        "code": {
          "coding": [
            {
              "code": "2339-0",
              "system": "http://loinc.org",
              "display": "Glucose [Mass/volume] in Blood"
            }
          ],
          "text": "Glucose [Mass/volume] in Blood"
        },
        "valueQuantity": {
          "system": "http://unitsofmeasure.org",
          "value": 86.8,
          "unit": "mg/dL",
          "code": "mg/dL"
        },
        "referenceRange": [
          {
            "low": {
              "value": 70,
              "code": "mg/dL",
              "system": "http://unitsofmeasure.org"
            }
          },
          {
            "high": {
              "value": 110,
              "code": "mg/dL",
              "system": "http://unitsofmeasure.org"
            }
          }
        ],
        "text": {
          "status": "generated",
          "div": "<div xmlns=\"http://www.w3.org/1999/xhtml\"><table class=\"hl7__eu__lab__report\"><tr><th>Test</th><th>11-Sep-2015</th><th>Reference&#xA0;Range</th><th>Unit</th></tr><tr><td>Glucose [Mass/volume] in Blood</td><td>86.8</td><td>70 - 110</td><td></td><td>mg/dL</td></tr></table></div>"
        },
        "status": "final",
        "subject": {
          "reference": "urn:uuid:b6d02311-66dd-44ce-811d-1609377cb16c",
          "display": "Gabrielius Gai훾i큰nas"
        },
        "effectiveDateTime": "2015-09-11T16:05:46Z",
        "specimen": {
          "reference": "urn:uuid:58532175-ba8a-440b-8496-3ce6186d31fb"
        }
      }
    },
    {
      "fullUrl": "urn:uuid:e0e3b3b3-786f-4f7c-ab7a-339c35d4447b",
      "resource": {
        "resourceType": "Observation",
        "id": "e0e3b3b3-786f-4f7c-ab7a-339c35d4447b",
        "meta": {
          "profile": [
            "http://hl7.eu/fhir/laboratory/StructureDefinition/Observation-resultslab-eu-lab"
          ]
        },
        "performer": [
          {
            "display": "The Central European Lab"
          }
        ],
        "category": [
          {
            "coding": [
              {
                "system": "http://terminology.hl7.org/CodeSystem/observation-category",
                "code": "laboratory"
              }
            ]
          }
        ],
        "code": {
          "coding": [
            {
              "code": "6299-2",
              "system": "http://loinc.org",
              "display": "Urea nitrogen [Mass/volume] in Blood"
            }
          ],
          "text": "Urea nitrogen [Mass/volume] in Blood"
        },
        "valueQuantity": {
          "system": "http://unitsofmeasure.org",
          "value": 14.6,
          "unit": "mg/dL",
          "code": "mg/dL"
        },
        "referenceRange": [
          {
            "low": {
              "value": 7,
              "code": "mg/dL",
              "system": "http://unitsofmeasure.org"
            }
          },
          {
            "high": {
              "value": 43,
              "code": "mg/dL",
              "system": "http://unitsofmeasure.org"
            }
          }
        ],
        "text": {
          "status": "generated",
          "div": "<div xmlns=\"http://www.w3.org/1999/xhtml\"><table class=\"hl7__eu__lab__report\"><tr><th>Test</th><th>11-Sep-2015</th><th>Reference&#xA0;Range</th><th>Unit</th></tr><tr><td>Urea nitrogen [Mass/volume] in Blood</td><td>14.6</td><td>7 - 43</td><td></td><td>mg/dL</td></tr></table></div>"
        },
        "status": "final",
        "subject": {
          "reference": "urn:uuid:b6d02311-66dd-44ce-811d-1609377cb16c",
          "display": "Gabrielius Gai훾i큰nas"
        },
        "effectiveDateTime": "2015-09-11T16:05:46Z",
        "specimen": {
          "reference": "urn:uuid:58532175-ba8a-440b-8496-3ce6186d31fb"
        }
      }
    },
    {
      "fullUrl": "urn:uuid:f6d9c391-fe1d-4189-9437-d6ec7a57640e",
      "resource": {
        "resourceType": "Observation",
        "id": "f6d9c391-fe1d-4189-9437-d6ec7a57640e",
        "meta": {
          "profile": [
            "http://hl7.eu/fhir/laboratory/StructureDefinition/Observation-resultslab-eu-lab"
          ]
        },
        "performer": [
          {
            "display": "The Central European Lab"
          }
        ],
        "category": [
          {
            "coding": [
              {
                "system": "http://terminology.hl7.org/CodeSystem/observation-category",
                "code": "laboratory"
              }
            ]
          }
        ],
        "code": {
          "coding": [
            {
              "code": "38483-4",
              "system": "http://loinc.org",
              "display": "Creatinine [Mass/volume] in Blood"
            }
          ],
          "text": "Creatinine [Mass/volume] in Blood"
        },
        "valueQuantity": {
          "system": "http://unitsofmeasure.org",
          "value": 0.9,
          "unit": "mg/dL",
          "code": "mg/dL"
        },
        "referenceRange": [
          {
            "low": {
              "value": 0.9,
              "code": "mg/dL",
              "system": "http://unitsofmeasure.org"
            }
          },
          {
            "high": {
              "value": 1.3,
              "code": "mg/dL",
              "system": "http://unitsofmeasure.org"
            }
          }
        ],
        "text": {
          "status": "generated",
          "div": "<div xmlns=\"http://www.w3.org/1999/xhtml\"><table class=\"hl7__eu__lab__report\"><tr><th>Test</th><th>11-Sep-2015</th><th>Reference&#xA0;Range</th><th>Unit</th></tr><tr><td>Creatinine [Mass/volume] in Blood</td><td>0.9</td><td>0.9 - 1.3</td><td></td><td>mg/dL</td></tr></table></div>"
        },
        "status": "final",
        "subject": {
          "reference": "urn:uuid:b6d02311-66dd-44ce-811d-1609377cb16c",
          "display": "Gabrielius Gai훾i큰nas"
        },
        "effectiveDateTime": "2015-09-11T16:05:46Z",
        "specimen": {
          "reference": "urn:uuid:58532175-ba8a-440b-8496-3ce6186d31fb"
        }
      }
    },
    {
      "fullUrl": "urn:uuid:5724fdf0-f53a-4974-aaa5-f496e640d455",
      "resource": {
        "resourceType": "Observation",
        "id": "5724fdf0-f53a-4974-aaa5-f496e640d455",
        "meta": {
          "profile": [
            "http://hl7.eu/fhir/laboratory/StructureDefinition/Observation-resultslab-eu-lab"
          ]
        },
        "performer": [
          {
            "display": "The Central European Lab"
          }
        ],
        "category": [
          {
            "coding": [
              {
                "system": "http://terminology.hl7.org/CodeSystem/observation-category",
                "code": "laboratory"
              }
            ]
          }
        ],
        "code": {
          "coding": [
            {
              "code": "49765-1",
              "system": "http://loinc.org",
              "display": "Calcium [Mass/volume] in Blood"
            }
          ],
          "text": "Calcium [Mass/volume] in Blood"
        },
        "valueQuantity": {
          "system": "http://unitsofmeasure.org",
          "value": 9.8,
          "unit": "mg/dL",
          "code": "mg/dL"
        },
        "referenceRange": [
          {
            "low": {
              "value": 8.5,
              "code": "mg/dL",
              "system": "http://unitsofmeasure.org"
            }
          },
          {
            "high": {
              "value": 10.5,
              "code": "mg/dL",
              "system": "http://unitsofmeasure.org"
            }
          }
        ],
        "text": {
          "status": "generated",
          "div": "<div xmlns=\"http://www.w3.org/1999/xhtml\"><table class=\"hl7__eu__lab__report\"><tr><th>Test</th><th>11-Sep-2015</th><th>Reference&#xA0;Range</th><th>Unit</th></tr><tr><td>Calcium [Mass/volume] in Blood</td><td>9.8</td><td>8.5 - 10.5</td><td></td><td>mg/dL</td></tr></table></div>"
        },
        "status": "final",
        "subject": {
          "reference": "urn:uuid:b6d02311-66dd-44ce-811d-1609377cb16c",
          "display": "Gabrielius Gai훾i큰nas"
        },
        "effectiveDateTime": "2015-09-11T16:05:46Z",
        "specimen": {
          "reference": "urn:uuid:58532175-ba8a-440b-8496-3ce6186d31fb"
        }
      }
    },
    {
      "fullUrl": "urn:uuid:98e9978b-5060-4d31-8f27-c22f2a036221",
      "resource": {
        "resourceType": "Observation",
        "id": "98e9978b-5060-4d31-8f27-c22f2a036221",
        "meta": {
          "profile": [
            "http://hl7.eu/fhir/laboratory/StructureDefinition/Observation-resultslab-eu-lab"
          ]
        },
        "performer": [
          {
            "display": "The Central European Lab"
          }
        ],
        "category": [
          {
            "coding": [
              {
                "system": "http://terminology.hl7.org/CodeSystem/observation-category",
                "code": "laboratory"
              }
            ]
          }
        ],
        "code": {
          "coding": [
            {
              "code": "2947-0",
              "system": "http://loinc.org",
              "display": "Sodium [Moles/volume] in Blood"
            }
          ],
          "text": "Sodium [Moles/volume] in Blood"
        },
        "valueQuantity": {
          "system": "http://unitsofmeasure.org",
          "value": 139.6,
          "unit": "mmol/L",
          "code": "mmol/L"
        },
        "referenceRange": [
          {
            "low": {
              "value": 135,
              "code": "mmol/L",
              "system": "http://unitsofmeasure.org"
            }
          },
          {
            "high": {
              "value": 145,
              "code": "mmol/L",
              "system": "http://unitsofmeasure.org"
            }
          }
        ],
        "text": {
          "status": "generated",
          "div": "<div xmlns=\"http://www.w3.org/1999/xhtml\"><table class=\"hl7__eu__lab__report\"><tr><th>Test</th><th>11-Sep-2015</th><th>Reference&#xA0;Range</th><th>Unit</th></tr><tr><td>Sodium [Moles/volume] in Blood</td><td>139.6</td><td>135 - 145</td><td></td><td>mmol/L</td></tr></table></div>"
        },
        "status": "final",
        "subject": {
          "reference": "urn:uuid:b6d02311-66dd-44ce-811d-1609377cb16c",
          "display": "Gabrielius Gai훾i큰nas"
        },
        "effectiveDateTime": "2015-09-11T16:05:46Z",
        "specimen": {
          "reference": "urn:uuid:58532175-ba8a-440b-8496-3ce6186d31fb"
        }
      }
    },
    {
      "fullUrl": "urn:uuid:43d5f86f-7734-4acc-98fb-f01348561139",
      "resource": {
        "resourceType": "Observation",
        "id": "43d5f86f-7734-4acc-98fb-f01348561139",
        "meta": {
          "profile": [
            "http://hl7.eu/fhir/laboratory/StructureDefinition/Observation-resultslab-eu-lab"
          ]
        },
        "performer": [
          {
            "display": "The Central European Lab"
          }
        ],
        "category": [
          {
            "coding": [
              {
                "system": "http://terminology.hl7.org/CodeSystem/observation-category",
                "code": "laboratory"
              }
            ]
          }
        ],
        "code": {
          "coding": [
            {
              "code": "6298-4",
              "system": "http://loinc.org",
              "display": "Potassium [Moles/volume] in Blood"
            }
          ],
          "text": "Potassium [Moles/volume] in Blood"
        },
        "valueQuantity": {
          "system": "http://unitsofmeasure.org",
          "value": 4.4,
          "unit": "mmol/L",
          "code": "mmol/L"
        },
        "referenceRange": [
          {
            "low": {
              "value": 3.5,
              "code": "mmol/L",
              "system": "http://unitsofmeasure.org"
            }
          },
          {
            "high": {
              "value": 5.3,
              "code": "mmol/L",
              "system": "http://unitsofmeasure.org"
            }
          }
        ],
        "text": {
          "status": "generated",
          "div": "<div xmlns=\"http://www.w3.org/1999/xhtml\"><table class=\"hl7__eu__lab__report\"><tr><th>Test</th><th>11-Sep-2015</th><th>Reference&#xA0;Range</th><th>Unit</th></tr><tr><td>Potassium [Moles/volume] in Blood</td><td>4.4</td><td>3.5 - 5.3</td><td></td><td>mmol/L</td></tr></table></div>"
        },
        "status": "final",
        "subject": {
          "reference": "urn:uuid:b6d02311-66dd-44ce-811d-1609377cb16c",
          "display": "Gabrielius Gai훾i큰nas"
        },
        "effectiveDateTime": "2015-09-11T16:05:46Z",
        "specimen": {
          "reference": "urn:uuid:58532175-ba8a-440b-8496-3ce6186d31fb"
        }
      }
    },
    {
      "fullUrl": "urn:uuid:a7d2051a-5f20-48bf-8f00-ce3c9621d8ff",
      "resource": {
        "resourceType": "Observation",
        "id": "a7d2051a-5f20-48bf-8f00-ce3c9621d8ff",
        "meta": {
          "profile": [
            "http://hl7.eu/fhir/laboratory/StructureDefinition/Observation-resultslab-eu-lab"
          ]
        },
        "performer": [
          {
            "display": "The Central European Lab"
          }
        ],
        "category": [
          {
            "coding": [
              {
                "system": "http://terminology.hl7.org/CodeSystem/observation-category",
                "code": "laboratory"
              }
            ]
          }
        ],
        "code": {
          "coding": [
            {
              "code": "2069-3",
              "system": "http://loinc.org",
              "display": "Chloride [Moles/volume] in Blood"
            }
          ],
          "text": "Chloride [Moles/volume] in Blood"
        },
        "valueQuantity": {
          "system": "http://unitsofmeasure.org",
          "value": 105.1,
          "unit": "mmol/L",
          "code": "mmol/L"
        },
        "referenceRange": [
          {
            "low": {
              "value": 98,
              "code": "mmol/L",
              "system": "http://unitsofmeasure.org"
            }
          },
          {
            "high": {
              "value": 108,
              "code": "mmol/L",
              "system": "http://unitsofmeasure.org"
            }
          }
        ],
        "text": {
          "status": "generated",
          "div": "<div xmlns=\"http://www.w3.org/1999/xhtml\"><table class=\"hl7__eu__lab__report\"><tr><th>Test</th><th>11-Sep-2015</th><th>Reference&#xA0;Range</th><th>Unit</th></tr><tr><td>Chloride [Moles/volume] in Blood</td><td>105.1</td><td>98 - 108</td><td></td><td>mmol/L</td></tr></table></div>"
        },
        "status": "final",
        "subject": {
          "reference": "urn:uuid:b6d02311-66dd-44ce-811d-1609377cb16c",
          "display": "Gabrielius Gai훾i큰nas"
        },
        "effectiveDateTime": "2015-09-11T16:05:46Z",
        "specimen": {
          "reference": "urn:uuid:58532175-ba8a-440b-8496-3ce6186d31fb"
        }
      }
    },
    {
      "fullUrl": "urn:uuid:7d32c449-9851-4700-a4cb-8a7aee5956b9",
      "resource": {
        "resourceType": "Observation",
        "id": "7d32c449-9851-4700-a4cb-8a7aee5956b9",
        "meta": {
          "profile": [
            "http://hl7.eu/fhir/laboratory/StructureDefinition/Observation-resultslab-eu-lab"
          ]
        },
        "performer": [
          {
            "display": "The Central European Lab"
          }
        ],
        "category": [
          {
            "coding": [
              {
                "system": "http://terminology.hl7.org/CodeSystem/observation-category",
                "code": "laboratory"
              }
            ]
          }
        ],
        "code": {
          "coding": [
            {
              "code": "20565-8",
              "system": "http://loinc.org",
              "display": "Carbon dioxide, total [Moles/volume] in Blood"
            }
          ],
          "text": "Carbon dioxide, total [Moles/volume] in Blood"
        },
        "valueQuantity": {
          "system": "http://unitsofmeasure.org",
          "value": 23.1,
          "unit": "mmol/L",
          "code": "mmol/L"
        },
        "referenceRange": [
          {
            "low": {
              "value": 22,
              "code": "mmol/L",
              "system": "http://unitsofmeasure.org"
            }
          },
          {
            "high": {
              "value": 29,
              "code": "mmol/L",
              "system": "http://unitsofmeasure.org"
            }
          }
        ],
        "text": {
          "status": "generated",
          "div": "<div xmlns=\"http://www.w3.org/1999/xhtml\"><table class=\"hl7__eu__lab__report\"><tr><th>Test</th><th>11-Sep-2015</th><th>Reference&#xA0;Range</th><th>Unit</th></tr><tr><td>Carbon dioxide, total [Moles/volume] in Blood</td><td>23.1</td><td>22 - 29</td><td></td><td>mmol/L</td></tr></table></div>"
        },
        "status": "final",
        "subject": {
          "reference": "urn:uuid:b6d02311-66dd-44ce-811d-1609377cb16c",
          "display": "Gabrielius Gai훾i큰nas"
        },
        "effectiveDateTime": "2015-09-11T16:05:46Z",
        "specimen": {
          "reference": "urn:uuid:58532175-ba8a-440b-8496-3ce6186d31fb"
        }
      }
    },
    {
      "fullUrl": "urn:uuid:b8d5730d-f2cf-4900-87fc-b82580e6a6a8",
      "resource": {
        "resourceType": "Device",
        "id": "b8d5730d-f2cf-4900-87fc-b82580e6a6a8",
        "deviceName": [
          {
            "name": "SYNDERAI Synthetic Generator",
            "type": "manufacturer-name"
          }
        ],
        "version": [
          {
            "value": "5.0"
          }
        ],
        "text": {
          "status": "generated",
          "div": "<div xmlns=\"http://www.w3.org/1999/xhtml\">SYNDERAI Synthetic Generator v5.0</div>"
        },
        "status": "active\"",
        "distinctIdentifier": "synderai-generator-50",
        "manufacturer": "SYNDERAI Project"
      }
    },
    {
      "fullUrl": "urn:uuid:b193bed4-502a-4e6c-9373-bb859dac3587",
      "resource": {
        "resourceType": "Provenance",
        "id": "b193bed4-502a-4e6c-9373-bb859dac3587",
        "target": [
          {
            "reference": "Patient/b6d02311-66dd-44ce-811d-1609377cb16c"
          },
          {
            "reference": "Bundle/44771ac0-23b9-43ba-b569-f5b3346cd5b8"
          },
          {
            "reference": "Composition/0edfe74e-5d82-4b97-b269-43e7e16c4db0"
          },
          {
            "reference": "PractitionerRole/eb0cd6df-69fc-4537-92f9-5aa74736aa87"
          },
          {
            "reference": "Practitioner/11937ecd-8968-4cb0-9f7f-a3108dc5d54b"
          },
          {
            "reference": "PractitionerRole/00d53a12-5050-4205-894a-aed1763f4577"
          },
          {
            "reference": "Organization/1719c00e-a612-40cc-96d5-9ec953125ad9"
          }
        ],
        "activity": {
          "text": "Synthetic Example Data Generation"
        },
        "policy": [
          "https://synderai.net/synderai-synthetic-data-policy"
        ],
        "agent": [
          {
            "type": {
              "text": "author"
            },
            "who": {
              "reference": "Device/b8d5730d-f2cf-4900-87fc-b82580e6a6a8"
            }
          }
        ],
        "reason": [
          {
            "text": "Interoperability Testing and Training (non-clinical use)"
          }
        ],
        "text": {
          "status": "generated",
          "div": "<div xmlns=\"http://www.w3.org/1999/xhtml\">Provenance for SYNDERAI Synthetic Example Data Resource</div>"
        },
        "recorded": "2015-09-11T18:05:46Z"
      }
    },
    {
      "fullUrl": "urn:uuid:eb0cd6df-69fc-4537-92f9-5aa74736aa87",
      "resource": {
        "resourceType": "PractitionerRole",
        "id": "eb0cd6df-69fc-4537-92f9-5aa74736aa87",
        "meta": {
          "profile": [
            "http://hl7.eu/fhir/base/StructureDefinition/practitionerRole-eu"
          ]
        },
        "text": {
          "status": "generated",
          "div": "<div xmlns=\"http://www.w3.org/1999/xhtml\">Laboratory Role Id: eb0cd6df-69fc-4537-92f9-5aa74736aa87</div>"
        },
        "practitioner": {
          "reference": "urn:uuid:11937ecd-8968-4cb0-9f7f-a3108dc5d54b"
        }
      }
    },
    {
      "fullUrl": "urn:uuid:11937ecd-8968-4cb0-9f7f-a3108dc5d54b",
      "resource": {
        "resourceType": "Practitioner",
        "id": "11937ecd-8968-4cb0-9f7f-a3108dc5d54b",
        "meta": {
          "profile": [
            "http://hl7.eu/fhir/base/StructureDefinition/practitioner-eu"
          ]
        },
        "identifier": [
          {
            "assigner": {
              "display": "HL7 Europe"
            },
            "system": "urn:oid:2.16.840.1.113883.2.51.999",
            "value": "b334f174-bfa8-47e8-ad82-cc021a51cbcb"
          }
        ],
        "name": [
          {
            "prefix": [
              "dr"
            ],
            "given": [
              "Ex"
            ],
            "family": "Ample"
          }
        ],
        "address": [
          {
            "line": [
              "Laboratoire Central Europ챕enne",
              "Boulevard du Jardin Botanique 32"
            ],
            "postalCode": "1000",
            "city": "Brussels",
            "country": "Belgium"
          }
        ],
        "text": {
          "status": "generated",
          "div": "<div xmlns=\"http://www.w3.org/1999/xhtml\">Laboratory: Laboratoire Central Europ챕enne, 1000 Brussels, Belgium</div>"
        }
      }
    }
  ],
  "type": "document",
  "timestamp": "2015-09-11T18:05:46Z"
}
