{
  "resourceType": "Bundle",
  "id": "ba5f23ea-45d5-46a9-bacd-fae0b17623e0",
  "meta": {
    "profile": [
      "http://hl7.eu/fhir/laboratory/StructureDefinition/Bundle-eu-lab"
    ]
  },
  "identifier": {
    "assigner": {
      "display": "HL7 Europe"
    },
    "system": "urn:oid:2.16.840.1.113883.2.51.999",
    "value": "d49f7764-13ea-490f-8070-6c606250585d"
  },
  "entry": [
    {
      "fullUrl": "urn:uuid:1b259b7c-7771-4ee3-aa73-095745215511",
      "resource": {
        "resourceType": "Composition",
        "id": "1b259b7c-7771-4ee3-aa73-095745215511",
        "meta": {
          "profile": [
            "http://hl7.eu/fhir/laboratory/StructureDefinition/Composition-eu-lab"
          ]
        },
        "identifier": {
          "assigner": {
            "display": "HL7 Europe"
          },
          "system": "urn:oid:2.16.840.1.113883.2.51.999",
          "value": "49328f6d-9669-4c2c-8db3-fe26ee77105c"
        },
        "author": [
          {
            "reference": "urn:uuid:26ccb866-638b-471b-b694-3c90f47e92f5"
          }
        ],
        "category": [
          {
            "coding": [
              {
                "code": "26436-6",
                "system": "http://loinc.org",
                "display": "Laboratory studies (set)"
              }
            ]
          }
        ],
        "type": {
          "coding": [
            {
              "code": "11502-2",
              "system": "http://loinc.org",
              "display": "Laboratory report"
            }
          ],
          "text": "Laboratory Report"
        },
        "section": [
          {
            "code": {
              "coding": [
                {
                  "code": "26436-6",
                  "system": "http://loinc.org",
                  "display": "Laboratory studies (set)"
                }
              ],
              "text": "Laboratory studies"
            },
            "section": [
              {
                "code": {
                  "coding": [
                    {
                      "code": "$18719-5",
                      "system": "http://loinc.org",
                      "display": "Chemistry studies (set)"
                    }
                  ],
                  "text": "Chemistry"
                },
                "entry": [
                  {
                    "reference": "urn:uuid:1679e0e3-2455-4231-8347-2eb4f817a131"
                  },
                  {
                    "reference": "urn:uuid:09488df3-a6a0-4686-99af-fe990c1b6e81"
                  },
                  {
                    "reference": "urn:uuid:e15c2510-4d94-4590-83fc-e4622874ba19"
                  },
                  {
                    "reference": "urn:uuid:11666588-6858-4c98-a060-5cec936a6d5c"
                  },
                  {
                    "reference": "urn:uuid:31957c5d-0614-4336-8ae2-e131c9f16625"
                  },
                  {
                    "reference": "urn:uuid:0b3dd42d-cb38-49f7-86d4-b14358bff3b5"
                  },
                  {
                    "reference": "urn:uuid:b463c840-a1a1-475d-9f93-358decb809a0"
                  },
                  {
                    "reference": "urn:uuid:13a4c083-90cb-416f-95b4-7b630c1f944c"
                  },
                  {
                    "reference": "urn:uuid:be0d5b07-3fbc-41d2-acf0-cb1aa524a9d1"
                  },
                  {
                    "reference": "urn:uuid:7f91be43-bbbc-45ff-8408-7eb5a6ce8ae4"
                  },
                  {
                    "reference": "urn:uuid:675f01ec-ef37-48b8-bde8-eaffb420aded"
                  },
                  {
                    "reference": "urn:uuid:b4c10922-33e0-4db0-b841-fa182678ed3a"
                  },
                  {
                    "reference": "urn:uuid:a3816ad4-0749-4ec2-87dd-ab8eee6e9ae3"
                  },
                  {
                    "reference": "urn:uuid:fa2cf4bd-cbeb-41f0-aa33-b6a59ecb7ab2"
                  },
                  {
                    "reference": "urn:uuid:46781eb5-e0c3-4d89-a445-73ded25ad17c"
                  },
                  {
                    "reference": "urn:uuid:14a2349b-0ab8-4610-ab7e-c845a8445aab"
                  },
                  {
                    "reference": "urn:uuid:89191020-0537-48ed-92eb-4ebe88a68b15"
                  },
                  {
                    "reference": "urn:uuid:ac366a19-ae4d-4c3a-b093-bc685bd2e7df"
                  },
                  {
                    "reference": "urn:uuid:61031158-e544-4b19-8fdb-8fbc96fabfae"
                  }
                ],
                "text": {
                  "status": "generated",
                  "div": "<div xmlns=\"http://www.w3.org/1999/xhtml\"><h3>Chemistry</h3><table class=\"hl7__eu__lab__report\"><thead><tr><th>Test</th><th>11-JUN-2021</th><th>Reference&#xA0;Range</th><th>Unit</th></tr></thead><tbody><tr><td>Glucose [Mass/volume] in Blood</td><td>79.7</td><td>70 - 99</td><td>mg/dL</td></tr><tr><td>Urea nitrogen [Mass/volume] in Blood</td><td>11.2</td><td>7 - 20</td><td>mg/dL</td></tr><tr><td>Creatinine [Mass/volume] in Blood</td><td><strong>2.6 H</strong></td><td>0.7 - 1.3</td><td>mg/dL</td></tr><tr><td>Calcium [Mass/volume] in Blood</td><td>8.8</td><td>8.5 - 10.5</td><td>mg/dL</td></tr><tr><td>Sodium [Moles/volume] in Blood</td><td>139.3</td><td>135 - 145</td><td>mmol/L</td></tr><tr><td>Potassium [Moles/volume] in Blood</td><td>4.8</td><td>3.5 - 5</td><td>mmol/L</td></tr><tr><td>Chloride [Moles/volume] in Blood</td><td>103.2</td><td>98 - 107</td><td>mmol/L</td></tr><tr><td>Carbon dioxide, total [Moles/volume] in Blood</td><td><strong>22.0 L</strong></td><td>24 - 29</td><td>mmol/L</td></tr><tr><td>Protein [Mass/volume] in Serum or Plasma</td><td>6.6</td><td>6.6 - 8.3</td><td>g/dL</td></tr><tr><td>Albumin [Mass/volume] in Serum or Plasma</td><td>5.2</td><td>3.5 - 5.5</td><td>g/dL</td></tr><tr><td>Globulin [Mass/volume] in Serum by calculation</td><td>3.2</td><td>2 - 3.5</td><td>g/L</td></tr><tr><td>Bilirubin.total [Mass/volume] in Serum or Plasma</td><td>0.6</td><td>0.3 - 1.2</td><td>mg/dL</td></tr><tr><td>Alkaline phosphatase [Enzymatic activity/volume] in Serum or Plasma</td><td>132.2</td><td>39 - 136</td><td>U/L</td></tr><tr><td>Alanine aminotransferase [Enzymatic activity/volume] in Serum or Plasma</td><td>38.3</td><td>7 - 52</td><td>U/L</td></tr><tr><td>Aspartate aminotransferase [Enzymatic activity/volume] in Serum or Plasma</td><td>33.9</td><td>10 - 40</td><td>U/L</td></tr><tr><td>Cholesterol [Mass/volume] in Serum or Plasma</td><td>187.0</td><td>125 - 200</td><td>mg/dL</td></tr><tr><td>Triglyceride [Mass/volume] in Serum or Plasma</td><td>118.6</td><td>0 - 150</td><td>mg/dL</td></tr><tr><td>Cholesterol in LDL [Mass/volume] in Serum or Plasma by Direct assay</td><td><strong>145.7 H</strong></td><td>0 - 130</td><td>mg/dL</td></tr><tr><td>Cholesterol in HDL [Mass/volume] in Serum or Plasma</td><td>63.0</td><td>40 - 100</td><td>mg/dL</td></tr></tbody></table></div>"
                },
                "title": "Chemistry"
              }
            ],
            "title": "Laboratory Report"
          },
          {
            "text": {
              "status": "generated",
              "div": "<div xmlns=\"http://www.w3.org/1999/xhtml\"><h3>Annotation</h3><table class=\"hl7__eu__lab__report\"><tr><th>Conclusion and Recommendations based on this report and previous findings known to us</th></tr><tr><td>The patient shows elevated creatinine, suggesting impaired renal function, and low total CO₂, which may indicate mild metabolic acidosis. LDL cholesterol is also elevated, increasing cardiovascular risk. Other parameters, including liver function, glucose, and electrolytes, are within normal limits. Renal function and cardiovascular risk factors should be further evaluated clinically.</td></tr></table></div>"
            },
            "code": {
              "coding": [
                {
                  "system": "http://loinc.org",
                  "code": "48767-8",
                  "display": "Annotation comment"
                }
              ]
            },
            "title": "Annotation comment"
          }
        ],
        "status": "final",
        "subject": {
          "reference": "urn:uuid:7576a1ea-9efe-4fbc-8c0e-811c5c331532",
          "display": "Gioele Fabbri"
        },
        "date": "2021-06-11T17:46:20Z",
        "title": "Laboratory Report",
        "confidentiality": "N"
      }
    },
    {
      "fullUrl": "urn:uuid:790b7a6a-a340-49a2-ad4a-b5f295766690",
      "resource": {
        "resourceType": "DiagnosticReport",
        "id": "790b7a6a-a340-49a2-ad4a-b5f295766690",
        "meta": {
          "profile": [
            "http://hl7.eu/fhir/laboratory/StructureDefinition/DiagnosticReport-eu-lab"
          ]
        },
        "identifier": [
          {
            "assigner": {
              "display": "HL7 Europe"
            },
            "system": "urn:oid:2.16.840.1.113883.2.51.999",
            "value": "7cb8f1ec-8f3d-4f6f-b1e1-81e0a723e1ca"
          }
        ],
        "extension": [
          {
            "url": "http://hl7.org/fhir/5.0/StructureDefinition/extension-DiagnosticReport.composition",
            "valueReference": {
              "reference": "urn:uuid:49328f6d-9669-4c2c-8db3-fe26ee77105c"
            }
          }
        ],
        "category": [
          {
            "coding": [
              {
                "code": "26436-6",
                "system": "http://loinc.org",
                "display": "Laboratory studies (set)"
              }
            ]
          }
        ],
        "specimen": [
          {
            "reference": "urn:uuid:0654615e-aeae-48e8-99a6-e34bc064fcf8"
          },
          {
            "reference": "urn:uuid:6e215454-a449-4fff-9ad6-dc5911c1c768"
          },
          {
            "reference": "urn:uuid:3ecb1a48-e909-45b5-a58c-1a948a75af95"
          }
        ],
        "result": [
          {
            "reference": "urn:uuid:1679e0e3-2455-4231-8347-2eb4f817a131"
          },
          {
            "reference": "urn:uuid:09488df3-a6a0-4686-99af-fe990c1b6e81"
          },
          {
            "reference": "urn:uuid:e15c2510-4d94-4590-83fc-e4622874ba19"
          },
          {
            "reference": "urn:uuid:11666588-6858-4c98-a060-5cec936a6d5c"
          },
          {
            "reference": "urn:uuid:31957c5d-0614-4336-8ae2-e131c9f16625"
          },
          {
            "reference": "urn:uuid:0b3dd42d-cb38-49f7-86d4-b14358bff3b5"
          },
          {
            "reference": "urn:uuid:b463c840-a1a1-475d-9f93-358decb809a0"
          },
          {
            "reference": "urn:uuid:13a4c083-90cb-416f-95b4-7b630c1f944c"
          },
          {
            "reference": "urn:uuid:be0d5b07-3fbc-41d2-acf0-cb1aa524a9d1"
          },
          {
            "reference": "urn:uuid:7f91be43-bbbc-45ff-8408-7eb5a6ce8ae4"
          },
          {
            "reference": "urn:uuid:675f01ec-ef37-48b8-bde8-eaffb420aded"
          },
          {
            "reference": "urn:uuid:b4c10922-33e0-4db0-b841-fa182678ed3a"
          },
          {
            "reference": "urn:uuid:a3816ad4-0749-4ec2-87dd-ab8eee6e9ae3"
          },
          {
            "reference": "urn:uuid:fa2cf4bd-cbeb-41f0-aa33-b6a59ecb7ab2"
          },
          {
            "reference": "urn:uuid:46781eb5-e0c3-4d89-a445-73ded25ad17c"
          },
          {
            "reference": "urn:uuid:14a2349b-0ab8-4610-ab7e-c845a8445aab"
          },
          {
            "reference": "urn:uuid:89191020-0537-48ed-92eb-4ebe88a68b15"
          },
          {
            "reference": "urn:uuid:ac366a19-ae4d-4c3a-b093-bc685bd2e7df"
          },
          {
            "reference": "urn:uuid:61031158-e544-4b19-8fdb-8fbc96fabfae"
          }
        ],
        "status": "registered",
        "code": {
          "coding": [
            {
              "code": "11502-2",
              "system": "http://loinc.org",
              "display": "Laboratory report"
            }
          ]
        },
        "subject": {
          "reference": "urn:uuid:7576a1ea-9efe-4fbc-8c0e-811c5c331532",
          "display": "Gioele Fabbri"
        }
      }
    },
    {
      "fullUrl": "urn:uuid:7576a1ea-9efe-4fbc-8c0e-811c5c331532",
      "resource": {
        "resourceType": "Patient",
        "id": "7576a1ea-9efe-4fbc-8c0e-811c5c331532",
        "meta": {
          "security": [
            {
              "system": "http://terminology.hl7.org/CodeSystem/v3-ActReason",
              "code": "HTEST"
            },
            {
              "system": "http://terminology.hl7.org/CodeSystem/v3-ActReason",
              "code": "TRAIN"
            }
          ],
          "tag": [
            {
              "system": "https://synderai.net/fhir/CodeSystem/tags",
              "code": "synthetic",
              "display": "SYNDERAI Synthetic data"
            }
          ],
          "profile": [
            "http://hl7.eu/fhir/base/StructureDefinition/patient-eu-core"
          ]
        },
        "identifier": [
          {
            "type": {
              "coding": [
                {
                  "code": "PT",
                  "system": "http://terminology.hl7.org/CodeSystem/v2-0203"
                }
              ]
            },
            "system": "http://ec.europa.eu/identifier/eci",
            "value": "3631-767680-1"
          },
          {
            "type": {
              "coding": [
                {
                  "code": "MR",
                  "system": "http://terminology.hl7.org/CodeSystem/v2-0203"
                }
              ]
            },
            "system": "http://local.setting.eu/identifier",
            "value": "0a14935e-e0f7-2e1e-46fa-42b10e75d1f9"
          }
        ],
        "name": [
          {
            "family": "Fabbri"
          },
          {
            "given": [
              "Gioele"
            ]
          },
          {
            "text": "Gioele Fabbri"
          }
        ],
        "address": [
          {
            "line": [
              "Canale Armani, 25"
            ],
            "use": "home",
            "type": "physical",
            "postalCode": "23887",
            "city": "Revislate",
            "country": "Italy"
          }
        ],
        "telecom": [
          {
            "system": "phone",
            "value": "+39 0423197768"
          }
        ],
        "extension": [
          {
            "url": "http://hl7.org/fhir/StructureDefinition/patient-nationality",
            "valueCodeableConcept": {
              "coding": [
                {
                  "code": "IT",
                  "system": "http://hl7.org/fhir/ValueSet/country"
                }
              ]
            }
          }
        ],
        "text": {
          "status": "generated",
          "div": "<div xmlns=\"http://www.w3.org/1999/xhtml\"><table class=\"hl7__ips\"><tr><td>Gioele Fabbri</td><td>male</td><td>12-Sep-1972</td></tr></table></div>"
        },
        "gender": "male",
        "birthDate": "1972-09-12"
      }
    },
    {
      "fullUrl": "urn:uuid:4b1725c1-6604-4dcb-aa16-17685c6dfbcc",
      "resource": {
        "resourceType": "ServiceRequest",
        "id": "4b1725c1-6604-4dcb-aa16-17685c6dfbcc",
        "meta": {
          "profile": [
            "http://hl7.eu/fhir/laboratory/StructureDefinition/ServiceRequest-eu-lab"
          ]
        },
        "identifier": [
          {
            "system": "http://example.org",
            "value": "67a76379-a4a7-440c-b1ae-811a954dd0fd"
          }
        ],
        "specimen": [
          {
            "reference": "urn:uuid:0654615e-aeae-48e8-99a6-e34bc064fcf8"
          },
          {
            "reference": "urn:uuid:6e215454-a449-4fff-9ad6-dc5911c1c768"
          },
          {
            "reference": "urn:uuid:3ecb1a48-e909-45b5-a58c-1a948a75af95"
          }
        ],
        "reasonCode": [
          {
            "coding": [
              {
                "code": "271737000",
                "system": "http://snomed.info/sct",
                "display": "Anemia"
              }
            ]
          },
          {
            "coding": [
              {
                "code": "15777000",
                "system": "http://snomed.info/sct",
                "display": "Prediabetes"
              }
            ]
          },
          {
            "coding": [
              {
                "code": "713197008",
                "system": "http://snomed.info/sct",
                "display": "Recurrent rectal polyp"
              }
            ]
          },
          {
            "coding": [
              {
                "code": "68496003",
                "system": "http://snomed.info/sct",
                "display": "Polyp of colon"
              }
            ]
          },
          {
            "coding": [
              {
                "code": "55822004",
                "system": "http://snomed.info/sct",
                "display": "Hyperlipidemia"
              }
            ]
          },
          {
            "coding": [
              {
                "code": "124171000119105",
                "system": "http://snomed.info/sct",
                "display": "Chronic intractable migraine without aura"
              }
            ]
          }
        ],
        "status": "active",
        "intent": "order",
        "code": {
          "coding": [
            {
              "code": "108252007",
              "system": "http://snomed.info/sct",
              "display": "Laboratory procedure"
            }
          ]
        },
        "subject": {
          "reference": "urn:uuid:7576a1ea-9efe-4fbc-8c0e-811c5c331532",
          "display": "Gioele Fabbri"
        },
        "requester": {
          "reference": "urn:uuid:4d78aefa-23e6-4b22-ad70-ca858f917460"
        }
      }
    },
    {
      "fullUrl": "urn:uuid:4d78aefa-23e6-4b22-ad70-ca858f917460",
      "resource": {
        "resourceType": "PractitionerRole",
        "id": "4d78aefa-23e6-4b22-ad70-ca858f917460",
        "meta": {
          "profile": [
            "http://hl7.eu/fhir/base/StructureDefinition/practitionerRole-eu"
          ]
        },
        "text": {
          "status": "generated",
          "div": "<div xmlns=\"http://www.w3.org/1999/xhtml\">Provider Role Id: 4d78aefa-23e6-4b22-ad70-ca858f917460</div>"
        },
        "organization": {
          "reference": "urn:uuid:b69e652e-6510-4e87-9e6e-7068c7c8e611"
        }
      }
    },
    {
      "fullUrl": "urn:uuid:b69e652e-6510-4e87-9e6e-7068c7c8e611",
      "resource": {
        "resourceType": "Organization",
        "id": "b69e652e-6510-4e87-9e6e-7068c7c8e611",
        "meta": {
          "profile": [
            "http://hl7.eu/fhir/base/StructureDefinition/organization-eu"
          ]
        },
        "identifier": [
          {
            "assigner": {
              "display": "HL7 Europe"
            },
            "system": "urn:oid:2.16.840.1.113883.2.51.999",
            "value": "ebb77c12-6d88-46ef-9c2c-24d438572b6f"
          }
        ],
        "address": [
          {
            "line": [
              "Piazza Ospedale 3"
            ],
            "city": "Calcinate",
            "postalCode": "24050",
            "country": "Italy"
          }
        ],
        "text": {
          "status": "generated",
          "div": "<div xmlns=\"http://www.w3.org/1999/xhtml\">Provider Organization: Ospedale di Calcinate &quot;F.M. Passi&quot;</div>"
        },
        "name": "Ospedale di Calcinate &quot;F.M. Passi&quot;"
      }
    },
    {
      "fullUrl": "urn:uuid:0654615e-aeae-48e8-99a6-e34bc064fcf8",
      "resource": {
        "resourceType": "Specimen",
        "id": "0654615e-aeae-48e8-99a6-e34bc064fcf8",
        "meta": {
          "profile": [
            "http://hl7.eu/fhir/laboratory/StructureDefinition/Specimen-eu-lab"
          ]
        },
        "collection": {
          "collectedDateTime": "2021-06-11"
        },
        "text": {
          "status": "generated",
          "div": "<div xmlns=\"http://www.w3.org/1999/xhtml\"><table class=\"hl7__eu__lab__report\"><tr><th>Specimen</th><th>Collection Date</th></tr><tr><td>Whole blood specimen (specimen)</td><td><span class=\"nb\">11-Jun-2021</span></td></tr></table></div>"
        },
        "type": {
          "coding": [
            {
              "code": "258580003",
              "system": "http://snomed.info/sct",
              "display": "Whole blood specimen (specimen)"
            }
          ]
        }
      }
    },
    {
      "fullUrl": "urn:uuid:6e215454-a449-4fff-9ad6-dc5911c1c768",
      "resource": {
        "resourceType": "Specimen",
        "id": "6e215454-a449-4fff-9ad6-dc5911c1c768",
        "meta": {
          "profile": [
            "http://hl7.eu/fhir/laboratory/StructureDefinition/Specimen-eu-lab"
          ]
        },
        "collection": {
          "collectedDateTime": "2021-06-11"
        },
        "text": {
          "status": "generated",
          "div": "<div xmlns=\"http://www.w3.org/1999/xhtml\"><table class=\"hl7__eu__lab__report\"><tr><th>Specimen</th><th>Collection Date</th></tr><tr><td>Acellular blood (serum or plasma) specimen</td><td><span class=\"nb\">11-Jun-2021</span></td></tr></table></div>"
        },
        "type": {
          "coding": [
            {
              "code": "122592007",
              "system": "http://snomed.info/sct",
              "display": "Acellular blood (serum or plasma) specimen"
            }
          ]
        }
      }
    },
    {
      "fullUrl": "urn:uuid:3ecb1a48-e909-45b5-a58c-1a948a75af95",
      "resource": {
        "resourceType": "Specimen",
        "id": "3ecb1a48-e909-45b5-a58c-1a948a75af95",
        "meta": {
          "profile": [
            "http://hl7.eu/fhir/laboratory/StructureDefinition/Specimen-eu-lab"
          ]
        },
        "collection": {
          "collectedDateTime": "2021-06-11"
        },
        "text": {
          "status": "generated",
          "div": "<div xmlns=\"http://www.w3.org/1999/xhtml\"><table class=\"hl7__eu__lab__report\"><tr><th>Specimen</th><th>Collection Date</th></tr><tr><td>Serum specimen</td><td><span class=\"nb\">11-Jun-2021</span></td></tr></table></div>"
        },
        "type": {
          "coding": [
            {
              "code": "119364003",
              "system": "http://snomed.info/sct",
              "display": "Serum specimen"
            }
          ]
        }
      }
    },
    {
      "fullUrl": "urn:uuid:1679e0e3-2455-4231-8347-2eb4f817a131",
      "resource": {
        "resourceType": "Observation",
        "id": "1679e0e3-2455-4231-8347-2eb4f817a131",
        "meta": {
          "profile": [
            "http://hl7.eu/fhir/laboratory/StructureDefinition/Observation-resultslab-eu-lab"
          ]
        },
        "performer": [
          {
            "display": "The Central European Lab"
          }
        ],
        "category": [
          {
            "coding": [
              {
                "system": "http://terminology.hl7.org/CodeSystem/observation-category",
                "code": "laboratory"
              }
            ]
          }
        ],
        "code": {
          "coding": [
            {
              "code": "2339-0",
              "system": "http://loinc.org",
              "display": "Glucose [Mass/volume] in Blood"
            }
          ],
          "text": "Glucose [Mass/volume] in Blood"
        },
        "valueQuantity": {
          "system": "http://unitsofmeasure.org",
          "value": 79.7,
          "unit": "mg/dL",
          "code": "mg/dL"
        },
        "referenceRange": [
          {
            "low": {
              "value": 70,
              "code": "mg/dL",
              "system": "http://unitsofmeasure.org"
            }
          },
          {
            "high": {
              "value": 99,
              "code": "mg/dL",
              "system": "http://unitsofmeasure.org"
            }
          }
        ],
        "text": {
          "status": "generated",
          "div": "<div xmlns=\"http://www.w3.org/1999/xhtml\"><table class=\"hl7__eu__lab__report\"><tr><th>Test</th><th>11-Jun-2021</th><th>Reference&#xA0;Range</th><th>Unit</th></tr><tr><td>Glucose [Mass/volume] in Blood</td><td>79.7</td><td>70 - 99</td><td></td><td>mg/dL</td></tr></table></div>"
        },
        "status": "final",
        "subject": {
          "reference": "urn:uuid:7576a1ea-9efe-4fbc-8c0e-811c5c331532",
          "display": "Gioele Fabbri"
        },
        "effectiveDateTime": "2021-06-11T15:46:20Z",
        "specimen": {
          "reference": "urn:uuid:0654615e-aeae-48e8-99a6-e34bc064fcf8"
        }
      }
    },
    {
      "fullUrl": "urn:uuid:09488df3-a6a0-4686-99af-fe990c1b6e81",
      "resource": {
        "resourceType": "Observation",
        "id": "09488df3-a6a0-4686-99af-fe990c1b6e81",
        "meta": {
          "profile": [
            "http://hl7.eu/fhir/laboratory/StructureDefinition/Observation-resultslab-eu-lab"
          ]
        },
        "performer": [
          {
            "display": "The Central European Lab"
          }
        ],
        "category": [
          {
            "coding": [
              {
                "system": "http://terminology.hl7.org/CodeSystem/observation-category",
                "code": "laboratory"
              }
            ]
          }
        ],
        "code": {
          "coding": [
            {
              "code": "6299-2",
              "system": "http://loinc.org",
              "display": "Urea nitrogen [Mass/volume] in Blood"
            }
          ],
          "text": "Urea nitrogen [Mass/volume] in Blood"
        },
        "valueQuantity": {
          "system": "http://unitsofmeasure.org",
          "value": 11.2,
          "unit": "mg/dL",
          "code": "mg/dL"
        },
        "referenceRange": [
          {
            "low": {
              "value": 7,
              "code": "mg/dL",
              "system": "http://unitsofmeasure.org"
            }
          },
          {
            "high": {
              "value": 20,
              "code": "mg/dL",
              "system": "http://unitsofmeasure.org"
            }
          }
        ],
        "text": {
          "status": "generated",
          "div": "<div xmlns=\"http://www.w3.org/1999/xhtml\"><table class=\"hl7__eu__lab__report\"><tr><th>Test</th><th>11-Jun-2021</th><th>Reference&#xA0;Range</th><th>Unit</th></tr><tr><td>Urea nitrogen [Mass/volume] in Blood</td><td>11.2</td><td>7 - 20</td><td></td><td>mg/dL</td></tr></table></div>"
        },
        "status": "final",
        "subject": {
          "reference": "urn:uuid:7576a1ea-9efe-4fbc-8c0e-811c5c331532",
          "display": "Gioele Fabbri"
        },
        "effectiveDateTime": "2021-06-11T15:46:20Z",
        "specimen": {
          "reference": "urn:uuid:0654615e-aeae-48e8-99a6-e34bc064fcf8"
        }
      }
    },
    {
      "fullUrl": "urn:uuid:e15c2510-4d94-4590-83fc-e4622874ba19",
      "resource": {
        "resourceType": "Observation",
        "id": "e15c2510-4d94-4590-83fc-e4622874ba19",
        "meta": {
          "profile": [
            "http://hl7.eu/fhir/laboratory/StructureDefinition/Observation-resultslab-eu-lab"
          ]
        },
        "performer": [
          {
            "display": "The Central European Lab"
          }
        ],
        "category": [
          {
            "coding": [
              {
                "system": "http://terminology.hl7.org/CodeSystem/observation-category",
                "code": "laboratory"
              }
            ]
          }
        ],
        "code": {
          "coding": [
            {
              "code": "38483-4",
              "system": "http://loinc.org",
              "display": "Creatinine [Mass/volume] in Blood"
            }
          ],
          "text": "Creatinine [Mass/volume] in Blood"
        },
        "valueQuantity": {
          "system": "http://unitsofmeasure.org",
          "value": 2.6,
          "unit": "mg/dL",
          "code": "mg/dL"
        },
        "referenceRange": [
          {
            "low": {
              "value": 0.7,
              "code": "mg/dL",
              "system": "http://unitsofmeasure.org"
            }
          },
          {
            "high": {
              "value": 1.3,
              "code": "mg/dL",
              "system": "http://unitsofmeasure.org"
            }
          }
        ],
        "interpretation": [
          {
            "coding": [
              {
                "code": "H",
                "system": "http://terminology.hl7.org/CodeSystem/v3-ObservationInterpretation",
                "display": "High"
              }
            ]
          }
        ],
        "text": {
          "status": "generated",
          "div": "<div xmlns=\"http://www.w3.org/1999/xhtml\"><table class=\"hl7__eu__lab__report\"><tr><th>Test</th><th>11-Jun-2021</th><th>Reference&#xA0;Range</th><th>Unit</th></tr><tr><td>Creatinine [Mass/volume] in Blood</td><td>2.6</td><td>0.7 - 1.3</td><td>H</td><td>mg/dL</td></tr></table></div>"
        },
        "status": "final",
        "subject": {
          "reference": "urn:uuid:7576a1ea-9efe-4fbc-8c0e-811c5c331532",
          "display": "Gioele Fabbri"
        },
        "effectiveDateTime": "2021-06-11T15:46:20Z",
        "specimen": {
          "reference": "urn:uuid:0654615e-aeae-48e8-99a6-e34bc064fcf8"
        }
      }
    },
    {
      "fullUrl": "urn:uuid:11666588-6858-4c98-a060-5cec936a6d5c",
      "resource": {
        "resourceType": "Observation",
        "id": "11666588-6858-4c98-a060-5cec936a6d5c",
        "meta": {
          "profile": [
            "http://hl7.eu/fhir/laboratory/StructureDefinition/Observation-resultslab-eu-lab"
          ]
        },
        "performer": [
          {
            "display": "The Central European Lab"
          }
        ],
        "category": [
          {
            "coding": [
              {
                "system": "http://terminology.hl7.org/CodeSystem/observation-category",
                "code": "laboratory"
              }
            ]
          }
        ],
        "code": {
          "coding": [
            {
              "code": "49765-1",
              "system": "http://loinc.org",
              "display": "Calcium [Mass/volume] in Blood"
            }
          ],
          "text": "Calcium [Mass/volume] in Blood"
        },
        "valueQuantity": {
          "system": "http://unitsofmeasure.org",
          "value": 8.8,
          "unit": "mg/dL",
          "code": "mg/dL"
        },
        "referenceRange": [
          {
            "low": {
              "value": 8.5,
              "code": "mg/dL",
              "system": "http://unitsofmeasure.org"
            }
          },
          {
            "high": {
              "value": 10.5,
              "code": "mg/dL",
              "system": "http://unitsofmeasure.org"
            }
          }
        ],
        "text": {
          "status": "generated",
          "div": "<div xmlns=\"http://www.w3.org/1999/xhtml\"><table class=\"hl7__eu__lab__report\"><tr><th>Test</th><th>11-Jun-2021</th><th>Reference&#xA0;Range</th><th>Unit</th></tr><tr><td>Calcium [Mass/volume] in Blood</td><td>8.8</td><td>8.5 - 10.5</td><td></td><td>mg/dL</td></tr></table></div>"
        },
        "status": "final",
        "subject": {
          "reference": "urn:uuid:7576a1ea-9efe-4fbc-8c0e-811c5c331532",
          "display": "Gioele Fabbri"
        },
        "effectiveDateTime": "2021-06-11T15:46:20Z",
        "specimen": {
          "reference": "urn:uuid:0654615e-aeae-48e8-99a6-e34bc064fcf8"
        }
      }
    },
    {
      "fullUrl": "urn:uuid:31957c5d-0614-4336-8ae2-e131c9f16625",
      "resource": {
        "resourceType": "Observation",
        "id": "31957c5d-0614-4336-8ae2-e131c9f16625",
        "meta": {
          "profile": [
            "http://hl7.eu/fhir/laboratory/StructureDefinition/Observation-resultslab-eu-lab"
          ]
        },
        "performer": [
          {
            "display": "The Central European Lab"
          }
        ],
        "category": [
          {
            "coding": [
              {
                "system": "http://terminology.hl7.org/CodeSystem/observation-category",
                "code": "laboratory"
              }
            ]
          }
        ],
        "code": {
          "coding": [
            {
              "code": "2947-0",
              "system": "http://loinc.org",
              "display": "Sodium [Moles/volume] in Blood"
            }
          ],
          "text": "Sodium [Moles/volume] in Blood"
        },
        "valueQuantity": {
          "system": "http://unitsofmeasure.org",
          "value": 139.3,
          "unit": "mmol/L",
          "code": "mmol/L"
        },
        "referenceRange": [
          {
            "low": {
              "value": 135,
              "code": "mmol/L",
              "system": "http://unitsofmeasure.org"
            }
          },
          {
            "high": {
              "value": 145,
              "code": "mmol/L",
              "system": "http://unitsofmeasure.org"
            }
          }
        ],
        "text": {
          "status": "generated",
          "div": "<div xmlns=\"http://www.w3.org/1999/xhtml\"><table class=\"hl7__eu__lab__report\"><tr><th>Test</th><th>11-Jun-2021</th><th>Reference&#xA0;Range</th><th>Unit</th></tr><tr><td>Sodium [Moles/volume] in Blood</td><td>139.3</td><td>135 - 145</td><td></td><td>mmol/L</td></tr></table></div>"
        },
        "status": "final",
        "subject": {
          "reference": "urn:uuid:7576a1ea-9efe-4fbc-8c0e-811c5c331532",
          "display": "Gioele Fabbri"
        },
        "effectiveDateTime": "2021-06-11T15:46:20Z",
        "specimen": {
          "reference": "urn:uuid:0654615e-aeae-48e8-99a6-e34bc064fcf8"
        }
      }
    },
    {
      "fullUrl": "urn:uuid:0b3dd42d-cb38-49f7-86d4-b14358bff3b5",
      "resource": {
        "resourceType": "Observation",
        "id": "0b3dd42d-cb38-49f7-86d4-b14358bff3b5",
        "meta": {
          "profile": [
            "http://hl7.eu/fhir/laboratory/StructureDefinition/Observation-resultslab-eu-lab"
          ]
        },
        "performer": [
          {
            "display": "The Central European Lab"
          }
        ],
        "category": [
          {
            "coding": [
              {
                "system": "http://terminology.hl7.org/CodeSystem/observation-category",
                "code": "laboratory"
              }
            ]
          }
        ],
        "code": {
          "coding": [
            {
              "code": "6298-4",
              "system": "http://loinc.org",
              "display": "Potassium [Moles/volume] in Blood"
            }
          ],
          "text": "Potassium [Moles/volume] in Blood"
        },
        "valueQuantity": {
          "system": "http://unitsofmeasure.org",
          "value": 4.8,
          "unit": "mmol/L",
          "code": "mmol/L"
        },
        "referenceRange": [
          {
            "low": {
              "value": 3.5,
              "code": "mmol/L",
              "system": "http://unitsofmeasure.org"
            }
          },
          {
            "high": {
              "value": 5,
              "code": "mmol/L",
              "system": "http://unitsofmeasure.org"
            }
          }
        ],
        "text": {
          "status": "generated",
          "div": "<div xmlns=\"http://www.w3.org/1999/xhtml\"><table class=\"hl7__eu__lab__report\"><tr><th>Test</th><th>11-Jun-2021</th><th>Reference&#xA0;Range</th><th>Unit</th></tr><tr><td>Potassium [Moles/volume] in Blood</td><td>4.8</td><td>3.5 - 5</td><td></td><td>mmol/L</td></tr></table></div>"
        },
        "status": "final",
        "subject": {
          "reference": "urn:uuid:7576a1ea-9efe-4fbc-8c0e-811c5c331532",
          "display": "Gioele Fabbri"
        },
        "effectiveDateTime": "2021-06-11T15:46:20Z",
        "specimen": {
          "reference": "urn:uuid:0654615e-aeae-48e8-99a6-e34bc064fcf8"
        }
      }
    },
    {
      "fullUrl": "urn:uuid:b463c840-a1a1-475d-9f93-358decb809a0",
      "resource": {
        "resourceType": "Observation",
        "id": "b463c840-a1a1-475d-9f93-358decb809a0",
        "meta": {
          "profile": [
            "http://hl7.eu/fhir/laboratory/StructureDefinition/Observation-resultslab-eu-lab"
          ]
        },
        "performer": [
          {
            "display": "The Central European Lab"
          }
        ],
        "category": [
          {
            "coding": [
              {
                "system": "http://terminology.hl7.org/CodeSystem/observation-category",
                "code": "laboratory"
              }
            ]
          }
        ],
        "code": {
          "coding": [
            {
              "code": "2069-3",
              "system": "http://loinc.org",
              "display": "Chloride [Moles/volume] in Blood"
            }
          ],
          "text": "Chloride [Moles/volume] in Blood"
        },
        "valueQuantity": {
          "system": "http://unitsofmeasure.org",
          "value": 103.2,
          "unit": "mmol/L",
          "code": "mmol/L"
        },
        "referenceRange": [
          {
            "low": {
              "value": 98,
              "code": "mmol/L",
              "system": "http://unitsofmeasure.org"
            }
          },
          {
            "high": {
              "value": 107,
              "code": "mmol/L",
              "system": "http://unitsofmeasure.org"
            }
          }
        ],
        "text": {
          "status": "generated",
          "div": "<div xmlns=\"http://www.w3.org/1999/xhtml\"><table class=\"hl7__eu__lab__report\"><tr><th>Test</th><th>11-Jun-2021</th><th>Reference&#xA0;Range</th><th>Unit</th></tr><tr><td>Chloride [Moles/volume] in Blood</td><td>103.2</td><td>98 - 107</td><td></td><td>mmol/L</td></tr></table></div>"
        },
        "status": "final",
        "subject": {
          "reference": "urn:uuid:7576a1ea-9efe-4fbc-8c0e-811c5c331532",
          "display": "Gioele Fabbri"
        },
        "effectiveDateTime": "2021-06-11T15:46:20Z",
        "specimen": {
          "reference": "urn:uuid:0654615e-aeae-48e8-99a6-e34bc064fcf8"
        }
      }
    },
    {
      "fullUrl": "urn:uuid:13a4c083-90cb-416f-95b4-7b630c1f944c",
      "resource": {
        "resourceType": "Observation",
        "id": "13a4c083-90cb-416f-95b4-7b630c1f944c",
        "meta": {
          "profile": [
            "http://hl7.eu/fhir/laboratory/StructureDefinition/Observation-resultslab-eu-lab"
          ]
        },
        "performer": [
          {
            "display": "The Central European Lab"
          }
        ],
        "category": [
          {
            "coding": [
              {
                "system": "http://terminology.hl7.org/CodeSystem/observation-category",
                "code": "laboratory"
              }
            ]
          }
        ],
        "code": {
          "coding": [
            {
              "code": "20565-8",
              "system": "http://loinc.org",
              "display": "Carbon dioxide, total [Moles/volume] in Blood"
            }
          ],
          "text": "Carbon dioxide, total [Moles/volume] in Blood"
        },
        "valueQuantity": {
          "system": "http://unitsofmeasure.org",
          "value": 22,
          "unit": "mmol/L",
          "code": "mmol/L"
        },
        "referenceRange": [
          {
            "low": {
              "value": 24,
              "code": "mmol/L",
              "system": "http://unitsofmeasure.org"
            }
          },
          {
            "high": {
              "value": 29,
              "code": "mmol/L",
              "system": "http://unitsofmeasure.org"
            }
          }
        ],
        "interpretation": [
          {
            "coding": [
              {
                "code": "L",
                "system": "http://terminology.hl7.org/CodeSystem/v3-ObservationInterpretation",
                "display": "Low"
              }
            ]
          }
        ],
        "text": {
          "status": "generated",
          "div": "<div xmlns=\"http://www.w3.org/1999/xhtml\"><table class=\"hl7__eu__lab__report\"><tr><th>Test</th><th>11-Jun-2021</th><th>Reference&#xA0;Range</th><th>Unit</th></tr><tr><td>Carbon dioxide, total [Moles/volume] in Blood</td><td>22.0</td><td>24 - 29</td><td>L</td><td>mmol/L</td></tr></table></div>"
        },
        "status": "final",
        "subject": {
          "reference": "urn:uuid:7576a1ea-9efe-4fbc-8c0e-811c5c331532",
          "display": "Gioele Fabbri"
        },
        "effectiveDateTime": "2021-06-11T15:46:20Z",
        "specimen": {
          "reference": "urn:uuid:0654615e-aeae-48e8-99a6-e34bc064fcf8"
        }
      }
    },
    {
      "fullUrl": "urn:uuid:be0d5b07-3fbc-41d2-acf0-cb1aa524a9d1",
      "resource": {
        "resourceType": "Observation",
        "id": "be0d5b07-3fbc-41d2-acf0-cb1aa524a9d1",
        "meta": {
          "profile": [
            "http://hl7.eu/fhir/laboratory/StructureDefinition/Observation-resultslab-eu-lab"
          ]
        },
        "performer": [
          {
            "display": "The Central European Lab"
          }
        ],
        "category": [
          {
            "coding": [
              {
                "system": "http://terminology.hl7.org/CodeSystem/observation-category",
                "code": "laboratory"
              }
            ]
          }
        ],
        "code": {
          "coding": [
            {
              "code": "2885-2",
              "system": "http://loinc.org",
              "display": "Protein [Mass/volume] in Serum or Plasma"
            }
          ],
          "text": "Protein [Mass/volume] in Serum or Plasma"
        },
        "valueQuantity": {
          "system": "http://unitsofmeasure.org",
          "value": 6.6,
          "unit": "g/dL",
          "code": "g/dL"
        },
        "referenceRange": [
          {
            "low": {
              "value": 6.6,
              "code": "g/dL",
              "system": "http://unitsofmeasure.org"
            }
          },
          {
            "high": {
              "value": 8.3,
              "code": "g/dL",
              "system": "http://unitsofmeasure.org"
            }
          }
        ],
        "text": {
          "status": "generated",
          "div": "<div xmlns=\"http://www.w3.org/1999/xhtml\"><table class=\"hl7__eu__lab__report\"><tr><th>Test</th><th>11-Jun-2021</th><th>Reference&#xA0;Range</th><th>Unit</th></tr><tr><td>Protein [Mass/volume] in Serum or Plasma</td><td>6.6</td><td>6.6 - 8.3</td><td></td><td>g/dL</td></tr></table></div>"
        },
        "status": "final",
        "subject": {
          "reference": "urn:uuid:7576a1ea-9efe-4fbc-8c0e-811c5c331532",
          "display": "Gioele Fabbri"
        },
        "effectiveDateTime": "2021-06-11T15:46:20Z",
        "specimen": {
          "reference": "urn:uuid:6e215454-a449-4fff-9ad6-dc5911c1c768"
        }
      }
    },
    {
      "fullUrl": "urn:uuid:7f91be43-bbbc-45ff-8408-7eb5a6ce8ae4",
      "resource": {
        "resourceType": "Observation",
        "id": "7f91be43-bbbc-45ff-8408-7eb5a6ce8ae4",
        "meta": {
          "profile": [
            "http://hl7.eu/fhir/laboratory/StructureDefinition/Observation-resultslab-eu-lab"
          ]
        },
        "performer": [
          {
            "display": "The Central European Lab"
          }
        ],
        "category": [
          {
            "coding": [
              {
                "system": "http://terminology.hl7.org/CodeSystem/observation-category",
                "code": "laboratory"
              }
            ]
          }
        ],
        "code": {
          "coding": [
            {
              "code": "1751-7",
              "system": "http://loinc.org",
              "display": "Albumin [Mass/volume] in Serum or Plasma"
            }
          ],
          "text": "Albumin [Mass/volume] in Serum or Plasma"
        },
        "valueQuantity": {
          "system": "http://unitsofmeasure.org",
          "value": 5.2,
          "unit": "g/dL",
          "code": "g/dL"
        },
        "referenceRange": [
          {
            "low": {
              "value": 3.5,
              "code": "g/dL",
              "system": "http://unitsofmeasure.org"
            }
          },
          {
            "high": {
              "value": 5.5,
              "code": "g/dL",
              "system": "http://unitsofmeasure.org"
            }
          }
        ],
        "text": {
          "status": "generated",
          "div": "<div xmlns=\"http://www.w3.org/1999/xhtml\"><table class=\"hl7__eu__lab__report\"><tr><th>Test</th><th>11-Jun-2021</th><th>Reference&#xA0;Range</th><th>Unit</th></tr><tr><td>Albumin [Mass/volume] in Serum or Plasma</td><td>5.2</td><td>3.5 - 5.5</td><td></td><td>g/dL</td></tr></table></div>"
        },
        "status": "final",
        "subject": {
          "reference": "urn:uuid:7576a1ea-9efe-4fbc-8c0e-811c5c331532",
          "display": "Gioele Fabbri"
        },
        "effectiveDateTime": "2021-06-11T15:46:20Z",
        "specimen": {
          "reference": "urn:uuid:6e215454-a449-4fff-9ad6-dc5911c1c768"
        }
      }
    },
    {
      "fullUrl": "urn:uuid:675f01ec-ef37-48b8-bde8-eaffb420aded",
      "resource": {
        "resourceType": "Observation",
        "id": "675f01ec-ef37-48b8-bde8-eaffb420aded",
        "meta": {
          "profile": [
            "http://hl7.eu/fhir/laboratory/StructureDefinition/Observation-resultslab-eu-lab"
          ]
        },
        "performer": [
          {
            "display": "The Central European Lab"
          }
        ],
        "category": [
          {
            "coding": [
              {
                "system": "http://terminology.hl7.org/CodeSystem/observation-category",
                "code": "laboratory"
              }
            ]
          }
        ],
        "code": {
          "coding": [
            {
              "code": "10834-0",
              "system": "http://loinc.org",
              "display": "Globulin [Mass/volume] in Serum by calculation"
            }
          ],
          "text": "Globulin [Mass/volume] in Serum by calculation"
        },
        "valueQuantity": {
          "system": "http://unitsofmeasure.org",
          "value": 3.2,
          "unit": "g/L",
          "code": "g/L"
        },
        "referenceRange": [
          {
            "low": {
              "value": 2,
              "code": "g/L",
              "system": "http://unitsofmeasure.org"
            }
          },
          {
            "high": {
              "value": 3.5,
              "code": "g/L",
              "system": "http://unitsofmeasure.org"
            }
          }
        ],
        "text": {
          "status": "generated",
          "div": "<div xmlns=\"http://www.w3.org/1999/xhtml\"><table class=\"hl7__eu__lab__report\"><tr><th>Test</th><th>11-Jun-2021</th><th>Reference&#xA0;Range</th><th>Unit</th></tr><tr><td>Globulin [Mass/volume] in Serum by calculation</td><td>3.2</td><td>2 - 3.5</td><td></td><td>g/L</td></tr></table></div>"
        },
        "status": "final",
        "subject": {
          "reference": "urn:uuid:7576a1ea-9efe-4fbc-8c0e-811c5c331532",
          "display": "Gioele Fabbri"
        },
        "effectiveDateTime": "2021-06-11T15:46:20Z",
        "specimen": {
          "reference": "urn:uuid:3ecb1a48-e909-45b5-a58c-1a948a75af95"
        }
      }
    },
    {
      "fullUrl": "urn:uuid:b4c10922-33e0-4db0-b841-fa182678ed3a",
      "resource": {
        "resourceType": "Observation",
        "id": "b4c10922-33e0-4db0-b841-fa182678ed3a",
        "meta": {
          "profile": [
            "http://hl7.eu/fhir/laboratory/StructureDefinition/Observation-resultslab-eu-lab"
          ]
        },
        "performer": [
          {
            "display": "The Central European Lab"
          }
        ],
        "category": [
          {
            "coding": [
              {
                "system": "http://terminology.hl7.org/CodeSystem/observation-category",
                "code": "laboratory"
              }
            ]
          }
        ],
        "code": {
          "coding": [
            {
              "code": "1975-2",
              "system": "http://loinc.org",
              "display": "Bilirubin.total [Mass/volume] in Serum or Plasma"
            }
          ],
          "text": "Bilirubin.total [Mass/volume] in Serum or Plasma"
        },
        "valueQuantity": {
          "system": "http://unitsofmeasure.org",
          "value": 0.6,
          "unit": "mg/dL",
          "code": "mg/dL"
        },
        "referenceRange": [
          {
            "low": {
              "value": 0.3,
              "code": "mg/dL",
              "system": "http://unitsofmeasure.org"
            }
          },
          {
            "high": {
              "value": 1.2,
              "code": "mg/dL",
              "system": "http://unitsofmeasure.org"
            }
          }
        ],
        "text": {
          "status": "generated",
          "div": "<div xmlns=\"http://www.w3.org/1999/xhtml\"><table class=\"hl7__eu__lab__report\"><tr><th>Test</th><th>11-Jun-2021</th><th>Reference&#xA0;Range</th><th>Unit</th></tr><tr><td>Bilirubin.total [Mass/volume] in Serum or Plasma</td><td>0.6</td><td>0.3 - 1.2</td><td></td><td>mg/dL</td></tr></table></div>"
        },
        "status": "final",
        "subject": {
          "reference": "urn:uuid:7576a1ea-9efe-4fbc-8c0e-811c5c331532",
          "display": "Gioele Fabbri"
        },
        "effectiveDateTime": "2021-06-11T15:46:20Z",
        "specimen": {
          "reference": "urn:uuid:6e215454-a449-4fff-9ad6-dc5911c1c768"
        }
      }
    },
    {
      "fullUrl": "urn:uuid:a3816ad4-0749-4ec2-87dd-ab8eee6e9ae3",
      "resource": {
        "resourceType": "Observation",
        "id": "a3816ad4-0749-4ec2-87dd-ab8eee6e9ae3",
        "meta": {
          "profile": [
            "http://hl7.eu/fhir/laboratory/StructureDefinition/Observation-resultslab-eu-lab"
          ]
        },
        "performer": [
          {
            "display": "The Central European Lab"
          }
        ],
        "category": [
          {
            "coding": [
              {
                "system": "http://terminology.hl7.org/CodeSystem/observation-category",
                "code": "laboratory"
              }
            ]
          }
        ],
        "code": {
          "coding": [
            {
              "code": "6768-6",
              "system": "http://loinc.org",
              "display": "Alkaline phosphatase [Enzymatic activity/volume] in Serum or Plasma"
            }
          ],
          "text": "Alkaline phosphatase [Enzymatic activity/volume] in Serum or Plasma"
        },
        "valueQuantity": {
          "system": "http://unitsofmeasure.org",
          "value": 132.2,
          "unit": "U/L",
          "code": "U/L"
        },
        "referenceRange": [
          {
            "low": {
              "value": 39,
              "code": "U/L",
              "system": "http://unitsofmeasure.org"
            }
          },
          {
            "high": {
              "value": 136,
              "code": "U/L",
              "system": "http://unitsofmeasure.org"
            }
          }
        ],
        "text": {
          "status": "generated",
          "div": "<div xmlns=\"http://www.w3.org/1999/xhtml\"><table class=\"hl7__eu__lab__report\"><tr><th>Test</th><th>11-Jun-2021</th><th>Reference&#xA0;Range</th><th>Unit</th></tr><tr><td>Alkaline phosphatase [Enzymatic activity/volume] in Serum or Plasma</td><td>132.2</td><td>39 - 136</td><td></td><td>U/L</td></tr></table></div>"
        },
        "status": "final",
        "subject": {
          "reference": "urn:uuid:7576a1ea-9efe-4fbc-8c0e-811c5c331532",
          "display": "Gioele Fabbri"
        },
        "effectiveDateTime": "2021-06-11T15:46:20Z",
        "specimen": {
          "reference": "urn:uuid:6e215454-a449-4fff-9ad6-dc5911c1c768"
        }
      }
    },
    {
      "fullUrl": "urn:uuid:fa2cf4bd-cbeb-41f0-aa33-b6a59ecb7ab2",
      "resource": {
        "resourceType": "Observation",
        "id": "fa2cf4bd-cbeb-41f0-aa33-b6a59ecb7ab2",
        "meta": {
          "profile": [
            "http://hl7.eu/fhir/laboratory/StructureDefinition/Observation-resultslab-eu-lab"
          ]
        },
        "performer": [
          {
            "display": "The Central European Lab"
          }
        ],
        "category": [
          {
            "coding": [
              {
                "system": "http://terminology.hl7.org/CodeSystem/observation-category",
                "code": "laboratory"
              }
            ]
          }
        ],
        "code": {
          "coding": [
            {
              "code": "1742-6",
              "system": "http://loinc.org",
              "display": "Alanine aminotransferase [Enzymatic activity/volume] in Serum or Plasma"
            }
          ],
          "text": "Alanine aminotransferase [Enzymatic activity/volume] in Serum or Plasma"
        },
        "valueQuantity": {
          "system": "http://unitsofmeasure.org",
          "value": 38.3,
          "unit": "U/L",
          "code": "U/L"
        },
        "referenceRange": [
          {
            "low": {
              "value": 7,
              "code": "U/L",
              "system": "http://unitsofmeasure.org"
            }
          },
          {
            "high": {
              "value": 52,
              "code": "U/L",
              "system": "http://unitsofmeasure.org"
            }
          }
        ],
        "text": {
          "status": "generated",
          "div": "<div xmlns=\"http://www.w3.org/1999/xhtml\"><table class=\"hl7__eu__lab__report\"><tr><th>Test</th><th>11-Jun-2021</th><th>Reference&#xA0;Range</th><th>Unit</th></tr><tr><td>Alanine aminotransferase [Enzymatic activity/volume] in Serum or Plasma</td><td>38.3</td><td>7 - 52</td><td></td><td>U/L</td></tr></table></div>"
        },
        "status": "final",
        "subject": {
          "reference": "urn:uuid:7576a1ea-9efe-4fbc-8c0e-811c5c331532",
          "display": "Gioele Fabbri"
        },
        "effectiveDateTime": "2021-06-11T15:46:20Z",
        "specimen": {
          "reference": "urn:uuid:6e215454-a449-4fff-9ad6-dc5911c1c768"
        }
      }
    },
    {
      "fullUrl": "urn:uuid:46781eb5-e0c3-4d89-a445-73ded25ad17c",
      "resource": {
        "resourceType": "Observation",
        "id": "46781eb5-e0c3-4d89-a445-73ded25ad17c",
        "meta": {
          "profile": [
            "http://hl7.eu/fhir/laboratory/StructureDefinition/Observation-resultslab-eu-lab"
          ]
        },
        "performer": [
          {
            "display": "The Central European Lab"
          }
        ],
        "category": [
          {
            "coding": [
              {
                "system": "http://terminology.hl7.org/CodeSystem/observation-category",
                "code": "laboratory"
              }
            ]
          }
        ],
        "code": {
          "coding": [
            {
              "code": "1920-8",
              "system": "http://loinc.org",
              "display": "Aspartate aminotransferase [Enzymatic activity/volume] in Serum or Plasma"
            }
          ],
          "text": "Aspartate aminotransferase [Enzymatic activity/volume] in Serum or Plasma"
        },
        "valueQuantity": {
          "system": "http://unitsofmeasure.org",
          "value": 33.9,
          "unit": "U/L",
          "code": "U/L"
        },
        "referenceRange": [
          {
            "low": {
              "value": 10,
              "code": "U/L",
              "system": "http://unitsofmeasure.org"
            }
          },
          {
            "high": {
              "value": 40,
              "code": "U/L",
              "system": "http://unitsofmeasure.org"
            }
          }
        ],
        "text": {
          "status": "generated",
          "div": "<div xmlns=\"http://www.w3.org/1999/xhtml\"><table class=\"hl7__eu__lab__report\"><tr><th>Test</th><th>11-Jun-2021</th><th>Reference&#xA0;Range</th><th>Unit</th></tr><tr><td>Aspartate aminotransferase [Enzymatic activity/volume] in Serum or Plasma</td><td>33.9</td><td>10 - 40</td><td></td><td>U/L</td></tr></table></div>"
        },
        "status": "final",
        "subject": {
          "reference": "urn:uuid:7576a1ea-9efe-4fbc-8c0e-811c5c331532",
          "display": "Gioele Fabbri"
        },
        "effectiveDateTime": "2021-06-11T15:46:20Z",
        "specimen": {
          "reference": "urn:uuid:6e215454-a449-4fff-9ad6-dc5911c1c768"
        }
      }
    },
    {
      "fullUrl": "urn:uuid:14a2349b-0ab8-4610-ab7e-c845a8445aab",
      "resource": {
        "resourceType": "Observation",
        "id": "14a2349b-0ab8-4610-ab7e-c845a8445aab",
        "meta": {
          "profile": [
            "http://hl7.eu/fhir/laboratory/StructureDefinition/Observation-resultslab-eu-lab"
          ]
        },
        "performer": [
          {
            "display": "The Central European Lab"
          }
        ],
        "category": [
          {
            "coding": [
              {
                "system": "http://terminology.hl7.org/CodeSystem/observation-category",
                "code": "laboratory"
              }
            ]
          }
        ],
        "code": {
          "coding": [
            {
              "code": "2093-3",
              "system": "http://loinc.org",
              "display": "Cholesterol [Mass/volume] in Serum or Plasma"
            }
          ],
          "text": "Cholesterol [Mass/volume] in Serum or Plasma"
        },
        "valueQuantity": {
          "system": "http://unitsofmeasure.org",
          "value": 187,
          "unit": "mg/dL",
          "code": "mg/dL"
        },
        "referenceRange": [
          {
            "low": {
              "value": 125,
              "code": "mg/dL",
              "system": "http://unitsofmeasure.org"
            }
          },
          {
            "high": {
              "value": 200,
              "code": "mg/dL",
              "system": "http://unitsofmeasure.org"
            }
          }
        ],
        "text": {
          "status": "generated",
          "div": "<div xmlns=\"http://www.w3.org/1999/xhtml\"><table class=\"hl7__eu__lab__report\"><tr><th>Test</th><th>11-Jun-2021</th><th>Reference&#xA0;Range</th><th>Unit</th></tr><tr><td>Cholesterol [Mass/volume] in Serum or Plasma</td><td>187.0</td><td>125 - 200</td><td></td><td>mg/dL</td></tr></table></div>"
        },
        "status": "final",
        "subject": {
          "reference": "urn:uuid:7576a1ea-9efe-4fbc-8c0e-811c5c331532",
          "display": "Gioele Fabbri"
        },
        "effectiveDateTime": "2021-06-11T15:46:20Z",
        "specimen": {
          "reference": "urn:uuid:6e215454-a449-4fff-9ad6-dc5911c1c768"
        }
      }
    },
    {
      "fullUrl": "urn:uuid:89191020-0537-48ed-92eb-4ebe88a68b15",
      "resource": {
        "resourceType": "Observation",
        "id": "89191020-0537-48ed-92eb-4ebe88a68b15",
        "meta": {
          "profile": [
            "http://hl7.eu/fhir/laboratory/StructureDefinition/Observation-resultslab-eu-lab"
          ]
        },
        "performer": [
          {
            "display": "The Central European Lab"
          }
        ],
        "category": [
          {
            "coding": [
              {
                "system": "http://terminology.hl7.org/CodeSystem/observation-category",
                "code": "laboratory"
              }
            ]
          }
        ],
        "code": {
          "coding": [
            {
              "code": "2571-8",
              "system": "http://loinc.org",
              "display": "Triglyceride [Mass/volume] in Serum or Plasma"
            }
          ],
          "text": "Triglyceride [Mass/volume] in Serum or Plasma"
        },
        "valueQuantity": {
          "system": "http://unitsofmeasure.org",
          "value": 118.6,
          "unit": "mg/dL",
          "code": "mg/dL"
        },
        "referenceRange": [
          {
            "low": {
              "value": 0,
              "code": "mg/dL",
              "system": "http://unitsofmeasure.org"
            }
          },
          {
            "high": {
              "value": 150,
              "code": "mg/dL",
              "system": "http://unitsofmeasure.org"
            }
          }
        ],
        "text": {
          "status": "generated",
          "div": "<div xmlns=\"http://www.w3.org/1999/xhtml\"><table class=\"hl7__eu__lab__report\"><tr><th>Test</th><th>11-Jun-2021</th><th>Reference&#xA0;Range</th><th>Unit</th></tr><tr><td>Triglyceride [Mass/volume] in Serum or Plasma</td><td>118.6</td><td>0 - 150</td><td></td><td>mg/dL</td></tr></table></div>"
        },
        "status": "final",
        "subject": {
          "reference": "urn:uuid:7576a1ea-9efe-4fbc-8c0e-811c5c331532",
          "display": "Gioele Fabbri"
        },
        "effectiveDateTime": "2021-06-11T15:46:20Z",
        "specimen": {
          "reference": "urn:uuid:6e215454-a449-4fff-9ad6-dc5911c1c768"
        }
      }
    },
    {
      "fullUrl": "urn:uuid:ac366a19-ae4d-4c3a-b093-bc685bd2e7df",
      "resource": {
        "resourceType": "Observation",
        "id": "ac366a19-ae4d-4c3a-b093-bc685bd2e7df",
        "meta": {
          "profile": [
            "http://hl7.eu/fhir/laboratory/StructureDefinition/Observation-resultslab-eu-lab"
          ]
        },
        "performer": [
          {
            "display": "The Central European Lab"
          }
        ],
        "category": [
          {
            "coding": [
              {
                "system": "http://terminology.hl7.org/CodeSystem/observation-category",
                "code": "laboratory"
              }
            ]
          }
        ],
        "code": {
          "coding": [
            {
              "code": "18262-6",
              "system": "http://loinc.org",
              "display": "Cholesterol in LDL [Mass/volume] in Serum or Plasma by Direct assay"
            }
          ],
          "text": "Cholesterol in LDL [Mass/volume] in Serum or Plasma by Direct assay"
        },
        "valueQuantity": {
          "system": "http://unitsofmeasure.org",
          "value": 145.7,
          "unit": "mg/dL",
          "code": "mg/dL"
        },
        "referenceRange": [
          {
            "low": {
              "value": 0,
              "code": "mg/dL",
              "system": "http://unitsofmeasure.org"
            }
          },
          {
            "high": {
              "value": 130,
              "code": "mg/dL",
              "system": "http://unitsofmeasure.org"
            }
          }
        ],
        "interpretation": [
          {
            "coding": [
              {
                "code": "H",
                "system": "http://terminology.hl7.org/CodeSystem/v3-ObservationInterpretation",
                "display": "High"
              }
            ]
          }
        ],
        "text": {
          "status": "generated",
          "div": "<div xmlns=\"http://www.w3.org/1999/xhtml\"><table class=\"hl7__eu__lab__report\"><tr><th>Test</th><th>11-Jun-2021</th><th>Reference&#xA0;Range</th><th>Unit</th></tr><tr><td>Cholesterol in LDL [Mass/volume] in Serum or Plasma by Direct assay</td><td>145.7</td><td>0 - 130</td><td>H</td><td>mg/dL</td></tr></table></div>"
        },
        "status": "final",
        "subject": {
          "reference": "urn:uuid:7576a1ea-9efe-4fbc-8c0e-811c5c331532",
          "display": "Gioele Fabbri"
        },
        "effectiveDateTime": "2021-06-11T15:46:20Z",
        "specimen": {
          "reference": "urn:uuid:6e215454-a449-4fff-9ad6-dc5911c1c768"
        }
      }
    },
    {
      "fullUrl": "urn:uuid:61031158-e544-4b19-8fdb-8fbc96fabfae",
      "resource": {
        "resourceType": "Observation",
        "id": "61031158-e544-4b19-8fdb-8fbc96fabfae",
        "meta": {
          "profile": [
            "http://hl7.eu/fhir/laboratory/StructureDefinition/Observation-resultslab-eu-lab"
          ]
        },
        "performer": [
          {
            "display": "The Central European Lab"
          }
        ],
        "category": [
          {
            "coding": [
              {
                "system": "http://terminology.hl7.org/CodeSystem/observation-category",
                "code": "laboratory"
              }
            ]
          }
        ],
        "code": {
          "coding": [
            {
              "code": "2085-9",
              "system": "http://loinc.org",
              "display": "Cholesterol in HDL [Mass/volume] in Serum or Plasma"
            }
          ],
          "text": "Cholesterol in HDL [Mass/volume] in Serum or Plasma"
        },
        "valueQuantity": {
          "system": "http://unitsofmeasure.org",
          "value": 63,
          "unit": "mg/dL",
          "code": "mg/dL"
        },
        "referenceRange": [
          {
            "low": {
              "value": 40,
              "code": "mg/dL",
              "system": "http://unitsofmeasure.org"
            }
          },
          {
            "high": {
              "value": 100,
              "code": "mg/dL",
              "system": "http://unitsofmeasure.org"
            }
          }
        ],
        "text": {
          "status": "generated",
          "div": "<div xmlns=\"http://www.w3.org/1999/xhtml\"><table class=\"hl7__eu__lab__report\"><tr><th>Test</th><th>11-Jun-2021</th><th>Reference&#xA0;Range</th><th>Unit</th></tr><tr><td>Cholesterol in HDL [Mass/volume] in Serum or Plasma</td><td>63.0</td><td>40 - 100</td><td></td><td>mg/dL</td></tr></table></div>"
        },
        "status": "final",
        "subject": {
          "reference": "urn:uuid:7576a1ea-9efe-4fbc-8c0e-811c5c331532",
          "display": "Gioele Fabbri"
        },
        "effectiveDateTime": "2021-06-11T15:46:20Z",
        "specimen": {
          "reference": "urn:uuid:6e215454-a449-4fff-9ad6-dc5911c1c768"
        }
      }
    },
    {
      "fullUrl": "urn:uuid:acef3a2b-5b2c-49c7-9031-067da8604619",
      "resource": {
        "resourceType": "Device",
        "id": "acef3a2b-5b2c-49c7-9031-067da8604619",
        "deviceName": [
          {
            "name": "SYNDERAI Synthetic Generator",
            "type": "manufacturer-name"
          }
        ],
        "version": [
          {
            "value": "5.0"
          }
        ],
        "text": {
          "status": "generated",
          "div": "<div xmlns=\"http://www.w3.org/1999/xhtml\">SYNDERAI Synthetic Generator v5.0</div>"
        },
        "status": "active\"",
        "distinctIdentifier": "synderai-generator-50",
        "manufacturer": "SYNDERAI Project"
      }
    },
    {
      "fullUrl": "urn:uuid:b83d4396-f694-4067-94d8-a0480c645708",
      "resource": {
        "resourceType": "Provenance",
        "id": "b83d4396-f694-4067-94d8-a0480c645708",
        "target": [
          {
            "reference": "Patient/7576a1ea-9efe-4fbc-8c0e-811c5c331532"
          },
          {
            "reference": "Bundle/ba5f23ea-45d5-46a9-bacd-fae0b17623e0"
          },
          {
            "reference": "Composition/1b259b7c-7771-4ee3-aa73-095745215511"
          },
          {
            "reference": "PractitionerRole/26ccb866-638b-471b-b694-3c90f47e92f5"
          },
          {
            "reference": "Practitioner/25921819-9435-4de9-8fc1-04fa79ef687a"
          },
          {
            "reference": "PractitionerRole/4d78aefa-23e6-4b22-ad70-ca858f917460"
          },
          {
            "reference": "Organization/b69e652e-6510-4e87-9e6e-7068c7c8e611"
          }
        ],
        "activity": {
          "text": "Synthetic Example Data Generation"
        },
        "policy": [
          "https://synderai.net/synderai-synthetic-data-policy"
        ],
        "agent": [
          {
            "type": {
              "text": "author"
            },
            "who": {
              "reference": "Device/acef3a2b-5b2c-49c7-9031-067da8604619"
            }
          }
        ],
        "reason": [
          {
            "text": "Interoperability Testing and Training (non-clinical use)"
          }
        ],
        "text": {
          "status": "generated",
          "div": "<div xmlns=\"http://www.w3.org/1999/xhtml\">Provenance for SYNDERAI Synthetic Example Data Resource</div>"
        },
        "recorded": "2021-06-11T17:46:20Z"
      }
    },
    {
      "fullUrl": "urn:uuid:26ccb866-638b-471b-b694-3c90f47e92f5",
      "resource": {
        "resourceType": "PractitionerRole",
        "id": "26ccb866-638b-471b-b694-3c90f47e92f5",
        "meta": {
          "profile": [
            "http://hl7.eu/fhir/base/StructureDefinition/practitionerRole-eu"
          ]
        },
        "text": {
          "status": "generated",
          "div": "<div xmlns=\"http://www.w3.org/1999/xhtml\">Laboratory Role Id: 26ccb866-638b-471b-b694-3c90f47e92f5</div>"
        },
        "practitioner": {
          "reference": "urn:uuid:25921819-9435-4de9-8fc1-04fa79ef687a"
        }
      }
    },
    {
      "fullUrl": "urn:uuid:25921819-9435-4de9-8fc1-04fa79ef687a",
      "resource": {
        "resourceType": "Practitioner",
        "id": "25921819-9435-4de9-8fc1-04fa79ef687a",
        "meta": {
          "profile": [
            "http://hl7.eu/fhir/base/StructureDefinition/practitioner-eu"
          ]
        },
        "identifier": [
          {
            "assigner": {
              "display": "HL7 Europe"
            },
            "system": "urn:oid:2.16.840.1.113883.2.51.999",
            "value": "59948b8f-d2b3-4e62-bfe8-847c3c0ac488"
          }
        ],
        "name": [
          {
            "prefix": [
              "dr"
            ],
            "given": [
              "Ex"
            ],
            "family": "Ample"
          }
        ],
        "address": [
          {
            "line": [
              "Laboratoire Central Européenne",
              "Boulevard du Jardin Botanique 32"
            ],
            "postalCode": "1000",
            "city": "Brussels",
            "country": "Belgium"
          }
        ],
        "text": {
          "status": "generated",
          "div": "<div xmlns=\"http://www.w3.org/1999/xhtml\">Laboratory: Laboratoire Central Européenne, 1000 Brussels, Belgium</div>"
        }
      }
    }
  ],
  "type": "document",
  "timestamp": "2021-06-11T17:46:20Z"
}
