{
  "resourceType": "Bundle",
  "id": "afdb8fff-5349-46e6-a4b7-9430d535a3cb",
  "meta": {
    "profile": [
      "http://hl7.eu/fhir/laboratory/StructureDefinition/Bundle-eu-lab"
    ]
  },
  "identifier": {
    "assigner": {
      "display": "HL7 Europe"
    },
    "system": "urn:oid:2.16.840.1.113883.2.51.999",
    "value": "b3f453a6-40a0-4548-8cfd-d1866f365bd4"
  },
  "entry": [
    {
      "fullUrl": "urn:uuid:49c4c9e0-f121-4cf4-a380-18d42eefeca4",
      "resource": {
        "resourceType": "Composition",
        "id": "49c4c9e0-f121-4cf4-a380-18d42eefeca4",
        "meta": {
          "profile": [
            "http://hl7.eu/fhir/laboratory/StructureDefinition/Composition-eu-lab"
          ]
        },
        "identifier": {
          "assigner": {
            "display": "HL7 Europe"
          },
          "system": "urn:oid:2.16.840.1.113883.2.51.999",
          "value": "02cd6b69-237b-44db-83a1-8dc2ff2e4dfd"
        },
        "author": [
          {
            "reference": "urn:uuid:6ca290af-0830-4fdb-a731-22f8b3b92b2a"
          }
        ],
        "category": [
          {
            "coding": [
              {
                "code": "26436-6",
                "system": "http://loinc.org",
                "display": "Laboratory studies (set)"
              }
            ]
          }
        ],
        "type": {
          "coding": [
            {
              "code": "11502-2",
              "system": "http://loinc.org",
              "display": "Laboratory report"
            }
          ],
          "text": "Laboratory Report"
        },
        "section": [
          {
            "code": {
              "coding": [
                {
                  "code": "26436-6",
                  "system": "http://loinc.org",
                  "display": "Laboratory studies (set)"
                }
              ],
              "text": "Laboratory studies"
            },
            "section": [
              {
                "code": {
                  "coding": [
                    {
                      "code": "$18719-5",
                      "system": "http://loinc.org",
                      "display": "Chemistry studies (set)"
                    }
                  ],
                  "text": "Chemistry"
                },
                "entry": [
                  {
                    "reference": "urn:uuid:bd27f2f1-f7d9-46ff-a726-45f987a0924b"
                  },
                  {
                    "reference": "urn:uuid:da804d4e-694f-4feb-9a67-c5c8ccf0a329"
                  },
                  {
                    "reference": "urn:uuid:ac474f11-1947-42d2-883c-3af87a960674"
                  },
                  {
                    "reference": "urn:uuid:0905d324-c819-45d4-b0e9-671c84b59cc1"
                  },
                  {
                    "reference": "urn:uuid:3dfe2cf0-bbd6-43b0-8afc-cadb83e523ba"
                  },
                  {
                    "reference": "urn:uuid:85b91cf0-4812-4395-a339-6b56665b130e"
                  },
                  {
                    "reference": "urn:uuid:cc2df0ac-c863-4cfa-97a5-ad86e9f46ae6"
                  },
                  {
                    "reference": "urn:uuid:979b207d-00de-4759-8b28-488465904833"
                  },
                  {
                    "reference": "urn:uuid:06ae7b0e-7d75-4922-a282-c0b3d277d63f"
                  }
                ],
                "text": {
                  "status": "generated",
                  "div": "<div xmlns=\"http://www.w3.org/1999/xhtml\"><h3>Chemistry</h3><table class=\"hl7__eu__lab__report\"><thead><tr><th>Test</th><th>16-MAY-2019</th><th>Reference&#xA0;Range</th><th>Unit</th></tr></thead><tbody><tr><td>Glucose [Mass/volume] in Serum or Plasma</td><td>81.6</td><td>70 - 140</td><td>mg/dL</td></tr><tr><td>Urea nitrogen [Mass/volume] in Serum or Plasma</td><td>7.3</td><td>7 - 50</td><td>mg/dL</td></tr><tr><td>Creatinine [Mass/volume] in Serum or Plasma</td><td><strong>1.6 H</strong></td><td>0.6 - 1.1</td><td>mg/dL</td></tr><tr><td>Calcium [Mass/volume] in Serum or Plasma</td><td>9.4</td><td>8.5 - 10.5</td><td>mg/dL</td></tr><tr><td>Sodium [Moles/volume] in Serum or Plasma</td><td>139.7</td><td>135 - 145</td><td>mmol/L</td></tr><tr><td>Potassium [Moles/volume] in Serum or Plasma</td><td>5.1</td><td>3.5 - 5.1</td><td>mmol/L</td></tr><tr><td>Chloride [Moles/volume] in Serum or Plasma</td><td>105.7</td><td>98 - 108</td><td>mmol/L</td></tr><tr><td>Carbon dioxide, total [Moles/volume] in Serum or Plasma</td><td>23.2</td><td>22 - 32</td><td>mmol/L</td></tr><tr><td>Ketones [Presence] in Urine by Test strip</td><td>Urine ketone test = trace</td><td></td><td></td></tr></tbody></table></div>"
                },
                "title": "Chemistry"
              },
              {
                "code": {
                  "coding": [
                    {
                      "code": "$18729-4",
                      "system": "http://loinc.org",
                      "display": "Urinalysis studies (set)"
                    }
                  ],
                  "text": "Urinalysis"
                },
                "entry": [
                  {
                    "reference": "urn:uuid:2339746f-7f58-4a14-bbd2-d2774429328d"
                  },
                  {
                    "reference": "urn:uuid:5f9a1abe-da77-4db2-8965-f1970708b502"
                  },
                  {
                    "reference": "urn:uuid:9c34e0e8-2c6b-4471-a3eb-cfab2287f5cb"
                  },
                  {
                    "reference": "urn:uuid:ded703e0-2a99-4d2f-8027-8429a9122a08"
                  },
                  {
                    "reference": "urn:uuid:2863f699-d5fa-4315-9cfc-96b78a32745f"
                  },
                  {
                    "reference": "urn:uuid:ebe34a28-f5a2-4235-b786-003c548197c4"
                  },
                  {
                    "reference": "urn:uuid:4c1e45e1-d872-43b5-bd57-da39f3d9cdcf"
                  },
                  {
                    "reference": "urn:uuid:2bbe493f-933a-46b7-b0ec-5b539b9993b8"
                  },
                  {
                    "reference": "urn:uuid:03f76a5d-d382-421a-b456-1d908075d9e7"
                  },
                  {
                    "reference": "urn:uuid:a65100b4-a2cf-4917-ba7d-ab95ccc79d72"
                  },
                  {
                    "reference": "urn:uuid:261fc723-bb90-47b4-9436-56b13d5166c9"
                  },
                  {
                    "reference": "urn:uuid:fe08b8f8-b475-42de-ae8d-a5183deeec97"
                  }
                ],
                "text": {
                  "status": "generated",
                  "div": "<div xmlns=\"http://www.w3.org/1999/xhtml\"><h3>Urinalysis</h3><table class=\"hl7__eu__lab__report\"><thead><tr><th>Test</th><th>16-MAY-2019</th><th>Reference&#xA0;Range</th><th>Unit</th></tr></thead><tbody><tr><td>Glucose [Mass/volume] in Urine by Test strip</td><td><strong>1.3 H</strong></td><td>0.8 - 0</td><td>mg/dL</td></tr><tr><td>Glucose [Presence] in Urine by Test strip</td><td>++</td><td></td><td></td></tr><tr><td>Bilirubin.total [Mass/volume] in Urine by Test strip</td><td><strong>1.2 H</strong></td><td>0 - 1</td><td>mg/dL</td></tr><tr><td>Bilirubin.total [Presence] in Urine by Test strip</td><td>Finding of bilirubin in urine</td><td></td><td></td></tr><tr><td>Ketones [Mass/volume] in Urine by Test strip</td><td>2.5</td><td>0 - 20</td><td>mg/dL</td></tr><tr><td>Specific gravity of Urine by Test strip</td><td><strong>1.0 L</strong></td><td>1.01 - 1.03</td><td>{nominal}</td></tr><tr><td>pH of Urine by Test strip</td><td>5.7</td><td>4.6 - 7</td><td>pH</td></tr><tr><td>Protein [Mass/volume] in Urine by Test strip</td><td><strong>74.3 H</strong></td><td>0 - 15</td><td>mg/dL</td></tr><tr><td>Protein [Presence] in Urine by Test strip</td><td>Urine protein test = +</td><td></td><td></td></tr><tr><td>Nitrite [Presence] in Urine by Test strip</td><td>Urine nitrite negative</td><td></td><td></td></tr><tr><td>Hemoglobin [Presence] in Urine by Test strip</td><td>Urine blood test = negative</td><td></td><td></td></tr><tr><td>Leukocyte esterase [Presence] in Urine by Test strip</td><td>Urine leukocyte test negative</td><td></td><td></td></tr></tbody></table></div>"
                },
                "title": "Urinalysis"
              },
              {
                "code": {
                  "coding": [
                    {
                      "code": "$LP7846-1",
                      "system": "http://loinc.org",
                      "display": "Specimen information"
                    }
                  ],
                  "text": "Specimen information"
                },
                "entry": [
                  {
                    "reference": "urn:uuid:19556a5d-3f01-48c0-9776-2e190cb9383b"
                  },
                  {
                    "reference": "urn:uuid:4692015e-d9d4-4f00-a400-9fca2434c805"
                  },
                  {
                    "reference": "urn:uuid:908112f7-6af8-424d-a4f2-3c0eaf0bcfe7"
                  },
                  {
                    "reference": "urn:uuid:57018070-fba7-4267-8fed-c77ea003caf5"
                  }
                ],
                "text": {
                  "status": "generated",
                  "div": "<div xmlns=\"http://www.w3.org/1999/xhtml\"><h3>Specimen information</h3><table class=\"hl7__eu__lab__report\"><thead><tr><th>Test</th><th>16-MAY-2019</th><th>Specimen</th><th></th></tr></thead><tbody><tr><td>Appearance of Urine</td><td>Cloudy urine</td><td>Urine</td><td></td></tr><tr><td>Odor of Urine</td><td>Urine smell ammoniacal</td><td>Urine</td><td></td></tr><tr><td>Clarity of Urine</td><td>Translucent</td><td>Urine</td><td></td></tr><tr><td>Color of Urine</td><td>Brown color</td><td>Urine</td><td></td></tr></tbody></table></div>"
                },
                "title": "Specimen information"
              }
            ],
            "title": "Laboratory Report"
          },
          {
            "text": {
              "status": "generated",
              "div": "<div xmlns=\"http://www.w3.org/1999/xhtml\"><h3>Annotation</h3><table class=\"hl7__eu__lab__report\"><tr><th>Conclusion and Recommendations based on this report and previous findings known to us</th></tr><tr><td>The patient shows elevated serum creatinine, suggesting possible renal impairment. Urinalysis reveals proteinuria, glucosuria, bilirubinuria, low specific gravity, and abnormal urine color and odor, but no hematuria, nitrites, or leukocytes. These findings may indicate renal dysfunction (possibly tubular), with no clear evidence of infection. Further nephrological evaluation is recommended.</td></tr></table></div>"
            },
            "code": {
              "coding": [
                {
                  "system": "http://loinc.org",
                  "code": "48767-8",
                  "display": "Annotation comment"
                }
              ]
            },
            "title": "Annotation comment"
          }
        ],
        "status": "final",
        "subject": {
          "reference": "urn:uuid:9c64d24b-99b5-459e-a2ae-734bfd2f3bd1",
          "display": "Marthe Gallet"
        },
        "date": "2019-05-16T21:05:43Z",
        "title": "Laboratory Report",
        "confidentiality": "N"
      }
    },
    {
      "fullUrl": "urn:uuid:deb791ed-eb95-4b3a-abf6-8473eb6769ef",
      "resource": {
        "resourceType": "DiagnosticReport",
        "id": "deb791ed-eb95-4b3a-abf6-8473eb6769ef",
        "meta": {
          "profile": [
            "http://hl7.eu/fhir/laboratory/StructureDefinition/DiagnosticReport-eu-lab"
          ]
        },
        "identifier": [
          {
            "assigner": {
              "display": "HL7 Europe"
            },
            "system": "urn:oid:2.16.840.1.113883.2.51.999",
            "value": "8df95eac-27b3-40e8-aa25-bf6aefb7b995"
          }
        ],
        "extension": [
          {
            "url": "http://hl7.org/fhir/5.0/StructureDefinition/extension-DiagnosticReport.composition",
            "valueReference": {
              "reference": "urn:uuid:02cd6b69-237b-44db-83a1-8dc2ff2e4dfd"
            }
          }
        ],
        "category": [
          {
            "coding": [
              {
                "code": "26436-6",
                "system": "http://loinc.org",
                "display": "Laboratory studies (set)"
              }
            ]
          }
        ],
        "specimen": [
          {
            "reference": "urn:uuid:d1d87a51-e953-4ef0-bfd1-987eeab47890"
          },
          {
            "reference": "urn:uuid:d946463c-75f0-4697-9f2e-17dc9787b674"
          }
        ],
        "result": [
          {
            "reference": "urn:uuid:bd27f2f1-f7d9-46ff-a726-45f987a0924b"
          },
          {
            "reference": "urn:uuid:da804d4e-694f-4feb-9a67-c5c8ccf0a329"
          },
          {
            "reference": "urn:uuid:ac474f11-1947-42d2-883c-3af87a960674"
          },
          {
            "reference": "urn:uuid:0905d324-c819-45d4-b0e9-671c84b59cc1"
          },
          {
            "reference": "urn:uuid:3dfe2cf0-bbd6-43b0-8afc-cadb83e523ba"
          },
          {
            "reference": "urn:uuid:85b91cf0-4812-4395-a339-6b56665b130e"
          },
          {
            "reference": "urn:uuid:cc2df0ac-c863-4cfa-97a5-ad86e9f46ae6"
          },
          {
            "reference": "urn:uuid:979b207d-00de-4759-8b28-488465904833"
          },
          {
            "reference": "urn:uuid:19556a5d-3f01-48c0-9776-2e190cb9383b"
          },
          {
            "reference": "urn:uuid:4692015e-d9d4-4f00-a400-9fca2434c805"
          },
          {
            "reference": "urn:uuid:908112f7-6af8-424d-a4f2-3c0eaf0bcfe7"
          },
          {
            "reference": "urn:uuid:57018070-fba7-4267-8fed-c77ea003caf5"
          },
          {
            "reference": "urn:uuid:2339746f-7f58-4a14-bbd2-d2774429328d"
          },
          {
            "reference": "urn:uuid:5f9a1abe-da77-4db2-8965-f1970708b502"
          },
          {
            "reference": "urn:uuid:9c34e0e8-2c6b-4471-a3eb-cfab2287f5cb"
          },
          {
            "reference": "urn:uuid:ded703e0-2a99-4d2f-8027-8429a9122a08"
          },
          {
            "reference": "urn:uuid:2863f699-d5fa-4315-9cfc-96b78a32745f"
          },
          {
            "reference": "urn:uuid:06ae7b0e-7d75-4922-a282-c0b3d277d63f"
          },
          {
            "reference": "urn:uuid:ebe34a28-f5a2-4235-b786-003c548197c4"
          },
          {
            "reference": "urn:uuid:4c1e45e1-d872-43b5-bd57-da39f3d9cdcf"
          },
          {
            "reference": "urn:uuid:2bbe493f-933a-46b7-b0ec-5b539b9993b8"
          },
          {
            "reference": "urn:uuid:03f76a5d-d382-421a-b456-1d908075d9e7"
          },
          {
            "reference": "urn:uuid:a65100b4-a2cf-4917-ba7d-ab95ccc79d72"
          },
          {
            "reference": "urn:uuid:261fc723-bb90-47b4-9436-56b13d5166c9"
          },
          {
            "reference": "urn:uuid:fe08b8f8-b475-42de-ae8d-a5183deeec97"
          }
        ],
        "status": "registered",
        "code": {
          "coding": [
            {
              "code": "11502-2",
              "system": "http://loinc.org",
              "display": "Laboratory report"
            }
          ]
        },
        "subject": {
          "reference": "urn:uuid:9c64d24b-99b5-459e-a2ae-734bfd2f3bd1",
          "display": "Marthe Gallet"
        }
      }
    },
    {
      "fullUrl": "urn:uuid:9c64d24b-99b5-459e-a2ae-734bfd2f3bd1",
      "resource": {
        "resourceType": "Patient",
        "id": "9c64d24b-99b5-459e-a2ae-734bfd2f3bd1",
        "meta": {
          "security": [
            {
              "system": "http://terminology.hl7.org/CodeSystem/v3-ActReason",
              "code": "HTEST"
            },
            {
              "system": "http://terminology.hl7.org/CodeSystem/v3-ActReason",
              "code": "TRAIN"
            }
          ],
          "tag": [
            {
              "system": "https://synderai.net/fhir/CodeSystem/tags",
              "code": "synthetic",
              "display": "SYNDERAI Synthetic data"
            }
          ],
          "profile": [
            "http://hl7.eu/fhir/base/StructureDefinition/patient-eu-core"
          ]
        },
        "identifier": [
          {
            "type": {
              "coding": [
                {
                  "code": "PT",
                  "system": "http://terminology.hl7.org/CodeSystem/v2-0203"
                }
              ]
            },
            "system": "http://ec.europa.eu/identifier/eci",
            "value": "9444-947487-6"
          },
          {
            "type": {
              "coding": [
                {
                  "code": "MR",
                  "system": "http://terminology.hl7.org/CodeSystem/v2-0203"
                }
              ]
            },
            "system": "http://local.setting.eu/identifier",
            "value": "854228d5-a476-2d9c-a1d7-c3202375a617"
          }
        ],
        "name": [
          {
            "family": "Gallet"
          },
          {
            "given": [
              "Marthe"
            ]
          },
          {
            "text": "Marthe Gallet"
          }
        ],
        "address": [
          {
            "line": [
              "3, rue Emmanuel Goncalves"
            ],
            "use": "home",
            "type": "physical",
            "postalCode": "49490",
            "city": "Briand",
            "country": "France"
          }
        ],
        "telecom": [
          {
            "system": "phone",
            "value": "+33 1 70 99 82 74"
          }
        ],
        "extension": [
          {
            "url": "http://hl7.org/fhir/StructureDefinition/patient-nationality",
            "valueCodeableConcept": {
              "coding": [
                {
                  "code": "FR",
                  "system": "http://hl7.org/fhir/ValueSet/country"
                }
              ]
            }
          }
        ],
        "text": {
          "status": "generated",
          "div": "<div xmlns=\"http://www.w3.org/1999/xhtml\"><table class=\"hl7__ips\"><tr><td>Marthe Gallet</td><td>female</td><td>29-Oct-1950</td></tr></table></div>"
        },
        "gender": "female",
        "birthDate": "1950-10-29"
      }
    },
    {
      "fullUrl": "urn:uuid:afc73aca-f7dd-41e2-ab0b-81933864a97a",
      "resource": {
        "resourceType": "ServiceRequest",
        "id": "afc73aca-f7dd-41e2-ab0b-81933864a97a",
        "meta": {
          "profile": [
            "http://hl7.eu/fhir/laboratory/StructureDefinition/ServiceRequest-eu-lab"
          ]
        },
        "identifier": [
          {
            "system": "http://example.org",
            "value": "cbdea452-6490-43ec-9ec9-99f1a8edff87"
          }
        ],
        "specimen": [
          {
            "reference": "urn:uuid:d1d87a51-e953-4ef0-bfd1-987eeab47890"
          },
          {
            "reference": "urn:uuid:d946463c-75f0-4697-9f2e-17dc9787b674"
          }
        ],
        "reasonCode": [
          {
            "coding": [
              {
                "code": "431856006",
                "system": "http://snomed.info/sct",
                "display": "Chronic kidney disease stage 2"
              }
            ]
          },
          {
            "coding": [
              {
                "code": "90781000119102",
                "system": "http://snomed.info/sct",
                "display": "Microalbuminuria due to type 2 diabetes mellitus"
              }
            ]
          },
          {
            "coding": [
              {
                "code": "127013003",
                "system": "http://snomed.info/sct",
                "display": "Disorder of kidney due to diabetes mellitus"
              }
            ]
          },
          {
            "coding": [
              {
                "code": "431855005",
                "system": "http://snomed.info/sct",
                "display": "Chronic kidney disease stage 1"
              }
            ]
          },
          {
            "coding": [
              {
                "code": "55822004",
                "system": "http://snomed.info/sct",
                "display": "Hyperlipidemia"
              }
            ]
          },
          {
            "coding": [
              {
                "code": "59621000",
                "system": "http://snomed.info/sct",
                "display": "Essential hypertension"
              }
            ]
          }
        ],
        "status": "active",
        "intent": "order",
        "code": {
          "coding": [
            {
              "code": "108252007",
              "system": "http://snomed.info/sct",
              "display": "Laboratory procedure"
            }
          ]
        },
        "subject": {
          "reference": "urn:uuid:9c64d24b-99b5-459e-a2ae-734bfd2f3bd1",
          "display": "Marthe Gallet"
        },
        "requester": {
          "reference": "urn:uuid:d600cd09-643c-49a7-b2c0-c2c2057a6eec"
        }
      }
    },
    {
      "fullUrl": "urn:uuid:d600cd09-643c-49a7-b2c0-c2c2057a6eec",
      "resource": {
        "resourceType": "PractitionerRole",
        "id": "d600cd09-643c-49a7-b2c0-c2c2057a6eec",
        "meta": {
          "profile": [
            "http://hl7.eu/fhir/base/StructureDefinition/practitionerRole-eu"
          ]
        },
        "text": {
          "status": "generated",
          "div": "<div xmlns=\"http://www.w3.org/1999/xhtml\">Provider Role Id: d600cd09-643c-49a7-b2c0-c2c2057a6eec</div>"
        },
        "organization": {
          "reference": "urn:uuid:ac371f17-c0de-41d7-a89b-d70544e964c1"
        }
      }
    },
    {
      "fullUrl": "urn:uuid:ac371f17-c0de-41d7-a89b-d70544e964c1",
      "resource": {
        "resourceType": "Organization",
        "id": "ac371f17-c0de-41d7-a89b-d70544e964c1",
        "meta": {
          "profile": [
            "http://hl7.eu/fhir/base/StructureDefinition/organization-eu"
          ]
        },
        "identifier": [
          {
            "assigner": {
              "display": "HL7 Europe"
            },
            "system": "urn:oid:2.16.840.1.113883.2.51.999",
            "value": "025f0eb7-2abd-45fb-8067-f262e9e2979f"
          }
        ],
        "address": [
          {
            "line": [
              "Rue Larrey nan"
            ],
            "city": "Angers",
            "postalCode": "49100",
            "country": "France"
          }
        ],
        "text": {
          "status": "generated",
          "div": "<div xmlns=\"http://www.w3.org/1999/xhtml\">Provider Organization: CHU d&#039;Angers</div>"
        },
        "name": "CHU d&#039;Angers"
      }
    },
    {
      "fullUrl": "urn:uuid:d1d87a51-e953-4ef0-bfd1-987eeab47890",
      "resource": {
        "resourceType": "Specimen",
        "id": "d1d87a51-e953-4ef0-bfd1-987eeab47890",
        "meta": {
          "profile": [
            "http://hl7.eu/fhir/laboratory/StructureDefinition/Specimen-eu-lab"
          ]
        },
        "collection": {
          "collectedDateTime": "2019-05-16"
        },
        "text": {
          "status": "generated",
          "div": "<div xmlns=\"http://www.w3.org/1999/xhtml\"><table class=\"hl7__eu__lab__report\"><tr><th>Specimen</th><th>Collection Date</th></tr><tr><td>Acellular blood (serum or plasma) specimen</td><td><span class=\"nb\">16-May-2019</span></td></tr></table></div>"
        },
        "type": {
          "coding": [
            {
              "code": "122592007",
              "system": "http://snomed.info/sct",
              "display": "Acellular blood (serum or plasma) specimen"
            }
          ]
        }
      }
    },
    {
      "fullUrl": "urn:uuid:d946463c-75f0-4697-9f2e-17dc9787b674",
      "resource": {
        "resourceType": "Specimen",
        "id": "d946463c-75f0-4697-9f2e-17dc9787b674",
        "meta": {
          "profile": [
            "http://hl7.eu/fhir/laboratory/StructureDefinition/Specimen-eu-lab"
          ]
        },
        "collection": {
          "collectedDateTime": "2019-05-16"
        },
        "text": {
          "status": "generated",
          "div": "<div xmlns=\"http://www.w3.org/1999/xhtml\"><table class=\"hl7__eu__lab__report\"><tr><th>Specimen</th><th>Collection Date</th></tr><tr><td>Urine specimen</td><td><span class=\"nb\">16-May-2019</span></td></tr></table></div>"
        },
        "type": {
          "coding": [
            {
              "code": "122575003",
              "system": "http://snomed.info/sct",
              "display": "Urine specimen"
            }
          ]
        }
      }
    },
    {
      "fullUrl": "urn:uuid:bd27f2f1-f7d9-46ff-a726-45f987a0924b",
      "resource": {
        "resourceType": "Observation",
        "id": "bd27f2f1-f7d9-46ff-a726-45f987a0924b",
        "meta": {
          "profile": [
            "http://hl7.eu/fhir/laboratory/StructureDefinition/Observation-resultslab-eu-lab"
          ]
        },
        "performer": [
          {
            "display": "The Central European Lab"
          }
        ],
        "category": [
          {
            "coding": [
              {
                "system": "http://terminology.hl7.org/CodeSystem/observation-category",
                "code": "laboratory"
              }
            ]
          }
        ],
        "code": {
          "coding": [
            {
              "code": "2345-7",
              "system": "http://loinc.org",
              "display": "Glucose [Mass/volume] in Serum or Plasma"
            }
          ],
          "text": "Glucose [Mass/volume] in Serum or Plasma"
        },
        "valueQuantity": {
          "system": "http://unitsofmeasure.org",
          "value": 81.6,
          "unit": "mg/dL",
          "code": "mg/dL"
        },
        "referenceRange": [
          {
            "low": {
              "value": 70,
              "code": "mg/dL",
              "system": "http://unitsofmeasure.org"
            }
          },
          {
            "high": {
              "value": 140,
              "code": "mg/dL",
              "system": "http://unitsofmeasure.org"
            }
          }
        ],
        "text": {
          "status": "generated",
          "div": "<div xmlns=\"http://www.w3.org/1999/xhtml\"><table class=\"hl7__eu__lab__report\"><tr><th>Test</th><th>16-May-2019</th><th>Reference&#xA0;Range</th><th>Unit</th></tr><tr><td>Glucose [Mass/volume] in Serum or Plasma</td><td>81.6</td><td>70 - 140</td><td></td><td>mg/dL</td></tr></table></div>"
        },
        "status": "final",
        "subject": {
          "reference": "urn:uuid:9c64d24b-99b5-459e-a2ae-734bfd2f3bd1",
          "display": "Marthe Gallet"
        },
        "effectiveDateTime": "2019-05-16T19:05:43Z",
        "specimen": {
          "reference": "urn:uuid:d1d87a51-e953-4ef0-bfd1-987eeab47890"
        }
      }
    },
    {
      "fullUrl": "urn:uuid:da804d4e-694f-4feb-9a67-c5c8ccf0a329",
      "resource": {
        "resourceType": "Observation",
        "id": "da804d4e-694f-4feb-9a67-c5c8ccf0a329",
        "meta": {
          "profile": [
            "http://hl7.eu/fhir/laboratory/StructureDefinition/Observation-resultslab-eu-lab"
          ]
        },
        "performer": [
          {
            "display": "The Central European Lab"
          }
        ],
        "category": [
          {
            "coding": [
              {
                "system": "http://terminology.hl7.org/CodeSystem/observation-category",
                "code": "laboratory"
              }
            ]
          }
        ],
        "code": {
          "coding": [
            {
              "code": "3094-0",
              "system": "http://loinc.org",
              "display": "Urea nitrogen [Mass/volume] in Serum or Plasma"
            }
          ],
          "text": "Urea nitrogen [Mass/volume] in Serum or Plasma"
        },
        "valueQuantity": {
          "system": "http://unitsofmeasure.org",
          "value": 7.3,
          "unit": "mg/dL",
          "code": "mg/dL"
        },
        "referenceRange": [
          {
            "low": {
              "value": 7,
              "code": "mg/dL",
              "system": "http://unitsofmeasure.org"
            }
          },
          {
            "high": {
              "value": 50,
              "code": "mg/dL",
              "system": "http://unitsofmeasure.org"
            }
          }
        ],
        "text": {
          "status": "generated",
          "div": "<div xmlns=\"http://www.w3.org/1999/xhtml\"><table class=\"hl7__eu__lab__report\"><tr><th>Test</th><th>16-May-2019</th><th>Reference&#xA0;Range</th><th>Unit</th></tr><tr><td>Urea nitrogen [Mass/volume] in Serum or Plasma</td><td>7.3</td><td>7 - 50</td><td></td><td>mg/dL</td></tr></table></div>"
        },
        "status": "final",
        "subject": {
          "reference": "urn:uuid:9c64d24b-99b5-459e-a2ae-734bfd2f3bd1",
          "display": "Marthe Gallet"
        },
        "effectiveDateTime": "2019-05-16T19:05:43Z",
        "specimen": {
          "reference": "urn:uuid:d1d87a51-e953-4ef0-bfd1-987eeab47890"
        }
      }
    },
    {
      "fullUrl": "urn:uuid:ac474f11-1947-42d2-883c-3af87a960674",
      "resource": {
        "resourceType": "Observation",
        "id": "ac474f11-1947-42d2-883c-3af87a960674",
        "meta": {
          "profile": [
            "http://hl7.eu/fhir/laboratory/StructureDefinition/Observation-resultslab-eu-lab"
          ]
        },
        "performer": [
          {
            "display": "The Central European Lab"
          }
        ],
        "category": [
          {
            "coding": [
              {
                "system": "http://terminology.hl7.org/CodeSystem/observation-category",
                "code": "laboratory"
              }
            ]
          }
        ],
        "code": {
          "coding": [
            {
              "code": "2160-0",
              "system": "http://loinc.org",
              "display": "Creatinine [Mass/volume] in Serum or Plasma"
            }
          ],
          "text": "Creatinine [Mass/volume] in Serum or Plasma"
        },
        "valueQuantity": {
          "system": "http://unitsofmeasure.org",
          "value": 1.6,
          "unit": "mg/dL",
          "code": "mg/dL"
        },
        "referenceRange": [
          {
            "low": {
              "value": 0.6,
              "code": "mg/dL",
              "system": "http://unitsofmeasure.org"
            }
          },
          {
            "high": {
              "value": 1.1,
              "code": "mg/dL",
              "system": "http://unitsofmeasure.org"
            }
          }
        ],
        "interpretation": [
          {
            "coding": [
              {
                "code": "H",
                "system": "http://terminology.hl7.org/CodeSystem/v3-ObservationInterpretation",
                "display": "High"
              }
            ]
          }
        ],
        "text": {
          "status": "generated",
          "div": "<div xmlns=\"http://www.w3.org/1999/xhtml\"><table class=\"hl7__eu__lab__report\"><tr><th>Test</th><th>16-May-2019</th><th>Reference&#xA0;Range</th><th>Unit</th></tr><tr><td>Creatinine [Mass/volume] in Serum or Plasma</td><td>1.6</td><td>0.6 - 1.1</td><td>H</td><td>mg/dL</td></tr></table></div>"
        },
        "status": "final",
        "subject": {
          "reference": "urn:uuid:9c64d24b-99b5-459e-a2ae-734bfd2f3bd1",
          "display": "Marthe Gallet"
        },
        "effectiveDateTime": "2019-05-16T19:05:43Z",
        "specimen": {
          "reference": "urn:uuid:d1d87a51-e953-4ef0-bfd1-987eeab47890"
        }
      }
    },
    {
      "fullUrl": "urn:uuid:0905d324-c819-45d4-b0e9-671c84b59cc1",
      "resource": {
        "resourceType": "Observation",
        "id": "0905d324-c819-45d4-b0e9-671c84b59cc1",
        "meta": {
          "profile": [
            "http://hl7.eu/fhir/laboratory/StructureDefinition/Observation-resultslab-eu-lab"
          ]
        },
        "performer": [
          {
            "display": "The Central European Lab"
          }
        ],
        "category": [
          {
            "coding": [
              {
                "system": "http://terminology.hl7.org/CodeSystem/observation-category",
                "code": "laboratory"
              }
            ]
          }
        ],
        "code": {
          "coding": [
            {
              "code": "17861-6",
              "system": "http://loinc.org",
              "display": "Calcium [Mass/volume] in Serum or Plasma"
            }
          ],
          "text": "Calcium [Mass/volume] in Serum or Plasma"
        },
        "valueQuantity": {
          "system": "http://unitsofmeasure.org",
          "value": 9.4,
          "unit": "mg/dL",
          "code": "mg/dL"
        },
        "referenceRange": [
          {
            "low": {
              "value": 8.5,
              "code": "mg/dL",
              "system": "http://unitsofmeasure.org"
            }
          },
          {
            "high": {
              "value": 10.5,
              "code": "mg/dL",
              "system": "http://unitsofmeasure.org"
            }
          }
        ],
        "text": {
          "status": "generated",
          "div": "<div xmlns=\"http://www.w3.org/1999/xhtml\"><table class=\"hl7__eu__lab__report\"><tr><th>Test</th><th>16-May-2019</th><th>Reference&#xA0;Range</th><th>Unit</th></tr><tr><td>Calcium [Mass/volume] in Serum or Plasma</td><td>9.4</td><td>8.5 - 10.5</td><td></td><td>mg/dL</td></tr></table></div>"
        },
        "status": "final",
        "subject": {
          "reference": "urn:uuid:9c64d24b-99b5-459e-a2ae-734bfd2f3bd1",
          "display": "Marthe Gallet"
        },
        "effectiveDateTime": "2019-05-16T19:05:43Z",
        "specimen": {
          "reference": "urn:uuid:d1d87a51-e953-4ef0-bfd1-987eeab47890"
        }
      }
    },
    {
      "fullUrl": "urn:uuid:3dfe2cf0-bbd6-43b0-8afc-cadb83e523ba",
      "resource": {
        "resourceType": "Observation",
        "id": "3dfe2cf0-bbd6-43b0-8afc-cadb83e523ba",
        "meta": {
          "profile": [
            "http://hl7.eu/fhir/laboratory/StructureDefinition/Observation-resultslab-eu-lab"
          ]
        },
        "performer": [
          {
            "display": "The Central European Lab"
          }
        ],
        "category": [
          {
            "coding": [
              {
                "system": "http://terminology.hl7.org/CodeSystem/observation-category",
                "code": "laboratory"
              }
            ]
          }
        ],
        "code": {
          "coding": [
            {
              "code": "2951-2",
              "system": "http://loinc.org",
              "display": "Sodium [Moles/volume] in Serum or Plasma"
            }
          ],
          "text": "Sodium [Moles/volume] in Serum or Plasma"
        },
        "valueQuantity": {
          "system": "http://unitsofmeasure.org",
          "value": 139.7,
          "unit": "mmol/L",
          "code": "mmol/L"
        },
        "referenceRange": [
          {
            "low": {
              "value": 135,
              "code": "mmol/L",
              "system": "http://unitsofmeasure.org"
            }
          },
          {
            "high": {
              "value": 145,
              "code": "mmol/L",
              "system": "http://unitsofmeasure.org"
            }
          }
        ],
        "text": {
          "status": "generated",
          "div": "<div xmlns=\"http://www.w3.org/1999/xhtml\"><table class=\"hl7__eu__lab__report\"><tr><th>Test</th><th>16-May-2019</th><th>Reference&#xA0;Range</th><th>Unit</th></tr><tr><td>Sodium [Moles/volume] in Serum or Plasma</td><td>139.7</td><td>135 - 145</td><td></td><td>mmol/L</td></tr></table></div>"
        },
        "status": "final",
        "subject": {
          "reference": "urn:uuid:9c64d24b-99b5-459e-a2ae-734bfd2f3bd1",
          "display": "Marthe Gallet"
        },
        "effectiveDateTime": "2019-05-16T19:05:43Z",
        "specimen": {
          "reference": "urn:uuid:d1d87a51-e953-4ef0-bfd1-987eeab47890"
        }
      }
    },
    {
      "fullUrl": "urn:uuid:85b91cf0-4812-4395-a339-6b56665b130e",
      "resource": {
        "resourceType": "Observation",
        "id": "85b91cf0-4812-4395-a339-6b56665b130e",
        "meta": {
          "profile": [
            "http://hl7.eu/fhir/laboratory/StructureDefinition/Observation-resultslab-eu-lab"
          ]
        },
        "performer": [
          {
            "display": "The Central European Lab"
          }
        ],
        "category": [
          {
            "coding": [
              {
                "system": "http://terminology.hl7.org/CodeSystem/observation-category",
                "code": "laboratory"
              }
            ]
          }
        ],
        "code": {
          "coding": [
            {
              "code": "2823-3",
              "system": "http://loinc.org",
              "display": "Potassium [Moles/volume] in Serum or Plasma"
            }
          ],
          "text": "Potassium [Moles/volume] in Serum or Plasma"
        },
        "valueQuantity": {
          "system": "http://unitsofmeasure.org",
          "value": 5.1,
          "unit": "mmol/L",
          "code": "mmol/L"
        },
        "referenceRange": [
          {
            "low": {
              "value": 3.5,
              "code": "mmol/L",
              "system": "http://unitsofmeasure.org"
            }
          },
          {
            "high": {
              "value": 5.1,
              "code": "mmol/L",
              "system": "http://unitsofmeasure.org"
            }
          }
        ],
        "text": {
          "status": "generated",
          "div": "<div xmlns=\"http://www.w3.org/1999/xhtml\"><table class=\"hl7__eu__lab__report\"><tr><th>Test</th><th>16-May-2019</th><th>Reference&#xA0;Range</th><th>Unit</th></tr><tr><td>Potassium [Moles/volume] in Serum or Plasma</td><td>5.1</td><td>3.5 - 5.1</td><td></td><td>mmol/L</td></tr></table></div>"
        },
        "status": "final",
        "subject": {
          "reference": "urn:uuid:9c64d24b-99b5-459e-a2ae-734bfd2f3bd1",
          "display": "Marthe Gallet"
        },
        "effectiveDateTime": "2019-05-16T19:05:43Z",
        "specimen": {
          "reference": "urn:uuid:d1d87a51-e953-4ef0-bfd1-987eeab47890"
        }
      }
    },
    {
      "fullUrl": "urn:uuid:cc2df0ac-c863-4cfa-97a5-ad86e9f46ae6",
      "resource": {
        "resourceType": "Observation",
        "id": "cc2df0ac-c863-4cfa-97a5-ad86e9f46ae6",
        "meta": {
          "profile": [
            "http://hl7.eu/fhir/laboratory/StructureDefinition/Observation-resultslab-eu-lab"
          ]
        },
        "performer": [
          {
            "display": "The Central European Lab"
          }
        ],
        "category": [
          {
            "coding": [
              {
                "system": "http://terminology.hl7.org/CodeSystem/observation-category",
                "code": "laboratory"
              }
            ]
          }
        ],
        "code": {
          "coding": [
            {
              "code": "2075-0",
              "system": "http://loinc.org",
              "display": "Chloride [Moles/volume] in Serum or Plasma"
            }
          ],
          "text": "Chloride [Moles/volume] in Serum or Plasma"
        },
        "valueQuantity": {
          "system": "http://unitsofmeasure.org",
          "value": 105.7,
          "unit": "mmol/L",
          "code": "mmol/L"
        },
        "referenceRange": [
          {
            "low": {
              "value": 98,
              "code": "mmol/L",
              "system": "http://unitsofmeasure.org"
            }
          },
          {
            "high": {
              "value": 108,
              "code": "mmol/L",
              "system": "http://unitsofmeasure.org"
            }
          }
        ],
        "text": {
          "status": "generated",
          "div": "<div xmlns=\"http://www.w3.org/1999/xhtml\"><table class=\"hl7__eu__lab__report\"><tr><th>Test</th><th>16-May-2019</th><th>Reference&#xA0;Range</th><th>Unit</th></tr><tr><td>Chloride [Moles/volume] in Serum or Plasma</td><td>105.7</td><td>98 - 108</td><td></td><td>mmol/L</td></tr></table></div>"
        },
        "status": "final",
        "subject": {
          "reference": "urn:uuid:9c64d24b-99b5-459e-a2ae-734bfd2f3bd1",
          "display": "Marthe Gallet"
        },
        "effectiveDateTime": "2019-05-16T19:05:43Z",
        "specimen": {
          "reference": "urn:uuid:d1d87a51-e953-4ef0-bfd1-987eeab47890"
        }
      }
    },
    {
      "fullUrl": "urn:uuid:979b207d-00de-4759-8b28-488465904833",
      "resource": {
        "resourceType": "Observation",
        "id": "979b207d-00de-4759-8b28-488465904833",
        "meta": {
          "profile": [
            "http://hl7.eu/fhir/laboratory/StructureDefinition/Observation-resultslab-eu-lab"
          ]
        },
        "performer": [
          {
            "display": "The Central European Lab"
          }
        ],
        "category": [
          {
            "coding": [
              {
                "system": "http://terminology.hl7.org/CodeSystem/observation-category",
                "code": "laboratory"
              }
            ]
          }
        ],
        "code": {
          "coding": [
            {
              "code": "2028-9",
              "system": "http://loinc.org",
              "display": "Carbon dioxide, total [Moles/volume] in Serum or Plasma"
            }
          ],
          "text": "Carbon dioxide, total [Moles/volume] in Serum or Plasma"
        },
        "valueQuantity": {
          "system": "http://unitsofmeasure.org",
          "value": 23.2,
          "unit": "mmol/L",
          "code": "mmol/L"
        },
        "referenceRange": [
          {
            "low": {
              "value": 22,
              "code": "mmol/L",
              "system": "http://unitsofmeasure.org"
            }
          },
          {
            "high": {
              "value": 32,
              "code": "mmol/L",
              "system": "http://unitsofmeasure.org"
            }
          }
        ],
        "text": {
          "status": "generated",
          "div": "<div xmlns=\"http://www.w3.org/1999/xhtml\"><table class=\"hl7__eu__lab__report\"><tr><th>Test</th><th>16-May-2019</th><th>Reference&#xA0;Range</th><th>Unit</th></tr><tr><td>Carbon dioxide, total [Moles/volume] in Serum or Plasma</td><td>23.2</td><td>22 - 32</td><td></td><td>mmol/L</td></tr></table></div>"
        },
        "status": "final",
        "subject": {
          "reference": "urn:uuid:9c64d24b-99b5-459e-a2ae-734bfd2f3bd1",
          "display": "Marthe Gallet"
        },
        "effectiveDateTime": "2019-05-16T19:05:43Z",
        "specimen": {
          "reference": "urn:uuid:d1d87a51-e953-4ef0-bfd1-987eeab47890"
        }
      }
    },
    {
      "fullUrl": "urn:uuid:19556a5d-3f01-48c0-9776-2e190cb9383b",
      "resource": {
        "resourceType": "Observation",
        "id": "19556a5d-3f01-48c0-9776-2e190cb9383b",
        "meta": {
          "profile": [
            "http://hl7.eu/fhir/laboratory/StructureDefinition/Observation-resultslab-eu-lab"
          ]
        },
        "performer": [
          {
            "display": "The Central European Lab"
          }
        ],
        "category": [
          {
            "coding": [
              {
                "system": "http://terminology.hl7.org/CodeSystem/observation-category",
                "code": "laboratory"
              }
            ]
          }
        ],
        "code": {
          "coding": [
            {
              "code": "5767-9",
              "system": "http://loinc.org",
              "display": "Appearance of Urine"
            }
          ],
          "text": "Appearance of Urine"
        },
        "text": {
          "status": "generated",
          "div": "<div xmlns=\"http://www.w3.org/1999/xhtml\"><table class=\"hl7__eu__lab__report\"><tr><th>Test</th><th>16-May-2019</th><th>Reference&#xA0;Range</th><th>Unit</th></tr><tr><td>Appearance of Urine</td></tr></table></div>"
        },
        "status": "final",
        "subject": {
          "reference": "urn:uuid:9c64d24b-99b5-459e-a2ae-734bfd2f3bd1",
          "display": "Marthe Gallet"
        },
        "effectiveDateTime": "2019-05-16T19:05:43Z",
        "specimen": {
          "reference": "urn:uuid:d946463c-75f0-4697-9f2e-17dc9787b674"
        }
      }
    },
    {
      "fullUrl": "urn:uuid:4692015e-d9d4-4f00-a400-9fca2434c805",
      "resource": {
        "resourceType": "Observation",
        "id": "4692015e-d9d4-4f00-a400-9fca2434c805",
        "meta": {
          "profile": [
            "http://hl7.eu/fhir/laboratory/StructureDefinition/Observation-resultslab-eu-lab"
          ]
        },
        "performer": [
          {
            "display": "The Central European Lab"
          }
        ],
        "category": [
          {
            "coding": [
              {
                "system": "http://terminology.hl7.org/CodeSystem/observation-category",
                "code": "laboratory"
              }
            ]
          }
        ],
        "code": {
          "coding": [
            {
              "code": "34533-0",
              "system": "http://loinc.org",
              "display": "Odor of Urine"
            }
          ],
          "text": "Odor of Urine"
        },
        "text": {
          "status": "generated",
          "div": "<div xmlns=\"http://www.w3.org/1999/xhtml\"><table class=\"hl7__eu__lab__report\"><tr><th>Test</th><th>16-May-2019</th><th>Reference&#xA0;Range</th><th>Unit</th></tr><tr><td>Odor of Urine</td></tr></table></div>"
        },
        "status": "final",
        "subject": {
          "reference": "urn:uuid:9c64d24b-99b5-459e-a2ae-734bfd2f3bd1",
          "display": "Marthe Gallet"
        },
        "effectiveDateTime": "2019-05-16T19:05:43Z",
        "specimen": {
          "reference": "urn:uuid:d946463c-75f0-4697-9f2e-17dc9787b674"
        }
      }
    },
    {
      "fullUrl": "urn:uuid:908112f7-6af8-424d-a4f2-3c0eaf0bcfe7",
      "resource": {
        "resourceType": "Observation",
        "id": "908112f7-6af8-424d-a4f2-3c0eaf0bcfe7",
        "meta": {
          "profile": [
            "http://hl7.eu/fhir/laboratory/StructureDefinition/Observation-resultslab-eu-lab"
          ]
        },
        "performer": [
          {
            "display": "The Central European Lab"
          }
        ],
        "category": [
          {
            "coding": [
              {
                "system": "http://terminology.hl7.org/CodeSystem/observation-category",
                "code": "laboratory"
              }
            ]
          }
        ],
        "code": {
          "coding": [
            {
              "code": "32167-9",
              "system": "http://loinc.org",
              "display": "Clarity of Urine"
            }
          ],
          "text": "Clarity of Urine"
        },
        "text": {
          "status": "generated",
          "div": "<div xmlns=\"http://www.w3.org/1999/xhtml\"><table class=\"hl7__eu__lab__report\"><tr><th>Test</th><th>16-May-2019</th><th>Reference&#xA0;Range</th><th>Unit</th></tr><tr><td>Clarity of Urine</td></tr></table></div>"
        },
        "status": "final",
        "subject": {
          "reference": "urn:uuid:9c64d24b-99b5-459e-a2ae-734bfd2f3bd1",
          "display": "Marthe Gallet"
        },
        "effectiveDateTime": "2019-05-16T19:05:43Z",
        "specimen": {
          "reference": "urn:uuid:d946463c-75f0-4697-9f2e-17dc9787b674"
        }
      }
    },
    {
      "fullUrl": "urn:uuid:57018070-fba7-4267-8fed-c77ea003caf5",
      "resource": {
        "resourceType": "Observation",
        "id": "57018070-fba7-4267-8fed-c77ea003caf5",
        "meta": {
          "profile": [
            "http://hl7.eu/fhir/laboratory/StructureDefinition/Observation-resultslab-eu-lab"
          ]
        },
        "performer": [
          {
            "display": "The Central European Lab"
          }
        ],
        "category": [
          {
            "coding": [
              {
                "system": "http://terminology.hl7.org/CodeSystem/observation-category",
                "code": "laboratory"
              }
            ]
          }
        ],
        "code": {
          "coding": [
            {
              "code": "5778-6",
              "system": "http://loinc.org",
              "display": "Color of Urine"
            }
          ],
          "text": "Color of Urine"
        },
        "text": {
          "status": "generated",
          "div": "<div xmlns=\"http://www.w3.org/1999/xhtml\"><table class=\"hl7__eu__lab__report\"><tr><th>Test</th><th>16-May-2019</th><th>Reference&#xA0;Range</th><th>Unit</th></tr><tr><td>Color of Urine</td></tr></table></div>"
        },
        "status": "final",
        "subject": {
          "reference": "urn:uuid:9c64d24b-99b5-459e-a2ae-734bfd2f3bd1",
          "display": "Marthe Gallet"
        },
        "effectiveDateTime": "2019-05-16T19:05:43Z",
        "specimen": {
          "reference": "urn:uuid:d946463c-75f0-4697-9f2e-17dc9787b674"
        }
      }
    },
    {
      "fullUrl": "urn:uuid:2339746f-7f58-4a14-bbd2-d2774429328d",
      "resource": {
        "resourceType": "Observation",
        "id": "2339746f-7f58-4a14-bbd2-d2774429328d",
        "meta": {
          "profile": [
            "http://hl7.eu/fhir/laboratory/StructureDefinition/Observation-resultslab-eu-lab"
          ]
        },
        "performer": [
          {
            "display": "The Central European Lab"
          }
        ],
        "category": [
          {
            "coding": [
              {
                "system": "http://terminology.hl7.org/CodeSystem/observation-category",
                "code": "laboratory"
              }
            ]
          }
        ],
        "code": {
          "coding": [
            {
              "code": "5792-7",
              "system": "http://loinc.org",
              "display": "Glucose [Mass/volume] in Urine by Test strip"
            }
          ],
          "text": "Glucose [Mass/volume] in Urine by Test strip"
        },
        "valueQuantity": {
          "system": "http://unitsofmeasure.org",
          "value": 1.3,
          "unit": "mg/dL",
          "code": "mg/dL"
        },
        "referenceRange": [
          {
            "low": {
              "value": 0.8,
              "code": "mg/dL",
              "system": "http://unitsofmeasure.org"
            }
          },
          {
            "high": {
              "value": 0,
              "code": "mg/dL",
              "system": "http://unitsofmeasure.org"
            }
          }
        ],
        "interpretation": [
          {
            "coding": [
              {
                "code": "H",
                "system": "http://terminology.hl7.org/CodeSystem/v3-ObservationInterpretation",
                "display": "High"
              }
            ]
          }
        ],
        "text": {
          "status": "generated",
          "div": "<div xmlns=\"http://www.w3.org/1999/xhtml\"><table class=\"hl7__eu__lab__report\"><tr><th>Test</th><th>16-May-2019</th><th>Reference&#xA0;Range</th><th>Unit</th></tr><tr><td>Glucose [Mass/volume] in Urine by Test strip</td><td>1.3</td><td>0.8 - 0</td><td>H</td><td>mg/dL</td></tr></table></div>"
        },
        "status": "final",
        "subject": {
          "reference": "urn:uuid:9c64d24b-99b5-459e-a2ae-734bfd2f3bd1",
          "display": "Marthe Gallet"
        },
        "effectiveDateTime": "2019-05-16T19:05:43Z",
        "specimen": {
          "reference": "urn:uuid:d946463c-75f0-4697-9f2e-17dc9787b674"
        }
      }
    },
    {
      "fullUrl": "urn:uuid:5f9a1abe-da77-4db2-8965-f1970708b502",
      "resource": {
        "resourceType": "Observation",
        "id": "5f9a1abe-da77-4db2-8965-f1970708b502",
        "meta": {
          "profile": [
            "http://hl7.eu/fhir/laboratory/StructureDefinition/Observation-resultslab-eu-lab"
          ]
        },
        "performer": [
          {
            "display": "The Central European Lab"
          }
        ],
        "category": [
          {
            "coding": [
              {
                "system": "http://terminology.hl7.org/CodeSystem/observation-category",
                "code": "laboratory"
              }
            ]
          }
        ],
        "code": {
          "coding": [
            {
              "code": "25428-4",
              "system": "http://loinc.org",
              "display": "Glucose [Presence] in Urine by Test strip"
            }
          ],
          "text": "Glucose [Presence] in Urine by Test strip"
        },
        "text": {
          "status": "generated",
          "div": "<div xmlns=\"http://www.w3.org/1999/xhtml\"><table class=\"hl7__eu__lab__report\"><tr><th>Test</th><th>16-May-2019</th><th>Reference&#xA0;Range</th><th>Unit</th></tr><tr><td>Glucose [Presence] in Urine by Test strip</td></tr></table></div>"
        },
        "status": "final",
        "subject": {
          "reference": "urn:uuid:9c64d24b-99b5-459e-a2ae-734bfd2f3bd1",
          "display": "Marthe Gallet"
        },
        "effectiveDateTime": "2019-05-16T19:05:43Z",
        "specimen": {
          "reference": "urn:uuid:d946463c-75f0-4697-9f2e-17dc9787b674"
        }
      }
    },
    {
      "fullUrl": "urn:uuid:9c34e0e8-2c6b-4471-a3eb-cfab2287f5cb",
      "resource": {
        "resourceType": "Observation",
        "id": "9c34e0e8-2c6b-4471-a3eb-cfab2287f5cb",
        "meta": {
          "profile": [
            "http://hl7.eu/fhir/laboratory/StructureDefinition/Observation-resultslab-eu-lab"
          ]
        },
        "performer": [
          {
            "display": "The Central European Lab"
          }
        ],
        "category": [
          {
            "coding": [
              {
                "system": "http://terminology.hl7.org/CodeSystem/observation-category",
                "code": "laboratory"
              }
            ]
          }
        ],
        "code": {
          "coding": [
            {
              "code": "20505-4",
              "system": "http://loinc.org",
              "display": "Bilirubin.total [Mass/volume] in Urine by Test strip"
            }
          ],
          "text": "Bilirubin.total [Mass/volume] in Urine by Test strip"
        },
        "valueQuantity": {
          "system": "http://unitsofmeasure.org",
          "value": 1.2,
          "unit": "mg/dL",
          "code": "mg/dL"
        },
        "referenceRange": [
          {
            "low": {
              "value": 0,
              "code": "mg/dL",
              "system": "http://unitsofmeasure.org"
            }
          },
          {
            "high": {
              "value": 1,
              "code": "mg/dL",
              "system": "http://unitsofmeasure.org"
            }
          }
        ],
        "interpretation": [
          {
            "coding": [
              {
                "code": "H",
                "system": "http://terminology.hl7.org/CodeSystem/v3-ObservationInterpretation",
                "display": "High"
              }
            ]
          }
        ],
        "text": {
          "status": "generated",
          "div": "<div xmlns=\"http://www.w3.org/1999/xhtml\"><table class=\"hl7__eu__lab__report\"><tr><th>Test</th><th>16-May-2019</th><th>Reference&#xA0;Range</th><th>Unit</th></tr><tr><td>Bilirubin.total [Mass/volume] in Urine by Test strip</td><td>1.2</td><td>0 - 1</td><td>H</td><td>mg/dL</td></tr></table></div>"
        },
        "status": "final",
        "subject": {
          "reference": "urn:uuid:9c64d24b-99b5-459e-a2ae-734bfd2f3bd1",
          "display": "Marthe Gallet"
        },
        "effectiveDateTime": "2019-05-16T19:05:43Z",
        "specimen": {
          "reference": "urn:uuid:d946463c-75f0-4697-9f2e-17dc9787b674"
        }
      }
    },
    {
      "fullUrl": "urn:uuid:ded703e0-2a99-4d2f-8027-8429a9122a08",
      "resource": {
        "resourceType": "Observation",
        "id": "ded703e0-2a99-4d2f-8027-8429a9122a08",
        "meta": {
          "profile": [
            "http://hl7.eu/fhir/laboratory/StructureDefinition/Observation-resultslab-eu-lab"
          ]
        },
        "performer": [
          {
            "display": "The Central European Lab"
          }
        ],
        "category": [
          {
            "coding": [
              {
                "system": "http://terminology.hl7.org/CodeSystem/observation-category",
                "code": "laboratory"
              }
            ]
          }
        ],
        "code": {
          "coding": [
            {
              "code": "5770-3",
              "system": "http://loinc.org",
              "display": "Bilirubin.total [Presence] in Urine by Test strip"
            }
          ],
          "text": "Bilirubin.total [Presence] in Urine by Test strip"
        },
        "text": {
          "status": "generated",
          "div": "<div xmlns=\"http://www.w3.org/1999/xhtml\"><table class=\"hl7__eu__lab__report\"><tr><th>Test</th><th>16-May-2019</th><th>Reference&#xA0;Range</th><th>Unit</th></tr><tr><td>Bilirubin.total [Presence] in Urine by Test strip</td></tr></table></div>"
        },
        "status": "final",
        "subject": {
          "reference": "urn:uuid:9c64d24b-99b5-459e-a2ae-734bfd2f3bd1",
          "display": "Marthe Gallet"
        },
        "effectiveDateTime": "2019-05-16T19:05:43Z",
        "specimen": {
          "reference": "urn:uuid:d946463c-75f0-4697-9f2e-17dc9787b674"
        }
      }
    },
    {
      "fullUrl": "urn:uuid:2863f699-d5fa-4315-9cfc-96b78a32745f",
      "resource": {
        "resourceType": "Observation",
        "id": "2863f699-d5fa-4315-9cfc-96b78a32745f",
        "meta": {
          "profile": [
            "http://hl7.eu/fhir/laboratory/StructureDefinition/Observation-resultslab-eu-lab"
          ]
        },
        "performer": [
          {
            "display": "The Central European Lab"
          }
        ],
        "category": [
          {
            "coding": [
              {
                "system": "http://terminology.hl7.org/CodeSystem/observation-category",
                "code": "laboratory"
              }
            ]
          }
        ],
        "code": {
          "coding": [
            {
              "code": "5797-6",
              "system": "http://loinc.org",
              "display": "Ketones [Mass/volume] in Urine by Test strip"
            }
          ],
          "text": "Ketones [Mass/volume] in Urine by Test strip"
        },
        "valueQuantity": {
          "system": "http://unitsofmeasure.org",
          "value": 2.5,
          "unit": "mg/dL",
          "code": "mg/dL"
        },
        "referenceRange": [
          {
            "low": {
              "value": 0,
              "code": "mg/dL",
              "system": "http://unitsofmeasure.org"
            }
          },
          {
            "high": {
              "value": 20,
              "code": "mg/dL",
              "system": "http://unitsofmeasure.org"
            }
          }
        ],
        "text": {
          "status": "generated",
          "div": "<div xmlns=\"http://www.w3.org/1999/xhtml\"><table class=\"hl7__eu__lab__report\"><tr><th>Test</th><th>16-May-2019</th><th>Reference&#xA0;Range</th><th>Unit</th></tr><tr><td>Ketones [Mass/volume] in Urine by Test strip</td><td>2.5</td><td>0 - 20</td><td></td><td>mg/dL</td></tr></table></div>"
        },
        "status": "final",
        "subject": {
          "reference": "urn:uuid:9c64d24b-99b5-459e-a2ae-734bfd2f3bd1",
          "display": "Marthe Gallet"
        },
        "effectiveDateTime": "2019-05-16T19:05:43Z",
        "specimen": {
          "reference": "urn:uuid:d946463c-75f0-4697-9f2e-17dc9787b674"
        }
      }
    },
    {
      "fullUrl": "urn:uuid:06ae7b0e-7d75-4922-a282-c0b3d277d63f",
      "resource": {
        "resourceType": "Observation",
        "id": "06ae7b0e-7d75-4922-a282-c0b3d277d63f",
        "meta": {
          "profile": [
            "http://hl7.eu/fhir/laboratory/StructureDefinition/Observation-resultslab-eu-lab"
          ]
        },
        "performer": [
          {
            "display": "The Central European Lab"
          }
        ],
        "category": [
          {
            "coding": [
              {
                "system": "http://terminology.hl7.org/CodeSystem/observation-category",
                "code": "laboratory"
              }
            ]
          }
        ],
        "code": {
          "coding": [
            {
              "code": "2514-8",
              "system": "http://loinc.org",
              "display": "Ketones [Presence] in Urine by Test strip"
            }
          ],
          "text": "Ketones [Presence] in Urine by Test strip"
        },
        "text": {
          "status": "generated",
          "div": "<div xmlns=\"http://www.w3.org/1999/xhtml\"><table class=\"hl7__eu__lab__report\"><tr><th>Test</th><th>16-May-2019</th><th>Reference&#xA0;Range</th><th>Unit</th></tr><tr><td>Ketones [Presence] in Urine by Test strip</td></tr></table></div>"
        },
        "status": "final",
        "subject": {
          "reference": "urn:uuid:9c64d24b-99b5-459e-a2ae-734bfd2f3bd1",
          "display": "Marthe Gallet"
        },
        "effectiveDateTime": "2019-05-16T19:05:43Z",
        "specimen": {
          "reference": "urn:uuid:d946463c-75f0-4697-9f2e-17dc9787b674"
        }
      }
    },
    {
      "fullUrl": "urn:uuid:ebe34a28-f5a2-4235-b786-003c548197c4",
      "resource": {
        "resourceType": "Observation",
        "id": "ebe34a28-f5a2-4235-b786-003c548197c4",
        "meta": {
          "profile": [
            "http://hl7.eu/fhir/laboratory/StructureDefinition/Observation-resultslab-eu-lab"
          ]
        },
        "performer": [
          {
            "display": "The Central European Lab"
          }
        ],
        "category": [
          {
            "coding": [
              {
                "system": "http://terminology.hl7.org/CodeSystem/observation-category",
                "code": "laboratory"
              }
            ]
          }
        ],
        "code": {
          "coding": [
            {
              "code": "5811-5",
              "system": "http://loinc.org",
              "display": "Specific gravity of Urine by Test strip"
            }
          ],
          "text": "Specific gravity of Urine by Test strip"
        },
        "valueQuantity": {
          "system": "http://unitsofmeasure.org",
          "value": 1,
          "unit": "{nominal}",
          "code": "{nominal}"
        },
        "referenceRange": [
          {
            "low": {
              "value": 1.01,
              "code": "g/mL",
              "system": "http://unitsofmeasure.org"
            }
          },
          {
            "high": {
              "value": 1.03,
              "code": "g/mL",
              "system": "http://unitsofmeasure.org"
            }
          }
        ],
        "interpretation": [
          {
            "coding": [
              {
                "code": "L",
                "system": "http://terminology.hl7.org/CodeSystem/v3-ObservationInterpretation",
                "display": "Low"
              }
            ]
          }
        ],
        "text": {
          "status": "generated",
          "div": "<div xmlns=\"http://www.w3.org/1999/xhtml\"><table class=\"hl7__eu__lab__report\"><tr><th>Test</th><th>16-May-2019</th><th>Reference&#xA0;Range</th><th>Unit</th></tr><tr><td>Specific gravity of Urine by Test strip</td><td>1.0</td><td>1.01 - 1.03</td><td>L</td><td>{nominal}</td></tr></table></div>"
        },
        "status": "final",
        "subject": {
          "reference": "urn:uuid:9c64d24b-99b5-459e-a2ae-734bfd2f3bd1",
          "display": "Marthe Gallet"
        },
        "effectiveDateTime": "2019-05-16T19:05:43Z",
        "specimen": {
          "reference": "urn:uuid:d946463c-75f0-4697-9f2e-17dc9787b674"
        }
      }
    },
    {
      "fullUrl": "urn:uuid:4c1e45e1-d872-43b5-bd57-da39f3d9cdcf",
      "resource": {
        "resourceType": "Observation",
        "id": "4c1e45e1-d872-43b5-bd57-da39f3d9cdcf",
        "meta": {
          "profile": [
            "http://hl7.eu/fhir/laboratory/StructureDefinition/Observation-resultslab-eu-lab"
          ]
        },
        "performer": [
          {
            "display": "The Central European Lab"
          }
        ],
        "category": [
          {
            "coding": [
              {
                "system": "http://terminology.hl7.org/CodeSystem/observation-category",
                "code": "laboratory"
              }
            ]
          }
        ],
        "code": {
          "coding": [
            {
              "code": "5803-2",
              "system": "http://loinc.org",
              "display": "pH of Urine by Test strip"
            }
          ],
          "text": "pH of Urine by Test strip"
        },
        "valueQuantity": {
          "system": "http://unitsofmeasure.org",
          "value": 5.7,
          "unit": "pH",
          "code": "pH"
        },
        "referenceRange": [
          {
            "low": {
              "value": 4.6,
              "code": "pH",
              "system": "http://unitsofmeasure.org"
            }
          },
          {
            "high": {
              "value": 7,
              "code": "pH",
              "system": "http://unitsofmeasure.org"
            }
          }
        ],
        "text": {
          "status": "generated",
          "div": "<div xmlns=\"http://www.w3.org/1999/xhtml\"><table class=\"hl7__eu__lab__report\"><tr><th>Test</th><th>16-May-2019</th><th>Reference&#xA0;Range</th><th>Unit</th></tr><tr><td>pH of Urine by Test strip</td><td>5.7</td><td>4.6 - 7</td><td></td><td>pH</td></tr></table></div>"
        },
        "status": "final",
        "subject": {
          "reference": "urn:uuid:9c64d24b-99b5-459e-a2ae-734bfd2f3bd1",
          "display": "Marthe Gallet"
        },
        "effectiveDateTime": "2019-05-16T19:05:43Z",
        "specimen": {
          "reference": "urn:uuid:d946463c-75f0-4697-9f2e-17dc9787b674"
        }
      }
    },
    {
      "fullUrl": "urn:uuid:2bbe493f-933a-46b7-b0ec-5b539b9993b8",
      "resource": {
        "resourceType": "Observation",
        "id": "2bbe493f-933a-46b7-b0ec-5b539b9993b8",
        "meta": {
          "profile": [
            "http://hl7.eu/fhir/laboratory/StructureDefinition/Observation-resultslab-eu-lab"
          ]
        },
        "performer": [
          {
            "display": "The Central European Lab"
          }
        ],
        "category": [
          {
            "coding": [
              {
                "system": "http://terminology.hl7.org/CodeSystem/observation-category",
                "code": "laboratory"
              }
            ]
          }
        ],
        "code": {
          "coding": [
            {
              "code": "5804-0",
              "system": "http://loinc.org",
              "display": "Protein [Mass/volume] in Urine by Test strip"
            }
          ],
          "text": "Protein [Mass/volume] in Urine by Test strip"
        },
        "valueQuantity": {
          "system": "http://unitsofmeasure.org",
          "value": 74.3,
          "unit": "mg/dL",
          "code": "mg/dL"
        },
        "referenceRange": [
          {
            "low": {
              "value": 0,
              "code": "mg/dL",
              "system": "http://unitsofmeasure.org"
            }
          },
          {
            "high": {
              "value": 15,
              "code": "mg/dL",
              "system": "http://unitsofmeasure.org"
            }
          }
        ],
        "interpretation": [
          {
            "coding": [
              {
                "code": "H",
                "system": "http://terminology.hl7.org/CodeSystem/v3-ObservationInterpretation",
                "display": "High"
              }
            ]
          }
        ],
        "text": {
          "status": "generated",
          "div": "<div xmlns=\"http://www.w3.org/1999/xhtml\"><table class=\"hl7__eu__lab__report\"><tr><th>Test</th><th>16-May-2019</th><th>Reference&#xA0;Range</th><th>Unit</th></tr><tr><td>Protein [Mass/volume] in Urine by Test strip</td><td>74.3</td><td>0 - 15</td><td>H</td><td>mg/dL</td></tr></table></div>"
        },
        "status": "final",
        "subject": {
          "reference": "urn:uuid:9c64d24b-99b5-459e-a2ae-734bfd2f3bd1",
          "display": "Marthe Gallet"
        },
        "effectiveDateTime": "2019-05-16T19:05:43Z",
        "specimen": {
          "reference": "urn:uuid:d946463c-75f0-4697-9f2e-17dc9787b674"
        }
      }
    },
    {
      "fullUrl": "urn:uuid:03f76a5d-d382-421a-b456-1d908075d9e7",
      "resource": {
        "resourceType": "Observation",
        "id": "03f76a5d-d382-421a-b456-1d908075d9e7",
        "meta": {
          "profile": [
            "http://hl7.eu/fhir/laboratory/StructureDefinition/Observation-resultslab-eu-lab"
          ]
        },
        "performer": [
          {
            "display": "The Central European Lab"
          }
        ],
        "category": [
          {
            "coding": [
              {
                "system": "http://terminology.hl7.org/CodeSystem/observation-category",
                "code": "laboratory"
              }
            ]
          }
        ],
        "code": {
          "coding": [
            {
              "code": "20454-5",
              "system": "http://loinc.org",
              "display": "Protein [Presence] in Urine by Test strip"
            }
          ],
          "text": "Protein [Presence] in Urine by Test strip"
        },
        "text": {
          "status": "generated",
          "div": "<div xmlns=\"http://www.w3.org/1999/xhtml\"><table class=\"hl7__eu__lab__report\"><tr><th>Test</th><th>16-May-2019</th><th>Reference&#xA0;Range</th><th>Unit</th></tr><tr><td>Protein [Presence] in Urine by Test strip</td></tr></table></div>"
        },
        "status": "final",
        "subject": {
          "reference": "urn:uuid:9c64d24b-99b5-459e-a2ae-734bfd2f3bd1",
          "display": "Marthe Gallet"
        },
        "effectiveDateTime": "2019-05-16T19:05:43Z",
        "specimen": {
          "reference": "urn:uuid:d946463c-75f0-4697-9f2e-17dc9787b674"
        }
      }
    },
    {
      "fullUrl": "urn:uuid:a65100b4-a2cf-4917-ba7d-ab95ccc79d72",
      "resource": {
        "resourceType": "Observation",
        "id": "a65100b4-a2cf-4917-ba7d-ab95ccc79d72",
        "meta": {
          "profile": [
            "http://hl7.eu/fhir/laboratory/StructureDefinition/Observation-resultslab-eu-lab"
          ]
        },
        "performer": [
          {
            "display": "The Central European Lab"
          }
        ],
        "category": [
          {
            "coding": [
              {
                "system": "http://terminology.hl7.org/CodeSystem/observation-category",
                "code": "laboratory"
              }
            ]
          }
        ],
        "code": {
          "coding": [
            {
              "code": "5802-4",
              "system": "http://loinc.org",
              "display": "Nitrite [Presence] in Urine by Test strip"
            }
          ],
          "text": "Nitrite [Presence] in Urine by Test strip"
        },
        "text": {
          "status": "generated",
          "div": "<div xmlns=\"http://www.w3.org/1999/xhtml\"><table class=\"hl7__eu__lab__report\"><tr><th>Test</th><th>16-May-2019</th><th>Reference&#xA0;Range</th><th>Unit</th></tr><tr><td>Nitrite [Presence] in Urine by Test strip</td></tr></table></div>"
        },
        "status": "final",
        "subject": {
          "reference": "urn:uuid:9c64d24b-99b5-459e-a2ae-734bfd2f3bd1",
          "display": "Marthe Gallet"
        },
        "effectiveDateTime": "2019-05-16T19:05:43Z",
        "specimen": {
          "reference": "urn:uuid:d946463c-75f0-4697-9f2e-17dc9787b674"
        }
      }
    },
    {
      "fullUrl": "urn:uuid:261fc723-bb90-47b4-9436-56b13d5166c9",
      "resource": {
        "resourceType": "Observation",
        "id": "261fc723-bb90-47b4-9436-56b13d5166c9",
        "meta": {
          "profile": [
            "http://hl7.eu/fhir/laboratory/StructureDefinition/Observation-resultslab-eu-lab"
          ]
        },
        "performer": [
          {
            "display": "The Central European Lab"
          }
        ],
        "category": [
          {
            "coding": [
              {
                "system": "http://terminology.hl7.org/CodeSystem/observation-category",
                "code": "laboratory"
              }
            ]
          }
        ],
        "code": {
          "coding": [
            {
              "code": "5794-3",
              "system": "http://loinc.org",
              "display": "Hemoglobin [Presence] in Urine by Test strip"
            }
          ],
          "text": "Hemoglobin [Presence] in Urine by Test strip"
        },
        "text": {
          "status": "generated",
          "div": "<div xmlns=\"http://www.w3.org/1999/xhtml\"><table class=\"hl7__eu__lab__report\"><tr><th>Test</th><th>16-May-2019</th><th>Reference&#xA0;Range</th><th>Unit</th></tr><tr><td>Hemoglobin [Presence] in Urine by Test strip</td></tr></table></div>"
        },
        "status": "final",
        "subject": {
          "reference": "urn:uuid:9c64d24b-99b5-459e-a2ae-734bfd2f3bd1",
          "display": "Marthe Gallet"
        },
        "effectiveDateTime": "2019-05-16T19:05:43Z",
        "specimen": {
          "reference": "urn:uuid:d946463c-75f0-4697-9f2e-17dc9787b674"
        }
      }
    },
    {
      "fullUrl": "urn:uuid:fe08b8f8-b475-42de-ae8d-a5183deeec97",
      "resource": {
        "resourceType": "Observation",
        "id": "fe08b8f8-b475-42de-ae8d-a5183deeec97",
        "meta": {
          "profile": [
            "http://hl7.eu/fhir/laboratory/StructureDefinition/Observation-resultslab-eu-lab"
          ]
        },
        "performer": [
          {
            "display": "The Central European Lab"
          }
        ],
        "category": [
          {
            "coding": [
              {
                "system": "http://terminology.hl7.org/CodeSystem/observation-category",
                "code": "laboratory"
              }
            ]
          }
        ],
        "code": {
          "coding": [
            {
              "code": "5799-2",
              "system": "http://loinc.org",
              "display": "Leukocyte esterase [Presence] in Urine by Test strip"
            }
          ],
          "text": "Leukocyte esterase [Presence] in Urine by Test strip"
        },
        "text": {
          "status": "generated",
          "div": "<div xmlns=\"http://www.w3.org/1999/xhtml\"><table class=\"hl7__eu__lab__report\"><tr><th>Test</th><th>16-May-2019</th><th>Reference&#xA0;Range</th><th>Unit</th></tr><tr><td>Leukocyte esterase [Presence] in Urine by Test strip</td></tr></table></div>"
        },
        "status": "final",
        "subject": {
          "reference": "urn:uuid:9c64d24b-99b5-459e-a2ae-734bfd2f3bd1",
          "display": "Marthe Gallet"
        },
        "effectiveDateTime": "2019-05-16T19:05:43Z",
        "specimen": {
          "reference": "urn:uuid:d946463c-75f0-4697-9f2e-17dc9787b674"
        }
      }
    },
    {
      "fullUrl": "urn:uuid:981006d5-c547-4f08-a629-9cac60f05f2e",
      "resource": {
        "resourceType": "Device",
        "id": "981006d5-c547-4f08-a629-9cac60f05f2e",
        "deviceName": [
          {
            "name": "SYNDERAI Synthetic Generator",
            "type": "manufacturer-name"
          }
        ],
        "version": [
          {
            "value": "5.0"
          }
        ],
        "text": {
          "status": "generated",
          "div": "<div xmlns=\"http://www.w3.org/1999/xhtml\">SYNDERAI Synthetic Generator v5.0</div>"
        },
        "status": "active\"",
        "distinctIdentifier": "synderai-generator-50",
        "manufacturer": "SYNDERAI Project"
      }
    },
    {
      "fullUrl": "urn:uuid:e19dca00-8570-45a3-91e3-cf17541da223",
      "resource": {
        "resourceType": "Provenance",
        "id": "e19dca00-8570-45a3-91e3-cf17541da223",
        "target": [
          {
            "reference": "Patient/9c64d24b-99b5-459e-a2ae-734bfd2f3bd1"
          },
          {
            "reference": "Bundle/afdb8fff-5349-46e6-a4b7-9430d535a3cb"
          },
          {
            "reference": "Composition/49c4c9e0-f121-4cf4-a380-18d42eefeca4"
          },
          {
            "reference": "PractitionerRole/6ca290af-0830-4fdb-a731-22f8b3b92b2a"
          },
          {
            "reference": "Practitioner/7e7aaa96-c974-4a9e-a9df-b2872ee5b4d3"
          },
          {
            "reference": "PractitionerRole/d600cd09-643c-49a7-b2c0-c2c2057a6eec"
          },
          {
            "reference": "Organization/ac371f17-c0de-41d7-a89b-d70544e964c1"
          }
        ],
        "activity": {
          "text": "Synthetic Example Data Generation"
        },
        "policy": [
          "https://synderai.net/synderai-synthetic-data-policy"
        ],
        "agent": [
          {
            "type": {
              "text": "author"
            },
            "who": {
              "reference": "Device/981006d5-c547-4f08-a629-9cac60f05f2e"
            }
          }
        ],
        "reason": [
          {
            "text": "Interoperability Testing and Training (non-clinical use)"
          }
        ],
        "text": {
          "status": "generated",
          "div": "<div xmlns=\"http://www.w3.org/1999/xhtml\">Provenance for SYNDERAI Synthetic Example Data Resource</div>"
        },
        "recorded": "2019-05-16T21:05:43Z"
      }
    },
    {
      "fullUrl": "urn:uuid:6ca290af-0830-4fdb-a731-22f8b3b92b2a",
      "resource": {
        "resourceType": "PractitionerRole",
        "id": "6ca290af-0830-4fdb-a731-22f8b3b92b2a",
        "meta": {
          "profile": [
            "http://hl7.eu/fhir/base/StructureDefinition/practitionerRole-eu"
          ]
        },
        "text": {
          "status": "generated",
          "div": "<div xmlns=\"http://www.w3.org/1999/xhtml\">Laboratory Role Id: 6ca290af-0830-4fdb-a731-22f8b3b92b2a</div>"
        },
        "practitioner": {
          "reference": "urn:uuid:7e7aaa96-c974-4a9e-a9df-b2872ee5b4d3"
        }
      }
    },
    {
      "fullUrl": "urn:uuid:7e7aaa96-c974-4a9e-a9df-b2872ee5b4d3",
      "resource": {
        "resourceType": "Practitioner",
        "id": "7e7aaa96-c974-4a9e-a9df-b2872ee5b4d3",
        "meta": {
          "profile": [
            "http://hl7.eu/fhir/base/StructureDefinition/practitioner-eu"
          ]
        },
        "identifier": [
          {
            "assigner": {
              "display": "HL7 Europe"
            },
            "system": "urn:oid:2.16.840.1.113883.2.51.999",
            "value": "791cd234-5399-45b7-9313-b4010c5e81fd"
          }
        ],
        "name": [
          {
            "prefix": [
              "dr"
            ],
            "given": [
              "Ex"
            ],
            "family": "Ample"
          }
        ],
        "address": [
          {
            "line": [
              "Laboratoire Central Europenne",
              "Boulevard du Jardin Botanique 32"
            ],
            "postalCode": "1000",
            "city": "Brussels",
            "country": "Belgium"
          }
        ],
        "text": {
          "status": "generated",
          "div": "<div xmlns=\"http://www.w3.org/1999/xhtml\">Laboratory: Laboratoire Central Europenne, 1000 Brussels, Belgium</div>"
        }
      }
    }
  ],
  "type": "document",
  "timestamp": "2019-05-16T21:05:43Z"
}
