{
  "resourceType": "Bundle",
  "id": "260efb53-76e9-4e11-8459-23d0dcc909ec",
  "meta": {
    "profile": [
      "http://hl7.eu/fhir/laboratory/StructureDefinition/Bundle-eu-lab"
    ]
  },
  "identifier": {
    "assigner": {
      "display": "HL7 Europe"
    },
    "system": "urn:oid:2.16.840.1.113883.2.51.999",
    "value": "dee429d1-ad51-4466-acee-c348bf545663"
  },
  "entry": [
    {
      "fullUrl": "urn:uuid:b5b7412b-c413-485b-b7fd-4d703962e9e0",
      "resource": {
        "resourceType": "Composition",
        "id": "b5b7412b-c413-485b-b7fd-4d703962e9e0",
        "meta": {
          "profile": [
            "http://hl7.eu/fhir/laboratory/StructureDefinition/Composition-eu-lab"
          ]
        },
        "identifier": {
          "assigner": {
            "display": "HL7 Europe"
          },
          "system": "urn:oid:2.16.840.1.113883.2.51.999",
          "value": "60442b39-428d-4091-9979-a130cf454a51"
        },
        "author": [
          {
            "reference": "urn:uuid:3cd8d9b5-ac06-472b-bf1c-4ef5b23aae03"
          }
        ],
        "category": [
          {
            "coding": [
              {
                "code": "26436-6",
                "system": "http://loinc.org",
                "display": "Laboratory studies (set)"
              }
            ]
          }
        ],
        "type": {
          "coding": [
            {
              "code": "11502-2",
              "system": "http://loinc.org",
              "display": "Laboratory report"
            }
          ],
          "text": "Laboratory Report"
        },
        "section": [
          {
            "code": {
              "coding": [
                {
                  "code": "26436-6",
                  "system": "http://loinc.org",
                  "display": "Laboratory studies (set)"
                }
              ],
              "text": "Laboratory studies"
            },
            "section": [
              {
                "code": {
                  "coding": [
                    {
                      "code": "$18719-5",
                      "system": "http://loinc.org",
                      "display": "Chemistry studies (set)"
                    }
                  ],
                  "text": "Chemistry"
                },
                "entry": [
                  {
                    "reference": "urn:uuid:3fcb989f-4518-46be-a121-f41050c9a2dd"
                  }
                ],
                "text": {
                  "status": "generated",
                  "div": "<div xmlns=\"http://www.w3.org/1999/xhtml\"><h3>Chemistry</h3><table class=\"hl7__eu__lab__report\"><thead><tr><th>Test</th><th>03-JUN-2020</th><th>Reference&#xA0;Range</th><th>Unit</th></tr></thead><tbody><tr><td>Hemoglobin.gastrointestinal.lower [Presence] in Stool by Immunoassay --1st specimen</td><td><strong>22.3 H</strong></td><td>0 - 0</td><td>ng/mL</td></tr></tbody></table></div>"
                },
                "title": "Chemistry"
              },
              {
                "code": {
                  "coding": [
                    {
                      "code": "$LP207911-1",
                      "system": "http://loinc.org",
                      "display": "Cancer pathology panel"
                    }
                  ],
                  "text": "Cancer pathology panel"
                },
                "entry": [
                  {
                    "reference": "urn:uuid:055f6c92-d200-4e6b-9570-ba038ee39f36"
                  }
                ],
                "text": {
                  "status": "generated",
                  "div": "<div xmlns=\"http://www.w3.org/1999/xhtml\"><h3>Cancer pathology panel</h3><table class=\"hl7__eu__lab__report\"><thead><tr><th>Test</th><th>03-JUN-2020</th><th>Reference&#xA0;Range</th><th>Unit</th></tr></thead><tbody><tr><td>Polyp size greatest dimension</td><td>3.4</td><td>0 - 20</td><td>mm</td></tr></tbody></table></div>"
                },
                "title": "Cancer pathology panel"
              }
            ],
            "title": "Laboratory Report"
          },
          {
            "text": {
              "status": "generated",
              "div": "<div xmlns=\"http://www.w3.org/1999/xhtml\"><h3>Annotation</h3><table class=\"hl7__eu__lab__report\"><tr><th>Conclusion and Recommendations based on this report and previous findings known to us</th></tr><tr><td>The patient&quot;s stool immunoassay is positive for hemoglobin, indicating gastrointestinal bleeding. The detected polyp is small (3.4 mm), but the presence of blood warrants further clinical evaluation to rule out significant gastrointestinal pathology. Correlation with clinical findings and possible endoscopic assessment is recommended.</td></tr></table></div>"
            },
            "code": {
              "coding": [
                {
                  "system": "http://loinc.org",
                  "code": "48767-8",
                  "display": "Annotation comment"
                }
              ]
            },
            "title": "Annotation comment"
          }
        ],
        "status": "final",
        "subject": {
          "reference": "urn:uuid:bab7e817-63b7-44e9-9331-0785d83af208",
          "display": "Martine Couturier"
        },
        "date": "2020-06-03T23:57:11Z",
        "title": "Laboratory Report",
        "confidentiality": "N"
      }
    },
    {
      "fullUrl": "urn:uuid:f683f011-66a5-452b-bbc7-e9fbdd8029b6",
      "resource": {
        "resourceType": "DiagnosticReport",
        "id": "f683f011-66a5-452b-bbc7-e9fbdd8029b6",
        "meta": {
          "profile": [
            "http://hl7.eu/fhir/laboratory/StructureDefinition/DiagnosticReport-eu-lab"
          ]
        },
        "identifier": [
          {
            "assigner": {
              "display": "HL7 Europe"
            },
            "system": "urn:oid:2.16.840.1.113883.2.51.999",
            "value": "c704b8fc-9eb8-4945-bd48-68079f742726"
          }
        ],
        "extension": [
          {
            "url": "http://hl7.org/fhir/5.0/StructureDefinition/extension-DiagnosticReport.composition",
            "valueReference": {
              "reference": "urn:uuid:60442b39-428d-4091-9979-a130cf454a51"
            }
          }
        ],
        "category": [
          {
            "coding": [
              {
                "code": "26436-6",
                "system": "http://loinc.org",
                "display": "Laboratory studies (set)"
              }
            ]
          }
        ],
        "specimen": [
          {
            "reference": "urn:uuid:5b200a37-f820-44b3-a321-4efe7962544b"
          },
          {
            "reference": "urn:uuid:f8124be4-b51c-4d46-93ae-2da8226b140a"
          }
        ],
        "result": [
          {
            "reference": "urn:uuid:055f6c92-d200-4e6b-9570-ba038ee39f36"
          },
          {
            "reference": "urn:uuid:3fcb989f-4518-46be-a121-f41050c9a2dd"
          }
        ],
        "status": "registered",
        "code": {
          "coding": [
            {
              "code": "11502-2",
              "system": "http://loinc.org",
              "display": "Laboratory report"
            }
          ]
        },
        "subject": {
          "reference": "urn:uuid:bab7e817-63b7-44e9-9331-0785d83af208",
          "display": "Martine Couturier"
        }
      }
    },
    {
      "fullUrl": "urn:uuid:bab7e817-63b7-44e9-9331-0785d83af208",
      "resource": {
        "resourceType": "Patient",
        "id": "bab7e817-63b7-44e9-9331-0785d83af208",
        "meta": {
          "security": [
            {
              "system": "http://terminology.hl7.org/CodeSystem/v3-ActReason",
              "code": "HTEST"
            },
            {
              "system": "http://terminology.hl7.org/CodeSystem/v3-ActReason",
              "code": "TRAIN"
            }
          ],
          "tag": [
            {
              "system": "https://synderai.net/fhir/CodeSystem/tags",
              "code": "synthetic",
              "display": "SYNDERAI Synthetic data"
            }
          ],
          "profile": [
            "http://hl7.eu/fhir/base/StructureDefinition/patient-eu-core"
          ]
        },
        "identifier": [
          {
            "type": {
              "coding": [
                {
                  "code": "PT",
                  "system": "http://terminology.hl7.org/CodeSystem/v2-0203"
                }
              ]
            },
            "system": "http://ec.europa.eu/identifier/eci",
            "value": "6614-983327-0"
          },
          {
            "type": {
              "coding": [
                {
                  "code": "MR",
                  "system": "http://terminology.hl7.org/CodeSystem/v2-0203"
                }
              ]
            },
            "system": "http://local.setting.eu/identifier",
            "value": "decdc04d-a1c8-929f-4aad-63136dd70efd"
          }
        ],
        "name": [
          {
            "family": "Couturier"
          },
          {
            "given": [
              "Martine"
            ]
          },
          {
            "text": "Martine Couturier"
          }
        ],
        "address": [
          {
            "line": [
              "458, rue de Bègue"
            ],
            "use": "home",
            "type": "physical",
            "postalCode": "03110",
            "city": "Boutin",
            "country": "France"
          }
        ],
        "telecom": [
          {
            "system": "phone",
            "value": "+33 4 11 66 35 81"
          }
        ],
        "extension": [
          {
            "url": "http://hl7.org/fhir/StructureDefinition/patient-nationality",
            "valueCodeableConcept": {
              "coding": [
                {
                  "code": "FR",
                  "system": "http://hl7.org/fhir/ValueSet/country"
                }
              ]
            }
          }
        ],
        "text": {
          "status": "generated",
          "div": "<div xmlns=\"http://www.w3.org/1999/xhtml\"><table class=\"hl7__ips\"><tr><td>Martine Couturier</td><td>female</td><td>13-Nov-1961</td></tr></table></div>"
        },
        "gender": "female",
        "birthDate": "1961-11-13"
      }
    },
    {
      "fullUrl": "urn:uuid:8df212b4-483b-4903-8db7-035a86cecdd8",
      "resource": {
        "resourceType": "ServiceRequest",
        "id": "8df212b4-483b-4903-8db7-035a86cecdd8",
        "meta": {
          "profile": [
            "http://hl7.eu/fhir/laboratory/StructureDefinition/ServiceRequest-eu-lab"
          ]
        },
        "identifier": [
          {
            "system": "http://example.org",
            "value": "97973e5e-a7b5-4282-bec3-67bc8d04a218"
          }
        ],
        "specimen": [
          {
            "reference": "urn:uuid:5b200a37-f820-44b3-a321-4efe7962544b"
          },
          {
            "reference": "urn:uuid:f8124be4-b51c-4d46-93ae-2da8226b140a"
          }
        ],
        "reasonCode": [
          {
            "coding": [
              {
                "code": "368581000119106",
                "system": "http://snomed.info/sct",
                "display": "Neuropathy due to type 2 diabetes mellitus"
              }
            ]
          },
          {
            "coding": [
              {
                "code": "302870006",
                "system": "http://snomed.info/sct",
                "display": "Hypertriglyceridemia"
              }
            ]
          },
          {
            "coding": [
              {
                "code": "44054006",
                "system": "http://snomed.info/sct",
                "display": "Type 2 diabetes mellitus"
              }
            ]
          },
          {
            "coding": [
              {
                "code": "237602007",
                "system": "http://snomed.info/sct",
                "display": "Metabolic syndrome X"
              }
            ]
          },
          {
            "coding": [
              {
                "code": "271737000",
                "system": "http://snomed.info/sct",
                "display": "Anemia"
              }
            ]
          },
          {
            "coding": [
              {
                "code": "15777000",
                "system": "http://snomed.info/sct",
                "display": "Prediabetes"
              }
            ]
          }
        ],
        "status": "active",
        "intent": "order",
        "code": {
          "coding": [
            {
              "code": "108252007",
              "system": "http://snomed.info/sct",
              "display": "Laboratory procedure"
            }
          ]
        },
        "subject": {
          "reference": "urn:uuid:bab7e817-63b7-44e9-9331-0785d83af208",
          "display": "Martine Couturier"
        },
        "requester": {
          "reference": "urn:uuid:8c55ca12-9515-4b4c-9483-2bbad925bc21"
        }
      }
    },
    {
      "fullUrl": "urn:uuid:8c55ca12-9515-4b4c-9483-2bbad925bc21",
      "resource": {
        "resourceType": "PractitionerRole",
        "id": "8c55ca12-9515-4b4c-9483-2bbad925bc21",
        "meta": {
          "profile": [
            "http://hl7.eu/fhir/base/StructureDefinition/practitionerRole-eu"
          ]
        },
        "text": {
          "status": "generated",
          "div": "<div xmlns=\"http://www.w3.org/1999/xhtml\">Provider Role Id: 8c55ca12-9515-4b4c-9483-2bbad925bc21</div>"
        },
        "organization": {
          "reference": "urn:uuid:ff92b038-8cbb-4bf2-b328-ceec435daaa3"
        }
      }
    },
    {
      "fullUrl": "urn:uuid:ff92b038-8cbb-4bf2-b328-ceec435daaa3",
      "resource": {
        "resourceType": "Organization",
        "id": "ff92b038-8cbb-4bf2-b328-ceec435daaa3",
        "meta": {
          "profile": [
            "http://hl7.eu/fhir/base/StructureDefinition/organization-eu"
          ]
        },
        "identifier": [
          {
            "assigner": {
              "display": "HL7 Europe"
            },
            "system": "urn:oid:2.16.840.1.113883.2.51.999",
            "value": "93fbea6a-a0c8-4f54-b158-9f2090b63bb7"
          }
        ],
        "address": [
          {
            "line": [
              "Boulevard Denière 1"
            ],
            "city": "Vichy",
            "postalCode": "03200",
            "country": "France"
          }
        ],
        "text": {
          "status": "generated",
          "div": "<div xmlns=\"http://www.w3.org/1999/xhtml\">Provider Organization: Centre hospitalier Jacques Lacarin</div>"
        },
        "name": "Centre hospitalier Jacques Lacarin"
      }
    },
    {
      "fullUrl": "urn:uuid:5b200a37-f820-44b3-a321-4efe7962544b",
      "resource": {
        "resourceType": "Specimen",
        "id": "5b200a37-f820-44b3-a321-4efe7962544b",
        "meta": {
          "profile": [
            "http://hl7.eu/fhir/laboratory/StructureDefinition/Specimen-eu-lab"
          ]
        },
        "collection": {
          "collectedDateTime": "2020-06-03"
        },
        "text": {
          "status": "generated",
          "div": "<div xmlns=\"http://www.w3.org/1999/xhtml\"><table class=\"hl7__eu__lab__report\"><tr><th>Specimen</th><th>Collection Date</th></tr><tr><td>Specimen (specimen)</td><td><span class=\"nb\">03-Jun-2020</span></td></tr></table></div>"
        },
        "type": {
          "coding": [
            {
              "code": "123038009",
              "system": "http://snomed.info/sct",
              "display": "Specimen (specimen)"
            }
          ]
        }
      }
    },
    {
      "fullUrl": "urn:uuid:f8124be4-b51c-4d46-93ae-2da8226b140a",
      "resource": {
        "resourceType": "Specimen",
        "id": "f8124be4-b51c-4d46-93ae-2da8226b140a",
        "meta": {
          "profile": [
            "http://hl7.eu/fhir/laboratory/StructureDefinition/Specimen-eu-lab"
          ]
        },
        "collection": {
          "collectedDateTime": "2020-06-03"
        },
        "text": {
          "status": "generated",
          "div": "<div xmlns=\"http://www.w3.org/1999/xhtml\"><table class=\"hl7__eu__lab__report\"><tr><th>Specimen</th><th>Collection Date</th></tr><tr><td>Feces specimen</td><td><span class=\"nb\">03-Jun-2020</span></td></tr></table></div>"
        },
        "type": {
          "coding": [
            {
              "code": "119339001",
              "system": "http://snomed.info/sct",
              "display": "Feces specimen"
            }
          ]
        }
      }
    },
    {
      "fullUrl": "urn:uuid:055f6c92-d200-4e6b-9570-ba038ee39f36",
      "resource": {
        "resourceType": "Observation",
        "id": "055f6c92-d200-4e6b-9570-ba038ee39f36",
        "meta": {
          "profile": [
            "http://hl7.eu/fhir/laboratory/StructureDefinition/Observation-resultslab-eu-lab"
          ]
        },
        "performer": [
          {
            "display": "The Central European Lab"
          }
        ],
        "category": [
          {
            "coding": [
              {
                "system": "http://terminology.hl7.org/CodeSystem/observation-category",
                "code": "laboratory"
              }
            ]
          }
        ],
        "code": {
          "coding": [
            {
              "code": "33756-8",
              "system": "http://loinc.org",
              "display": "Polyp size greatest dimension"
            }
          ],
          "text": "Polyp size greatest dimension"
        },
        "valueQuantity": {
          "system": "http://unitsofmeasure.org",
          "value": 3.4,
          "unit": "mm",
          "code": "mm"
        },
        "referenceRange": [
          {
            "low": {
              "value": 0,
              "code": "mm",
              "system": "http://unitsofmeasure.org"
            }
          },
          {
            "high": {
              "value": 20,
              "code": "mm",
              "system": "http://unitsofmeasure.org"
            }
          }
        ],
        "text": {
          "status": "generated",
          "div": "<div xmlns=\"http://www.w3.org/1999/xhtml\"><table class=\"hl7__eu__lab__report\"><tr><th>Test</th><th>03-Jun-2020</th><th>Reference&#xA0;Range</th><th>Unit</th></tr><tr><td>Polyp size greatest dimension</td><td>3.4</td><td>0 - 20</td><td></td><td>mm</td></tr></table></div>"
        },
        "status": "final",
        "subject": {
          "reference": "urn:uuid:bab7e817-63b7-44e9-9331-0785d83af208",
          "display": "Martine Couturier"
        },
        "effectiveDateTime": "2020-06-03T21:57:11Z",
        "specimen": {
          "reference": "urn:uuid:5b200a37-f820-44b3-a321-4efe7962544b"
        }
      }
    },
    {
      "fullUrl": "urn:uuid:3fcb989f-4518-46be-a121-f41050c9a2dd",
      "resource": {
        "resourceType": "Observation",
        "id": "3fcb989f-4518-46be-a121-f41050c9a2dd",
        "meta": {
          "profile": [
            "http://hl7.eu/fhir/laboratory/StructureDefinition/Observation-resultslab-eu-lab"
          ]
        },
        "performer": [
          {
            "display": "The Central European Lab"
          }
        ],
        "category": [
          {
            "coding": [
              {
                "system": "http://terminology.hl7.org/CodeSystem/observation-category",
                "code": "laboratory"
              }
            ]
          }
        ],
        "code": {
          "coding": [
            {
              "code": "57905-2",
              "system": "http://loinc.org",
              "display": "Hemoglobin.gastrointestinal.lower [Presence] in Stool by Immunoassay --1st specimen"
            }
          ],
          "text": "Hemoglobin.gastrointestinal.lower [Presence] in Stool by Immunoassay --1st specimen"
        },
        "valueQuantity": {
          "system": "http://unitsofmeasure.org",
          "value": 22.3,
          "unit": "ng/mL",
          "code": "ng/mL"
        },
        "referenceRange": [
          {
            "low": {
              "value": 0,
              "code": "ng/mL",
              "system": "http://unitsofmeasure.org"
            }
          },
          {
            "high": {
              "value": 0,
              "code": "ng/mL",
              "system": "http://unitsofmeasure.org"
            }
          }
        ],
        "interpretation": [
          {
            "coding": [
              {
                "code": "H",
                "system": "http://terminology.hl7.org/CodeSystem/v3-ObservationInterpretation",
                "display": "High"
              }
            ]
          }
        ],
        "text": {
          "status": "generated",
          "div": "<div xmlns=\"http://www.w3.org/1999/xhtml\"><table class=\"hl7__eu__lab__report\"><tr><th>Test</th><th>03-Jun-2020</th><th>Reference&#xA0;Range</th><th>Unit</th></tr><tr><td>Hemoglobin.gastrointestinal.lower [Presence] in Stool by Immunoassay --1st specimen</td><td>22.3</td><td>0 - 0</td><td>H</td><td>ng/mL</td></tr></table></div>"
        },
        "status": "final",
        "subject": {
          "reference": "urn:uuid:bab7e817-63b7-44e9-9331-0785d83af208",
          "display": "Martine Couturier"
        },
        "effectiveDateTime": "2020-06-03T21:57:11Z",
        "specimen": {
          "reference": "urn:uuid:f8124be4-b51c-4d46-93ae-2da8226b140a"
        }
      }
    },
    {
      "fullUrl": "urn:uuid:a0eedf9e-58c0-449f-851e-9cfdff306baa",
      "resource": {
        "resourceType": "Device",
        "id": "a0eedf9e-58c0-449f-851e-9cfdff306baa",
        "deviceName": [
          {
            "name": "SYNDERAI Synthetic Generator",
            "type": "manufacturer-name"
          }
        ],
        "version": [
          {
            "value": "5.0"
          }
        ],
        "text": {
          "status": "generated",
          "div": "<div xmlns=\"http://www.w3.org/1999/xhtml\">SYNDERAI Synthetic Generator v5.0</div>"
        },
        "status": "active\"",
        "distinctIdentifier": "synderai-generator-50",
        "manufacturer": "SYNDERAI Project"
      }
    },
    {
      "fullUrl": "urn:uuid:b6a902dd-3382-413c-b928-1bde1bfc236a",
      "resource": {
        "resourceType": "Provenance",
        "id": "b6a902dd-3382-413c-b928-1bde1bfc236a",
        "target": [
          {
            "reference": "Patient/bab7e817-63b7-44e9-9331-0785d83af208"
          },
          {
            "reference": "Bundle/260efb53-76e9-4e11-8459-23d0dcc909ec"
          },
          {
            "reference": "Composition/b5b7412b-c413-485b-b7fd-4d703962e9e0"
          },
          {
            "reference": "PractitionerRole/3cd8d9b5-ac06-472b-bf1c-4ef5b23aae03"
          },
          {
            "reference": "Practitioner/d2f8eea7-d31f-4417-9c33-89f48ecbcd46"
          },
          {
            "reference": "PractitionerRole/8c55ca12-9515-4b4c-9483-2bbad925bc21"
          },
          {
            "reference": "Organization/ff92b038-8cbb-4bf2-b328-ceec435daaa3"
          }
        ],
        "activity": {
          "text": "Synthetic Example Data Generation"
        },
        "policy": [
          "https://synderai.net/synderai-synthetic-data-policy"
        ],
        "agent": [
          {
            "type": {
              "text": "author"
            },
            "who": {
              "reference": "Device/a0eedf9e-58c0-449f-851e-9cfdff306baa"
            }
          }
        ],
        "reason": [
          {
            "text": "Interoperability Testing and Training (non-clinical use)"
          }
        ],
        "text": {
          "status": "generated",
          "div": "<div xmlns=\"http://www.w3.org/1999/xhtml\">Provenance for SYNDERAI Synthetic Example Data Resource</div>"
        },
        "recorded": "2020-06-03T23:57:11Z"
      }
    },
    {
      "fullUrl": "urn:uuid:3cd8d9b5-ac06-472b-bf1c-4ef5b23aae03",
      "resource": {
        "resourceType": "PractitionerRole",
        "id": "3cd8d9b5-ac06-472b-bf1c-4ef5b23aae03",
        "meta": {
          "profile": [
            "http://hl7.eu/fhir/base/StructureDefinition/practitionerRole-eu"
          ]
        },
        "text": {
          "status": "generated",
          "div": "<div xmlns=\"http://www.w3.org/1999/xhtml\">Laboratory Role Id: 3cd8d9b5-ac06-472b-bf1c-4ef5b23aae03</div>"
        },
        "practitioner": {
          "reference": "urn:uuid:d2f8eea7-d31f-4417-9c33-89f48ecbcd46"
        }
      }
    },
    {
      "fullUrl": "urn:uuid:d2f8eea7-d31f-4417-9c33-89f48ecbcd46",
      "resource": {
        "resourceType": "Practitioner",
        "id": "d2f8eea7-d31f-4417-9c33-89f48ecbcd46",
        "meta": {
          "profile": [
            "http://hl7.eu/fhir/base/StructureDefinition/practitioner-eu"
          ]
        },
        "identifier": [
          {
            "assigner": {
              "display": "HL7 Europe"
            },
            "system": "urn:oid:2.16.840.1.113883.2.51.999",
            "value": "54cae524-21b4-476e-ad04-00ae64eca1c3"
          }
        ],
        "name": [
          {
            "prefix": [
              "dr"
            ],
            "given": [
              "Ex"
            ],
            "family": "Ample"
          }
        ],
        "address": [
          {
            "line": [
              "Laboratoire Central Européenne",
              "Boulevard du Jardin Botanique 32"
            ],
            "postalCode": "1000",
            "city": "Brussels",
            "country": "Belgium"
          }
        ],
        "text": {
          "status": "generated",
          "div": "<div xmlns=\"http://www.w3.org/1999/xhtml\">Laboratory: Laboratoire Central Européenne, 1000 Brussels, Belgium</div>"
        }
      }
    }
  ],
  "type": "document",
  "timestamp": "2020-06-03T23:57:11Z"
}
