{
  "resourceType": "Bundle",
  "id": "facfda11-3ec0-4c4a-a2cf-3ee64af76e15",
  "meta": {
    "profile": [
      "http://hl7.eu/fhir/laboratory/StructureDefinition/Bundle-eu-lab"
    ]
  },
  "identifier": {
    "assigner": {
      "display": "HL7 Europe"
    },
    "system": "urn:oid:2.16.840.1.113883.2.51.999",
    "value": "e0da4184-946a-4848-a0f2-50ebc902da7e"
  },
  "entry": [
    {
      "fullUrl": "urn:uuid:c4314e25-decc-4dfa-9e31-2de2bcf8d06c",
      "resource": {
        "resourceType": "Composition",
        "id": "c4314e25-decc-4dfa-9e31-2de2bcf8d06c",
        "meta": {
          "profile": [
            "http://hl7.eu/fhir/laboratory/StructureDefinition/Composition-eu-lab"
          ]
        },
        "identifier": {
          "assigner": {
            "display": "HL7 Europe"
          },
          "system": "urn:oid:2.16.840.1.113883.2.51.999",
          "value": "5f9ec8dc-0c6c-45ff-afd9-7c93e6a65abf"
        },
        "author": [
          {
            "reference": "urn:uuid:64f83117-34b8-46e2-8d5f-b189fdba51af"
          }
        ],
        "category": [
          {
            "coding": [
              {
                "code": "26436-6",
                "system": "http://loinc.org",
                "display": "Laboratory studies (set)"
              }
            ]
          }
        ],
        "type": {
          "coding": [
            {
              "code": "11502-2",
              "system": "http://loinc.org",
              "display": "Laboratory report"
            }
          ],
          "text": "Laboratory Report"
        },
        "section": [
          {
            "code": {
              "coding": [
                {
                  "code": "26436-6",
                  "system": "http://loinc.org",
                  "display": "Laboratory studies (set)"
                }
              ],
              "text": "Laboratory studies"
            },
            "section": [
              {
                "code": {
                  "coding": [
                    {
                      "code": "$18719-5",
                      "system": "http://loinc.org",
                      "display": "Chemistry studies (set)"
                    }
                  ],
                  "text": "Chemistry"
                },
                "entry": [
                  {
                    "reference": "urn:uuid:72a1a518-58da-48fc-9ed2-6d793139fd42"
                  },
                  {
                    "reference": "urn:uuid:7439e235-ae9b-4234-852c-89b9c2c88448"
                  },
                  {
                    "reference": "urn:uuid:f9771c8c-38f1-4572-85fe-cf7d3e6fa6d0"
                  },
                  {
                    "reference": "urn:uuid:4d31de19-2b5b-4cca-9edd-fd0cb916acc5"
                  },
                  {
                    "reference": "urn:uuid:d9dff4ac-c9cf-4bb0-bfac-5b644b16ebb1"
                  },
                  {
                    "reference": "urn:uuid:266b54fe-e5e3-4086-9415-ed70aabd7fc2"
                  },
                  {
                    "reference": "urn:uuid:d277324a-409d-4de8-b8fb-8e7a38963ebf"
                  },
                  {
                    "reference": "urn:uuid:62a79a01-f7a8-465e-b48a-ccb4d98b2164"
                  },
                  {
                    "reference": "urn:uuid:84b846de-e92b-4676-9dc6-d8f603631583"
                  },
                  {
                    "reference": "urn:uuid:3faf84e1-eeae-43c0-ba97-ce4c222f4fb1"
                  },
                  {
                    "reference": "urn:uuid:5ef33527-14c5-448f-9b3c-f09364b88b62"
                  },
                  {
                    "reference": "urn:uuid:63bdc734-2e05-4061-9c04-fd615e39d29b"
                  },
                  {
                    "reference": "urn:uuid:9e9616f7-4b3c-429f-9cde-ccb141b994b4"
                  },
                  {
                    "reference": "urn:uuid:ae0e1c88-4d98-45e4-9744-3a95ce91b8f9"
                  },
                  {
                    "reference": "urn:uuid:8c71f880-04d6-47e9-a150-217a68949b14"
                  },
                  {
                    "reference": "urn:uuid:b10a932f-70d6-4a3a-bd64-3b3df3718b5c"
                  },
                  {
                    "reference": "urn:uuid:f6879667-11a6-41b1-8bce-4dadfa557ddb"
                  },
                  {
                    "reference": "urn:uuid:c830fbe8-1026-4296-ad24-d7ca7db9455e"
                  }
                ],
                "text": {
                  "status": "generated",
                  "div": "<div xmlns=\"http://www.w3.org/1999/xhtml\"><h3>Chemistry</h3><table class=\"hl7__eu__lab__report\"><thead><tr><th>Test</th><th>28-MAR-2024</th><th>Reference&#xA0;Range</th><th>Unit</th></tr></thead><tbody><tr><td>Glucose [Mass/volume] in Serum or Plasma</td><td>91.0</td><td>70 - 140</td><td>mg/dL</td></tr><tr><td>Urea nitrogen [Mass/volume] in Serum or Plasma</td><td>13.2</td><td>7 - 25</td><td>mg/dL</td></tr><tr><td>Creatinine [Mass/volume] in Serum or Plasma</td><td><strong>2.0 H</strong></td><td>0.9 - 1.3</td><td>mg/dL</td></tr><tr><td>Calcium [Mass/volume] in Serum or Plasma</td><td>9.7</td><td>8.5 - 10.5</td><td>mg/dL</td></tr><tr><td>Sodium [Moles/volume] in Serum or Plasma</td><td>139.0</td><td>135 - 145</td><td>mmol/L</td></tr><tr><td>Potassium [Moles/volume] in Serum or Plasma</td><td>3.9</td><td>3.5 - 5.3</td><td>mmol/L</td></tr><tr><td>Chloride [Moles/volume] in Serum or Plasma</td><td><strong>110.4 H</strong></td><td>98 - 107</td><td>mmol/L</td></tr><tr><td>Carbon dioxide, total [Moles/volume] in Serum or Plasma</td><td>23.0</td><td>22 - 29</td><td>mmol/L</td></tr><tr><td>Ketones [Presence] in Urine by Test strip</td><td>Urine ketone test = +</td><td></td><td></td></tr><tr><td>Hemoglobin A1c/Hemoglobin.total in Blood</td><td><strong>3.0 L</strong></td><td>4.5 - 6.4</td><td>%</td></tr><tr><td>Glucose [Mass/volume] in Blood</td><td>91.0</td><td>70 - 140</td><td>mg/dL</td></tr><tr><td>Urea nitrogen [Mass/volume] in Blood</td><td>13.2</td><td>7 - 25</td><td>mg/dL</td></tr><tr><td>Creatinine [Mass/volume] in Blood</td><td><strong>1.9 H</strong></td><td>0.9 - 1.3</td><td>mg/dL</td></tr><tr><td>Calcium [Mass/volume] in Blood</td><td>9.7</td><td>8.6 - 10.2</td><td>mg/dL</td></tr><tr><td>Sodium [Moles/volume] in Blood</td><td>139.0</td><td>135 - 145</td><td>mmol/L</td></tr><tr><td>Potassium [Moles/volume] in Blood</td><td>3.9</td><td>3.5 - 5.1</td><td>mmol/L</td></tr><tr><td>Chloride [Moles/volume] in Blood</td><td><strong>110.4 H</strong></td><td>98 - 108</td><td>mmol/L</td></tr><tr><td>Carbon dioxide, total [Moles/volume] in Blood</td><td>23.0</td><td>22 - 32</td><td>mmol/L</td></tr></tbody></table></div>"
                },
                "title": "Chemistry"
              },
              {
                "code": {
                  "coding": [
                    {
                      "code": "$18729-4",
                      "system": "http://loinc.org",
                      "display": "Urinalysis studies (set)"
                    }
                  ],
                  "text": "Urinalysis"
                },
                "entry": [
                  {
                    "reference": "urn:uuid:d02d2583-2ecc-45e8-99b0-89e34b8b8c00"
                  },
                  {
                    "reference": "urn:uuid:412679f9-deef-4cca-99c0-75791a3c2e59"
                  },
                  {
                    "reference": "urn:uuid:6685283a-2d14-483e-93dd-27a3f9717eae"
                  },
                  {
                    "reference": "urn:uuid:a8823bfc-836c-461f-8242-eb09f5b47600"
                  },
                  {
                    "reference": "urn:uuid:6a430a37-8494-4834-bf4b-e8d89a8eb2c5"
                  },
                  {
                    "reference": "urn:uuid:fb065592-c78c-4c23-8122-359bd123646e"
                  },
                  {
                    "reference": "urn:uuid:6012a0e9-aa02-452d-9d6d-03de14dc8ee3"
                  },
                  {
                    "reference": "urn:uuid:5c453e5e-240f-4e27-8e10-b889056c5d62"
                  },
                  {
                    "reference": "urn:uuid:855dc3ef-96d1-4bba-9384-77f2df155768"
                  },
                  {
                    "reference": "urn:uuid:ae110fd6-4ec8-4257-9634-ca9a9cb199da"
                  },
                  {
                    "reference": "urn:uuid:2424bbab-44fb-4403-be28-ecc0d380a1af"
                  },
                  {
                    "reference": "urn:uuid:16444659-720d-45b6-b78d-395900bc0230"
                  }
                ],
                "text": {
                  "status": "generated",
                  "div": "<div xmlns=\"http://www.w3.org/1999/xhtml\"><h3>Urinalysis</h3><table class=\"hl7__eu__lab__report\"><thead><tr><th>Test</th><th>28-MAR-2024</th><th>Reference&#xA0;Range</th><th>Unit</th></tr></thead><tbody><tr><td>Glucose [Mass/volume] in Urine by Test strip</td><td><strong>2.0 H</strong></td><td>0.8 - 0</td><td>mg/dL</td></tr><tr><td>Glucose [Presence] in Urine by Test strip</td><td>++</td><td></td><td></td></tr><tr><td>Bilirubin.total [Mass/volume] in Urine by Test strip</td><td>1.0</td><td>0.2 - 1.5</td><td>mg/dL</td></tr><tr><td>Bilirubin.total [Presence] in Urine by Test strip</td><td>Finding of bilirubin in urine</td><td></td><td></td></tr><tr><td>Ketones [Mass/volume] in Urine by Test strip</td><td><strong>11.4 H</strong></td><td>0 - 4</td><td>mg/dL</td></tr><tr><td>Specific gravity of Urine by Test strip</td><td><strong>1.0 L</strong></td><td>1.01 - 1.03</td><td>{nominal}</td></tr><tr><td>pH of Urine by Test strip</td><td>6.7</td><td>4.5 - 7.5</td><td>pH</td></tr><tr><td>Protein [Mass/volume] in Urine by Test strip</td><td><strong>346.2 H</strong></td><td>0 - 150</td><td>mg/dL</td></tr><tr><td>Protein [Presence] in Urine by Test strip</td><td>Urine protein test = ++</td><td></td><td></td></tr><tr><td>Nitrite [Presence] in Urine by Test strip</td><td>Urine nitrite negative</td><td></td><td></td></tr><tr><td>Hemoglobin [Presence] in Urine by Test strip</td><td>Urine blood test = negative</td><td></td><td></td></tr><tr><td>Leukocyte esterase [Presence] in Urine by Test strip</td><td>Urine leukocyte test negative</td><td></td><td></td></tr></tbody></table></div>"
                },
                "title": "Urinalysis"
              },
              {
                "code": {
                  "coding": [
                    {
                      "code": "$LP7846-1",
                      "system": "http://loinc.org",
                      "display": "Specimen information"
                    }
                  ],
                  "text": "Specimen information"
                },
                "entry": [
                  {
                    "reference": "urn:uuid:15b8fa54-f53f-4269-96bc-73ac8e43e5ec"
                  },
                  {
                    "reference": "urn:uuid:9476641a-facb-4136-9215-f35361843cca"
                  },
                  {
                    "reference": "urn:uuid:2386092d-ff6b-4766-954e-6caff670fdd0"
                  },
                  {
                    "reference": "urn:uuid:73984405-25c8-4ed0-9ea0-9bb1218e1fce"
                  }
                ],
                "text": {
                  "status": "generated",
                  "div": "<div xmlns=\"http://www.w3.org/1999/xhtml\"><h3>Specimen information</h3><table class=\"hl7__eu__lab__report\"><thead><tr><th>Test</th><th>28-MAR-2024</th><th>Specimen</th><th></th></tr></thead><tbody><tr><td>Appearance of Urine</td><td>Cloudy urine</td><td>Urine</td><td></td></tr><tr><td>Odor of Urine</td><td>Urine smell ammoniacal</td><td>Urine</td><td></td></tr><tr><td>Clarity of Urine</td><td>Translucent</td><td>Urine</td><td></td></tr><tr><td>Color of Urine</td><td>Brown color</td><td>Urine</td><td></td></tr></tbody></table></div>"
                },
                "title": "Specimen information"
              }
            ],
            "title": "Laboratory Report"
          },
          {
            "text": {
              "status": "generated",
              "div": "<div xmlns=\"http://www.w3.org/1999/xhtml\"><h3>Annotation</h3><table class=\"hl7__eu__lab__report\"><tr><th>Conclusion and Recommendations based on this report and previous findings known to us</th></tr><tr><td>The patient shows elevated creatinine, suggesting impaired renal function, and high chloride. Urinalysis reveals proteinuria, glycosuria, ketonuria, low specific gravity, and abnormal urine appearance (cloudy, brown, ammoniacal), but no evidence of infection. Low HbA1c with normal blood glucose may indicate recent hypoglycemia or anemia. Findings are consistent with possible diabetic nephropathy or another renal pathology; further clinical correlation and nephrology evaluation are recommended.</td></tr></table></div>"
            },
            "code": {
              "coding": [
                {
                  "system": "http://loinc.org",
                  "code": "48767-8",
                  "display": "Annotation comment"
                }
              ]
            },
            "title": "Annotation comment"
          }
        ],
        "status": "final",
        "subject": {
          "reference": "urn:uuid:64c7b8bb-0866-42cc-9ff2-2478ecdb64c4",
          "display": "Pelayo Casal"
        },
        "date": "2024-03-28T06:38:59Z",
        "title": "Laboratory Report",
        "confidentiality": "N"
      }
    },
    {
      "fullUrl": "urn:uuid:b2e5863e-ee4b-40cd-a48b-a1c7fa198110",
      "resource": {
        "resourceType": "DiagnosticReport",
        "id": "b2e5863e-ee4b-40cd-a48b-a1c7fa198110",
        "meta": {
          "profile": [
            "http://hl7.eu/fhir/laboratory/StructureDefinition/DiagnosticReport-eu-lab"
          ]
        },
        "identifier": [
          {
            "assigner": {
              "display": "HL7 Europe"
            },
            "system": "urn:oid:2.16.840.1.113883.2.51.999",
            "value": "5fb7e221-882c-421c-8a23-05a62914a26e"
          }
        ],
        "extension": [
          {
            "url": "http://hl7.org/fhir/5.0/StructureDefinition/extension-DiagnosticReport.composition",
            "valueReference": {
              "reference": "urn:uuid:5f9ec8dc-0c6c-45ff-afd9-7c93e6a65abf"
            }
          }
        ],
        "category": [
          {
            "coding": [
              {
                "code": "26436-6",
                "system": "http://loinc.org",
                "display": "Laboratory studies (set)"
              }
            ]
          }
        ],
        "specimen": [
          {
            "reference": "urn:uuid:f53124d9-0f61-4ee2-9250-b79ceb9fe09f"
          },
          {
            "reference": "urn:uuid:f60c1a64-0c81-48ba-a9fe-8ee49abe3485"
          },
          {
            "reference": "urn:uuid:5b00e993-a213-4585-bdd5-b04791d4b07f"
          }
        ],
        "result": [
          {
            "reference": "urn:uuid:72a1a518-58da-48fc-9ed2-6d793139fd42"
          },
          {
            "reference": "urn:uuid:7439e235-ae9b-4234-852c-89b9c2c88448"
          },
          {
            "reference": "urn:uuid:f9771c8c-38f1-4572-85fe-cf7d3e6fa6d0"
          },
          {
            "reference": "urn:uuid:4d31de19-2b5b-4cca-9edd-fd0cb916acc5"
          },
          {
            "reference": "urn:uuid:d9dff4ac-c9cf-4bb0-bfac-5b644b16ebb1"
          },
          {
            "reference": "urn:uuid:266b54fe-e5e3-4086-9415-ed70aabd7fc2"
          },
          {
            "reference": "urn:uuid:d277324a-409d-4de8-b8fb-8e7a38963ebf"
          },
          {
            "reference": "urn:uuid:62a79a01-f7a8-465e-b48a-ccb4d98b2164"
          },
          {
            "reference": "urn:uuid:15b8fa54-f53f-4269-96bc-73ac8e43e5ec"
          },
          {
            "reference": "urn:uuid:9476641a-facb-4136-9215-f35361843cca"
          },
          {
            "reference": "urn:uuid:2386092d-ff6b-4766-954e-6caff670fdd0"
          },
          {
            "reference": "urn:uuid:73984405-25c8-4ed0-9ea0-9bb1218e1fce"
          },
          {
            "reference": "urn:uuid:d02d2583-2ecc-45e8-99b0-89e34b8b8c00"
          },
          {
            "reference": "urn:uuid:412679f9-deef-4cca-99c0-75791a3c2e59"
          },
          {
            "reference": "urn:uuid:6685283a-2d14-483e-93dd-27a3f9717eae"
          },
          {
            "reference": "urn:uuid:a8823bfc-836c-461f-8242-eb09f5b47600"
          },
          {
            "reference": "urn:uuid:6a430a37-8494-4834-bf4b-e8d89a8eb2c5"
          },
          {
            "reference": "urn:uuid:84b846de-e92b-4676-9dc6-d8f603631583"
          },
          {
            "reference": "urn:uuid:fb065592-c78c-4c23-8122-359bd123646e"
          },
          {
            "reference": "urn:uuid:6012a0e9-aa02-452d-9d6d-03de14dc8ee3"
          },
          {
            "reference": "urn:uuid:5c453e5e-240f-4e27-8e10-b889056c5d62"
          },
          {
            "reference": "urn:uuid:855dc3ef-96d1-4bba-9384-77f2df155768"
          },
          {
            "reference": "urn:uuid:ae110fd6-4ec8-4257-9634-ca9a9cb199da"
          },
          {
            "reference": "urn:uuid:2424bbab-44fb-4403-be28-ecc0d380a1af"
          },
          {
            "reference": "urn:uuid:16444659-720d-45b6-b78d-395900bc0230"
          },
          {
            "reference": "urn:uuid:3faf84e1-eeae-43c0-ba97-ce4c222f4fb1"
          },
          {
            "reference": "urn:uuid:5ef33527-14c5-448f-9b3c-f09364b88b62"
          },
          {
            "reference": "urn:uuid:63bdc734-2e05-4061-9c04-fd615e39d29b"
          },
          {
            "reference": "urn:uuid:9e9616f7-4b3c-429f-9cde-ccb141b994b4"
          },
          {
            "reference": "urn:uuid:ae0e1c88-4d98-45e4-9744-3a95ce91b8f9"
          },
          {
            "reference": "urn:uuid:8c71f880-04d6-47e9-a150-217a68949b14"
          },
          {
            "reference": "urn:uuid:b10a932f-70d6-4a3a-bd64-3b3df3718b5c"
          },
          {
            "reference": "urn:uuid:f6879667-11a6-41b1-8bce-4dadfa557ddb"
          },
          {
            "reference": "urn:uuid:c830fbe8-1026-4296-ad24-d7ca7db9455e"
          }
        ],
        "status": "registered",
        "code": {
          "coding": [
            {
              "code": "11502-2",
              "system": "http://loinc.org",
              "display": "Laboratory report"
            }
          ]
        },
        "subject": {
          "reference": "urn:uuid:64c7b8bb-0866-42cc-9ff2-2478ecdb64c4",
          "display": "Pelayo Casal"
        }
      }
    },
    {
      "fullUrl": "urn:uuid:64c7b8bb-0866-42cc-9ff2-2478ecdb64c4",
      "resource": {
        "resourceType": "Patient",
        "id": "64c7b8bb-0866-42cc-9ff2-2478ecdb64c4",
        "meta": {
          "security": [
            {
              "system": "http://terminology.hl7.org/CodeSystem/v3-ActReason",
              "code": "HTEST"
            },
            {
              "system": "http://terminology.hl7.org/CodeSystem/v3-ActReason",
              "code": "TRAIN"
            }
          ],
          "tag": [
            {
              "system": "https://synderai.net/fhir/CodeSystem/tags",
              "code": "synthetic",
              "display": "SYNDERAI Synthetic data"
            }
          ],
          "profile": [
            "http://hl7.eu/fhir/base/StructureDefinition/patient-eu-core"
          ]
        },
        "identifier": [
          {
            "type": {
              "coding": [
                {
                  "code": "PT",
                  "system": "http://terminology.hl7.org/CodeSystem/v2-0203"
                }
              ]
            },
            "system": "http://ec.europa.eu/identifier/eci",
            "value": "7707-510028-7"
          },
          {
            "type": {
              "coding": [
                {
                  "code": "MR",
                  "system": "http://terminology.hl7.org/CodeSystem/v2-0203"
                }
              ]
            },
            "system": "http://local.setting.eu/identifier",
            "value": "d88e82c6-df33-82d2-8538-f8b57da06491"
          }
        ],
        "name": [
          {
            "family": "Casal"
          },
          {
            "given": [
              "Pelayo"
            ]
          },
          {
            "text": "Pelayo Casal"
          }
        ],
        "address": [
          {
            "line": [
              "Callejón de Ignacio Pedrosa 67 Apt. 68 "
            ],
            "use": "home",
            "type": "physical",
            "postalCode": "35001",
            "city": "Las Palmas",
            "country": "Spain"
          }
        ],
        "telecom": [
          {
            "system": "phone",
            "value": "+34 875724898"
          }
        ],
        "extension": [
          {
            "url": "http://hl7.org/fhir/StructureDefinition/patient-nationality",
            "valueCodeableConcept": {
              "coding": [
                {
                  "code": "ES",
                  "system": "http://hl7.org/fhir/ValueSet/country"
                }
              ]
            }
          }
        ],
        "text": {
          "status": "generated",
          "div": "<div xmlns=\"http://www.w3.org/1999/xhtml\"><table class=\"hl7__ips\"><tr><td>Pelayo Casal</td><td>male</td><td>19-Apr-1940</td></tr></table></div>"
        },
        "gender": "male",
        "birthDate": "1940-04-19"
      }
    },
    {
      "fullUrl": "urn:uuid:f1f3f2c7-2fae-4acd-8567-de5d96c1616d",
      "resource": {
        "resourceType": "ServiceRequest",
        "id": "f1f3f2c7-2fae-4acd-8567-de5d96c1616d",
        "meta": {
          "profile": [
            "http://hl7.eu/fhir/laboratory/StructureDefinition/ServiceRequest-eu-lab"
          ]
        },
        "identifier": [
          {
            "system": "http://example.org",
            "value": "50851b4d-3833-48f6-9b69-5a8e19933aa9"
          }
        ],
        "specimen": [
          {
            "reference": "urn:uuid:f53124d9-0f61-4ee2-9250-b79ceb9fe09f"
          },
          {
            "reference": "urn:uuid:f60c1a64-0c81-48ba-a9fe-8ee49abe3485"
          },
          {
            "reference": "urn:uuid:5b00e993-a213-4585-bdd5-b04791d4b07f"
          }
        ],
        "reasonCode": [
          {
            "coding": [
              {
                "code": "431856006",
                "system": "http://snomed.info/sct",
                "display": "Chronic kidney disease stage 2"
              }
            ]
          },
          {
            "coding": [
              {
                "code": "90781000119102",
                "system": "http://snomed.info/sct",
                "display": "Microalbuminuria due to type 2 diabetes mellitus"
              }
            ]
          },
          {
            "coding": [
              {
                "code": "127013003",
                "system": "http://snomed.info/sct",
                "display": "Disorder of kidney due to diabetes mellitus"
              }
            ]
          },
          {
            "coding": [
              {
                "code": "431855005",
                "system": "http://snomed.info/sct",
                "display": "Chronic kidney disease stage 1"
              }
            ]
          },
          {
            "coding": [
              {
                "code": "64859006",
                "system": "http://snomed.info/sct",
                "display": "Osteoporosis"
              }
            ]
          },
          {
            "coding": [
              {
                "code": "414545008",
                "system": "http://snomed.info/sct",
                "display": "Ischemic heart disease"
              }
            ]
          },
          {
            "coding": [
              {
                "code": "237602007",
                "system": "http://snomed.info/sct",
                "display": "Metabolic syndrome X"
              }
            ]
          },
          {
            "coding": [
              {
                "code": "59621000",
                "system": "http://snomed.info/sct",
                "display": "Essential hypertension"
              }
            ]
          },
          {
            "coding": [
              {
                "code": "271737000",
                "system": "http://snomed.info/sct",
                "display": "Anemia"
              }
            ]
          },
          {
            "coding": [
              {
                "code": "15777000",
                "system": "http://snomed.info/sct",
                "display": "Prediabetes"
              }
            ]
          }
        ],
        "status": "active",
        "intent": "order",
        "code": {
          "coding": [
            {
              "code": "108252007",
              "system": "http://snomed.info/sct",
              "display": "Laboratory procedure"
            }
          ]
        },
        "subject": {
          "reference": "urn:uuid:64c7b8bb-0866-42cc-9ff2-2478ecdb64c4",
          "display": "Pelayo Casal"
        },
        "requester": {
          "reference": "urn:uuid:08b57ff5-0403-44c3-9304-9586a84f4c1f"
        }
      }
    },
    {
      "fullUrl": "urn:uuid:08b57ff5-0403-44c3-9304-9586a84f4c1f",
      "resource": {
        "resourceType": "PractitionerRole",
        "id": "08b57ff5-0403-44c3-9304-9586a84f4c1f",
        "meta": {
          "profile": [
            "http://hl7.eu/fhir/base/StructureDefinition/practitionerRole-eu"
          ]
        },
        "text": {
          "status": "generated",
          "div": "<div xmlns=\"http://www.w3.org/1999/xhtml\">Provider Role Id: 08b57ff5-0403-44c3-9304-9586a84f4c1f</div>"
        },
        "organization": {
          "reference": "urn:uuid:7c156393-ac92-4754-bd62-93a5bfe123b5"
        }
      }
    },
    {
      "fullUrl": "urn:uuid:7c156393-ac92-4754-bd62-93a5bfe123b5",
      "resource": {
        "resourceType": "Organization",
        "id": "7c156393-ac92-4754-bd62-93a5bfe123b5",
        "meta": {
          "profile": [
            "http://hl7.eu/fhir/base/StructureDefinition/organization-eu"
          ]
        },
        "identifier": [
          {
            "assigner": {
              "display": "HL7 Europe"
            },
            "system": "urn:oid:2.16.840.1.113883.2.51.999",
            "value": "8e28d01b-5563-48ae-868a-6f033de6eb6f"
          }
        ],
        "address": [
          {
            "country": "Spain"
          }
        ],
        "text": {
          "status": "generated",
          "div": "<div xmlns=\"http://www.w3.org/1999/xhtml\">Provider Organization: Centro de Salud de Guanarteme</div>"
        },
        "name": "Centro de Salud de Guanarteme"
      }
    },
    {
      "fullUrl": "urn:uuid:f53124d9-0f61-4ee2-9250-b79ceb9fe09f",
      "resource": {
        "resourceType": "Specimen",
        "id": "f53124d9-0f61-4ee2-9250-b79ceb9fe09f",
        "meta": {
          "profile": [
            "http://hl7.eu/fhir/laboratory/StructureDefinition/Specimen-eu-lab"
          ]
        },
        "collection": {
          "collectedDateTime": "2024-03-28"
        },
        "text": {
          "status": "generated",
          "div": "<div xmlns=\"http://www.w3.org/1999/xhtml\"><table class=\"hl7__eu__lab__report\"><tr><th>Specimen</th><th>Collection Date</th></tr><tr><td>Acellular blood (serum or plasma) specimen</td><td><span class=\"nb\">28-Mar-2024</span></td></tr></table></div>"
        },
        "type": {
          "coding": [
            {
              "code": "122592007",
              "system": "http://snomed.info/sct",
              "display": "Acellular blood (serum or plasma) specimen"
            }
          ]
        }
      }
    },
    {
      "fullUrl": "urn:uuid:f60c1a64-0c81-48ba-a9fe-8ee49abe3485",
      "resource": {
        "resourceType": "Specimen",
        "id": "f60c1a64-0c81-48ba-a9fe-8ee49abe3485",
        "meta": {
          "profile": [
            "http://hl7.eu/fhir/laboratory/StructureDefinition/Specimen-eu-lab"
          ]
        },
        "collection": {
          "collectedDateTime": "2024-03-28"
        },
        "text": {
          "status": "generated",
          "div": "<div xmlns=\"http://www.w3.org/1999/xhtml\"><table class=\"hl7__eu__lab__report\"><tr><th>Specimen</th><th>Collection Date</th></tr><tr><td>Urine specimen</td><td><span class=\"nb\">28-Mar-2024</span></td></tr></table></div>"
        },
        "type": {
          "coding": [
            {
              "code": "122575003",
              "system": "http://snomed.info/sct",
              "display": "Urine specimen"
            }
          ]
        }
      }
    },
    {
      "fullUrl": "urn:uuid:5b00e993-a213-4585-bdd5-b04791d4b07f",
      "resource": {
        "resourceType": "Specimen",
        "id": "5b00e993-a213-4585-bdd5-b04791d4b07f",
        "meta": {
          "profile": [
            "http://hl7.eu/fhir/laboratory/StructureDefinition/Specimen-eu-lab"
          ]
        },
        "collection": {
          "collectedDateTime": "2024-03-28"
        },
        "text": {
          "status": "generated",
          "div": "<div xmlns=\"http://www.w3.org/1999/xhtml\"><table class=\"hl7__eu__lab__report\"><tr><th>Specimen</th><th>Collection Date</th></tr><tr><td>Whole blood specimen (specimen)</td><td><span class=\"nb\">28-Mar-2024</span></td></tr></table></div>"
        },
        "type": {
          "coding": [
            {
              "code": "258580003",
              "system": "http://snomed.info/sct",
              "display": "Whole blood specimen (specimen)"
            }
          ]
        }
      }
    },
    {
      "fullUrl": "urn:uuid:72a1a518-58da-48fc-9ed2-6d793139fd42",
      "resource": {
        "resourceType": "Observation",
        "id": "72a1a518-58da-48fc-9ed2-6d793139fd42",
        "meta": {
          "profile": [
            "http://hl7.eu/fhir/laboratory/StructureDefinition/Observation-resultslab-eu-lab"
          ]
        },
        "performer": [
          {
            "display": "The Central European Lab"
          }
        ],
        "category": [
          {
            "coding": [
              {
                "system": "http://terminology.hl7.org/CodeSystem/observation-category",
                "code": "laboratory"
              }
            ]
          }
        ],
        "code": {
          "coding": [
            {
              "code": "2345-7",
              "system": "http://loinc.org",
              "display": "Glucose [Mass/volume] in Serum or Plasma"
            }
          ],
          "text": "Glucose [Mass/volume] in Serum or Plasma"
        },
        "valueQuantity": {
          "system": "http://unitsofmeasure.org",
          "value": 91,
          "unit": "mg/dL",
          "code": "mg/dL"
        },
        "referenceRange": [
          {
            "low": {
              "value": 70,
              "code": "mg/dL",
              "system": "http://unitsofmeasure.org"
            }
          },
          {
            "high": {
              "value": 140,
              "code": "mg/dL",
              "system": "http://unitsofmeasure.org"
            }
          }
        ],
        "text": {
          "status": "generated",
          "div": "<div xmlns=\"http://www.w3.org/1999/xhtml\"><table class=\"hl7__eu__lab__report\"><tr><th>Test</th><th>28-Mar-2024</th><th>Reference&#xA0;Range</th><th>Unit</th></tr><tr><td>Glucose [Mass/volume] in Serum or Plasma</td><td>91.0</td><td>70 - 140</td><td></td><td>mg/dL</td></tr></table></div>"
        },
        "status": "final",
        "subject": {
          "reference": "urn:uuid:64c7b8bb-0866-42cc-9ff2-2478ecdb64c4",
          "display": "Pelayo Casal"
        },
        "effectiveDateTime": "2024-03-28T05:38:59Z",
        "specimen": {
          "reference": "urn:uuid:f53124d9-0f61-4ee2-9250-b79ceb9fe09f"
        }
      }
    },
    {
      "fullUrl": "urn:uuid:7439e235-ae9b-4234-852c-89b9c2c88448",
      "resource": {
        "resourceType": "Observation",
        "id": "7439e235-ae9b-4234-852c-89b9c2c88448",
        "meta": {
          "profile": [
            "http://hl7.eu/fhir/laboratory/StructureDefinition/Observation-resultslab-eu-lab"
          ]
        },
        "performer": [
          {
            "display": "The Central European Lab"
          }
        ],
        "category": [
          {
            "coding": [
              {
                "system": "http://terminology.hl7.org/CodeSystem/observation-category",
                "code": "laboratory"
              }
            ]
          }
        ],
        "code": {
          "coding": [
            {
              "code": "3094-0",
              "system": "http://loinc.org",
              "display": "Urea nitrogen [Mass/volume] in Serum or Plasma"
            }
          ],
          "text": "Urea nitrogen [Mass/volume] in Serum or Plasma"
        },
        "valueQuantity": {
          "system": "http://unitsofmeasure.org",
          "value": 13.2,
          "unit": "mg/dL",
          "code": "mg/dL"
        },
        "referenceRange": [
          {
            "low": {
              "value": 7,
              "code": "mg/dL",
              "system": "http://unitsofmeasure.org"
            }
          },
          {
            "high": {
              "value": 25,
              "code": "mg/dL",
              "system": "http://unitsofmeasure.org"
            }
          }
        ],
        "text": {
          "status": "generated",
          "div": "<div xmlns=\"http://www.w3.org/1999/xhtml\"><table class=\"hl7__eu__lab__report\"><tr><th>Test</th><th>28-Mar-2024</th><th>Reference&#xA0;Range</th><th>Unit</th></tr><tr><td>Urea nitrogen [Mass/volume] in Serum or Plasma</td><td>13.2</td><td>7 - 25</td><td></td><td>mg/dL</td></tr></table></div>"
        },
        "status": "final",
        "subject": {
          "reference": "urn:uuid:64c7b8bb-0866-42cc-9ff2-2478ecdb64c4",
          "display": "Pelayo Casal"
        },
        "effectiveDateTime": "2024-03-28T05:38:59Z",
        "specimen": {
          "reference": "urn:uuid:f53124d9-0f61-4ee2-9250-b79ceb9fe09f"
        }
      }
    },
    {
      "fullUrl": "urn:uuid:f9771c8c-38f1-4572-85fe-cf7d3e6fa6d0",
      "resource": {
        "resourceType": "Observation",
        "id": "f9771c8c-38f1-4572-85fe-cf7d3e6fa6d0",
        "meta": {
          "profile": [
            "http://hl7.eu/fhir/laboratory/StructureDefinition/Observation-resultslab-eu-lab"
          ]
        },
        "performer": [
          {
            "display": "The Central European Lab"
          }
        ],
        "category": [
          {
            "coding": [
              {
                "system": "http://terminology.hl7.org/CodeSystem/observation-category",
                "code": "laboratory"
              }
            ]
          }
        ],
        "code": {
          "coding": [
            {
              "code": "2160-0",
              "system": "http://loinc.org",
              "display": "Creatinine [Mass/volume] in Serum or Plasma"
            }
          ],
          "text": "Creatinine [Mass/volume] in Serum or Plasma"
        },
        "valueQuantity": {
          "system": "http://unitsofmeasure.org",
          "value": 2,
          "unit": "mg/dL",
          "code": "mg/dL"
        },
        "referenceRange": [
          {
            "low": {
              "value": 0.9,
              "code": "mg/dL",
              "system": "http://unitsofmeasure.org"
            }
          },
          {
            "high": {
              "value": 1.3,
              "code": "mg/dL",
              "system": "http://unitsofmeasure.org"
            }
          }
        ],
        "interpretation": [
          {
            "coding": [
              {
                "code": "H",
                "system": "http://terminology.hl7.org/CodeSystem/v3-ObservationInterpretation",
                "display": "High"
              }
            ]
          }
        ],
        "text": {
          "status": "generated",
          "div": "<div xmlns=\"http://www.w3.org/1999/xhtml\"><table class=\"hl7__eu__lab__report\"><tr><th>Test</th><th>28-Mar-2024</th><th>Reference&#xA0;Range</th><th>Unit</th></tr><tr><td>Creatinine [Mass/volume] in Serum or Plasma</td><td>2.0</td><td>0.9 - 1.3</td><td>H</td><td>mg/dL</td></tr></table></div>"
        },
        "status": "final",
        "subject": {
          "reference": "urn:uuid:64c7b8bb-0866-42cc-9ff2-2478ecdb64c4",
          "display": "Pelayo Casal"
        },
        "effectiveDateTime": "2024-03-28T05:38:59Z",
        "specimen": {
          "reference": "urn:uuid:f53124d9-0f61-4ee2-9250-b79ceb9fe09f"
        }
      }
    },
    {
      "fullUrl": "urn:uuid:4d31de19-2b5b-4cca-9edd-fd0cb916acc5",
      "resource": {
        "resourceType": "Observation",
        "id": "4d31de19-2b5b-4cca-9edd-fd0cb916acc5",
        "meta": {
          "profile": [
            "http://hl7.eu/fhir/laboratory/StructureDefinition/Observation-resultslab-eu-lab"
          ]
        },
        "performer": [
          {
            "display": "The Central European Lab"
          }
        ],
        "category": [
          {
            "coding": [
              {
                "system": "http://terminology.hl7.org/CodeSystem/observation-category",
                "code": "laboratory"
              }
            ]
          }
        ],
        "code": {
          "coding": [
            {
              "code": "17861-6",
              "system": "http://loinc.org",
              "display": "Calcium [Mass/volume] in Serum or Plasma"
            }
          ],
          "text": "Calcium [Mass/volume] in Serum or Plasma"
        },
        "valueQuantity": {
          "system": "http://unitsofmeasure.org",
          "value": 9.7,
          "unit": "mg/dL",
          "code": "mg/dL"
        },
        "referenceRange": [
          {
            "low": {
              "value": 8.5,
              "code": "mg/dL",
              "system": "http://unitsofmeasure.org"
            }
          },
          {
            "high": {
              "value": 10.5,
              "code": "mg/dL",
              "system": "http://unitsofmeasure.org"
            }
          }
        ],
        "text": {
          "status": "generated",
          "div": "<div xmlns=\"http://www.w3.org/1999/xhtml\"><table class=\"hl7__eu__lab__report\"><tr><th>Test</th><th>28-Mar-2024</th><th>Reference&#xA0;Range</th><th>Unit</th></tr><tr><td>Calcium [Mass/volume] in Serum or Plasma</td><td>9.7</td><td>8.5 - 10.5</td><td></td><td>mg/dL</td></tr></table></div>"
        },
        "status": "final",
        "subject": {
          "reference": "urn:uuid:64c7b8bb-0866-42cc-9ff2-2478ecdb64c4",
          "display": "Pelayo Casal"
        },
        "effectiveDateTime": "2024-03-28T05:38:59Z",
        "specimen": {
          "reference": "urn:uuid:f53124d9-0f61-4ee2-9250-b79ceb9fe09f"
        }
      }
    },
    {
      "fullUrl": "urn:uuid:d9dff4ac-c9cf-4bb0-bfac-5b644b16ebb1",
      "resource": {
        "resourceType": "Observation",
        "id": "d9dff4ac-c9cf-4bb0-bfac-5b644b16ebb1",
        "meta": {
          "profile": [
            "http://hl7.eu/fhir/laboratory/StructureDefinition/Observation-resultslab-eu-lab"
          ]
        },
        "performer": [
          {
            "display": "The Central European Lab"
          }
        ],
        "category": [
          {
            "coding": [
              {
                "system": "http://terminology.hl7.org/CodeSystem/observation-category",
                "code": "laboratory"
              }
            ]
          }
        ],
        "code": {
          "coding": [
            {
              "code": "2951-2",
              "system": "http://loinc.org",
              "display": "Sodium [Moles/volume] in Serum or Plasma"
            }
          ],
          "text": "Sodium [Moles/volume] in Serum or Plasma"
        },
        "valueQuantity": {
          "system": "http://unitsofmeasure.org",
          "value": 139,
          "unit": "mmol/L",
          "code": "mmol/L"
        },
        "referenceRange": [
          {
            "low": {
              "value": 135,
              "code": "mmol/L",
              "system": "http://unitsofmeasure.org"
            }
          },
          {
            "high": {
              "value": 145,
              "code": "mmol/L",
              "system": "http://unitsofmeasure.org"
            }
          }
        ],
        "text": {
          "status": "generated",
          "div": "<div xmlns=\"http://www.w3.org/1999/xhtml\"><table class=\"hl7__eu__lab__report\"><tr><th>Test</th><th>28-Mar-2024</th><th>Reference&#xA0;Range</th><th>Unit</th></tr><tr><td>Sodium [Moles/volume] in Serum or Plasma</td><td>139.0</td><td>135 - 145</td><td></td><td>mmol/L</td></tr></table></div>"
        },
        "status": "final",
        "subject": {
          "reference": "urn:uuid:64c7b8bb-0866-42cc-9ff2-2478ecdb64c4",
          "display": "Pelayo Casal"
        },
        "effectiveDateTime": "2024-03-28T05:38:59Z",
        "specimen": {
          "reference": "urn:uuid:f53124d9-0f61-4ee2-9250-b79ceb9fe09f"
        }
      }
    },
    {
      "fullUrl": "urn:uuid:266b54fe-e5e3-4086-9415-ed70aabd7fc2",
      "resource": {
        "resourceType": "Observation",
        "id": "266b54fe-e5e3-4086-9415-ed70aabd7fc2",
        "meta": {
          "profile": [
            "http://hl7.eu/fhir/laboratory/StructureDefinition/Observation-resultslab-eu-lab"
          ]
        },
        "performer": [
          {
            "display": "The Central European Lab"
          }
        ],
        "category": [
          {
            "coding": [
              {
                "system": "http://terminology.hl7.org/CodeSystem/observation-category",
                "code": "laboratory"
              }
            ]
          }
        ],
        "code": {
          "coding": [
            {
              "code": "2823-3",
              "system": "http://loinc.org",
              "display": "Potassium [Moles/volume] in Serum or Plasma"
            }
          ],
          "text": "Potassium [Moles/volume] in Serum or Plasma"
        },
        "valueQuantity": {
          "system": "http://unitsofmeasure.org",
          "value": 3.9,
          "unit": "mmol/L",
          "code": "mmol/L"
        },
        "referenceRange": [
          {
            "low": {
              "value": 3.5,
              "code": "mmol/L",
              "system": "http://unitsofmeasure.org"
            }
          },
          {
            "high": {
              "value": 5.3,
              "code": "mmol/L",
              "system": "http://unitsofmeasure.org"
            }
          }
        ],
        "text": {
          "status": "generated",
          "div": "<div xmlns=\"http://www.w3.org/1999/xhtml\"><table class=\"hl7__eu__lab__report\"><tr><th>Test</th><th>28-Mar-2024</th><th>Reference&#xA0;Range</th><th>Unit</th></tr><tr><td>Potassium [Moles/volume] in Serum or Plasma</td><td>3.9</td><td>3.5 - 5.3</td><td></td><td>mmol/L</td></tr></table></div>"
        },
        "status": "final",
        "subject": {
          "reference": "urn:uuid:64c7b8bb-0866-42cc-9ff2-2478ecdb64c4",
          "display": "Pelayo Casal"
        },
        "effectiveDateTime": "2024-03-28T05:38:59Z",
        "specimen": {
          "reference": "urn:uuid:f53124d9-0f61-4ee2-9250-b79ceb9fe09f"
        }
      }
    },
    {
      "fullUrl": "urn:uuid:d277324a-409d-4de8-b8fb-8e7a38963ebf",
      "resource": {
        "resourceType": "Observation",
        "id": "d277324a-409d-4de8-b8fb-8e7a38963ebf",
        "meta": {
          "profile": [
            "http://hl7.eu/fhir/laboratory/StructureDefinition/Observation-resultslab-eu-lab"
          ]
        },
        "performer": [
          {
            "display": "The Central European Lab"
          }
        ],
        "category": [
          {
            "coding": [
              {
                "system": "http://terminology.hl7.org/CodeSystem/observation-category",
                "code": "laboratory"
              }
            ]
          }
        ],
        "code": {
          "coding": [
            {
              "code": "2075-0",
              "system": "http://loinc.org",
              "display": "Chloride [Moles/volume] in Serum or Plasma"
            }
          ],
          "text": "Chloride [Moles/volume] in Serum or Plasma"
        },
        "valueQuantity": {
          "system": "http://unitsofmeasure.org",
          "value": 110.4,
          "unit": "mmol/L",
          "code": "mmol/L"
        },
        "referenceRange": [
          {
            "low": {
              "value": 98,
              "code": "mmol/L",
              "system": "http://unitsofmeasure.org"
            }
          },
          {
            "high": {
              "value": 107,
              "code": "mmol/L",
              "system": "http://unitsofmeasure.org"
            }
          }
        ],
        "interpretation": [
          {
            "coding": [
              {
                "code": "H",
                "system": "http://terminology.hl7.org/CodeSystem/v3-ObservationInterpretation",
                "display": "High"
              }
            ]
          }
        ],
        "text": {
          "status": "generated",
          "div": "<div xmlns=\"http://www.w3.org/1999/xhtml\"><table class=\"hl7__eu__lab__report\"><tr><th>Test</th><th>28-Mar-2024</th><th>Reference&#xA0;Range</th><th>Unit</th></tr><tr><td>Chloride [Moles/volume] in Serum or Plasma</td><td>110.4</td><td>98 - 107</td><td>H</td><td>mmol/L</td></tr></table></div>"
        },
        "status": "final",
        "subject": {
          "reference": "urn:uuid:64c7b8bb-0866-42cc-9ff2-2478ecdb64c4",
          "display": "Pelayo Casal"
        },
        "effectiveDateTime": "2024-03-28T05:38:59Z",
        "specimen": {
          "reference": "urn:uuid:f53124d9-0f61-4ee2-9250-b79ceb9fe09f"
        }
      }
    },
    {
      "fullUrl": "urn:uuid:62a79a01-f7a8-465e-b48a-ccb4d98b2164",
      "resource": {
        "resourceType": "Observation",
        "id": "62a79a01-f7a8-465e-b48a-ccb4d98b2164",
        "meta": {
          "profile": [
            "http://hl7.eu/fhir/laboratory/StructureDefinition/Observation-resultslab-eu-lab"
          ]
        },
        "performer": [
          {
            "display": "The Central European Lab"
          }
        ],
        "category": [
          {
            "coding": [
              {
                "system": "http://terminology.hl7.org/CodeSystem/observation-category",
                "code": "laboratory"
              }
            ]
          }
        ],
        "code": {
          "coding": [
            {
              "code": "2028-9",
              "system": "http://loinc.org",
              "display": "Carbon dioxide, total [Moles/volume] in Serum or Plasma"
            }
          ],
          "text": "Carbon dioxide, total [Moles/volume] in Serum or Plasma"
        },
        "valueQuantity": {
          "system": "http://unitsofmeasure.org",
          "value": 23,
          "unit": "mmol/L",
          "code": "mmol/L"
        },
        "referenceRange": [
          {
            "low": {
              "value": 22,
              "code": "mmol/L",
              "system": "http://unitsofmeasure.org"
            }
          },
          {
            "high": {
              "value": 29,
              "code": "mmol/L",
              "system": "http://unitsofmeasure.org"
            }
          }
        ],
        "text": {
          "status": "generated",
          "div": "<div xmlns=\"http://www.w3.org/1999/xhtml\"><table class=\"hl7__eu__lab__report\"><tr><th>Test</th><th>28-Mar-2024</th><th>Reference&#xA0;Range</th><th>Unit</th></tr><tr><td>Carbon dioxide, total [Moles/volume] in Serum or Plasma</td><td>23.0</td><td>22 - 29</td><td></td><td>mmol/L</td></tr></table></div>"
        },
        "status": "final",
        "subject": {
          "reference": "urn:uuid:64c7b8bb-0866-42cc-9ff2-2478ecdb64c4",
          "display": "Pelayo Casal"
        },
        "effectiveDateTime": "2024-03-28T05:38:59Z",
        "specimen": {
          "reference": "urn:uuid:f53124d9-0f61-4ee2-9250-b79ceb9fe09f"
        }
      }
    },
    {
      "fullUrl": "urn:uuid:15b8fa54-f53f-4269-96bc-73ac8e43e5ec",
      "resource": {
        "resourceType": "Observation",
        "id": "15b8fa54-f53f-4269-96bc-73ac8e43e5ec",
        "meta": {
          "profile": [
            "http://hl7.eu/fhir/laboratory/StructureDefinition/Observation-resultslab-eu-lab"
          ]
        },
        "performer": [
          {
            "display": "The Central European Lab"
          }
        ],
        "category": [
          {
            "coding": [
              {
                "system": "http://terminology.hl7.org/CodeSystem/observation-category",
                "code": "laboratory"
              }
            ]
          }
        ],
        "code": {
          "coding": [
            {
              "code": "5767-9",
              "system": "http://loinc.org",
              "display": "Appearance of Urine"
            }
          ],
          "text": "Appearance of Urine"
        },
        "text": {
          "status": "generated",
          "div": "<div xmlns=\"http://www.w3.org/1999/xhtml\"><table class=\"hl7__eu__lab__report\"><tr><th>Test</th><th>28-Mar-2024</th><th>Reference&#xA0;Range</th><th>Unit</th></tr><tr><td>Appearance of Urine</td></tr></table></div>"
        },
        "status": "final",
        "subject": {
          "reference": "urn:uuid:64c7b8bb-0866-42cc-9ff2-2478ecdb64c4",
          "display": "Pelayo Casal"
        },
        "effectiveDateTime": "2024-03-28T05:38:59Z",
        "specimen": {
          "reference": "urn:uuid:f60c1a64-0c81-48ba-a9fe-8ee49abe3485"
        }
      }
    },
    {
      "fullUrl": "urn:uuid:9476641a-facb-4136-9215-f35361843cca",
      "resource": {
        "resourceType": "Observation",
        "id": "9476641a-facb-4136-9215-f35361843cca",
        "meta": {
          "profile": [
            "http://hl7.eu/fhir/laboratory/StructureDefinition/Observation-resultslab-eu-lab"
          ]
        },
        "performer": [
          {
            "display": "The Central European Lab"
          }
        ],
        "category": [
          {
            "coding": [
              {
                "system": "http://terminology.hl7.org/CodeSystem/observation-category",
                "code": "laboratory"
              }
            ]
          }
        ],
        "code": {
          "coding": [
            {
              "code": "34533-0",
              "system": "http://loinc.org",
              "display": "Odor of Urine"
            }
          ],
          "text": "Odor of Urine"
        },
        "text": {
          "status": "generated",
          "div": "<div xmlns=\"http://www.w3.org/1999/xhtml\"><table class=\"hl7__eu__lab__report\"><tr><th>Test</th><th>28-Mar-2024</th><th>Reference&#xA0;Range</th><th>Unit</th></tr><tr><td>Odor of Urine</td></tr></table></div>"
        },
        "status": "final",
        "subject": {
          "reference": "urn:uuid:64c7b8bb-0866-42cc-9ff2-2478ecdb64c4",
          "display": "Pelayo Casal"
        },
        "effectiveDateTime": "2024-03-28T05:38:59Z",
        "specimen": {
          "reference": "urn:uuid:f60c1a64-0c81-48ba-a9fe-8ee49abe3485"
        }
      }
    },
    {
      "fullUrl": "urn:uuid:2386092d-ff6b-4766-954e-6caff670fdd0",
      "resource": {
        "resourceType": "Observation",
        "id": "2386092d-ff6b-4766-954e-6caff670fdd0",
        "meta": {
          "profile": [
            "http://hl7.eu/fhir/laboratory/StructureDefinition/Observation-resultslab-eu-lab"
          ]
        },
        "performer": [
          {
            "display": "The Central European Lab"
          }
        ],
        "category": [
          {
            "coding": [
              {
                "system": "http://terminology.hl7.org/CodeSystem/observation-category",
                "code": "laboratory"
              }
            ]
          }
        ],
        "code": {
          "coding": [
            {
              "code": "32167-9",
              "system": "http://loinc.org",
              "display": "Clarity of Urine"
            }
          ],
          "text": "Clarity of Urine"
        },
        "text": {
          "status": "generated",
          "div": "<div xmlns=\"http://www.w3.org/1999/xhtml\"><table class=\"hl7__eu__lab__report\"><tr><th>Test</th><th>28-Mar-2024</th><th>Reference&#xA0;Range</th><th>Unit</th></tr><tr><td>Clarity of Urine</td></tr></table></div>"
        },
        "status": "final",
        "subject": {
          "reference": "urn:uuid:64c7b8bb-0866-42cc-9ff2-2478ecdb64c4",
          "display": "Pelayo Casal"
        },
        "effectiveDateTime": "2024-03-28T05:38:59Z",
        "specimen": {
          "reference": "urn:uuid:f60c1a64-0c81-48ba-a9fe-8ee49abe3485"
        }
      }
    },
    {
      "fullUrl": "urn:uuid:73984405-25c8-4ed0-9ea0-9bb1218e1fce",
      "resource": {
        "resourceType": "Observation",
        "id": "73984405-25c8-4ed0-9ea0-9bb1218e1fce",
        "meta": {
          "profile": [
            "http://hl7.eu/fhir/laboratory/StructureDefinition/Observation-resultslab-eu-lab"
          ]
        },
        "performer": [
          {
            "display": "The Central European Lab"
          }
        ],
        "category": [
          {
            "coding": [
              {
                "system": "http://terminology.hl7.org/CodeSystem/observation-category",
                "code": "laboratory"
              }
            ]
          }
        ],
        "code": {
          "coding": [
            {
              "code": "5778-6",
              "system": "http://loinc.org",
              "display": "Color of Urine"
            }
          ],
          "text": "Color of Urine"
        },
        "text": {
          "status": "generated",
          "div": "<div xmlns=\"http://www.w3.org/1999/xhtml\"><table class=\"hl7__eu__lab__report\"><tr><th>Test</th><th>28-Mar-2024</th><th>Reference&#xA0;Range</th><th>Unit</th></tr><tr><td>Color of Urine</td></tr></table></div>"
        },
        "status": "final",
        "subject": {
          "reference": "urn:uuid:64c7b8bb-0866-42cc-9ff2-2478ecdb64c4",
          "display": "Pelayo Casal"
        },
        "effectiveDateTime": "2024-03-28T05:38:59Z",
        "specimen": {
          "reference": "urn:uuid:f60c1a64-0c81-48ba-a9fe-8ee49abe3485"
        }
      }
    },
    {
      "fullUrl": "urn:uuid:d02d2583-2ecc-45e8-99b0-89e34b8b8c00",
      "resource": {
        "resourceType": "Observation",
        "id": "d02d2583-2ecc-45e8-99b0-89e34b8b8c00",
        "meta": {
          "profile": [
            "http://hl7.eu/fhir/laboratory/StructureDefinition/Observation-resultslab-eu-lab"
          ]
        },
        "performer": [
          {
            "display": "The Central European Lab"
          }
        ],
        "category": [
          {
            "coding": [
              {
                "system": "http://terminology.hl7.org/CodeSystem/observation-category",
                "code": "laboratory"
              }
            ]
          }
        ],
        "code": {
          "coding": [
            {
              "code": "5792-7",
              "system": "http://loinc.org",
              "display": "Glucose [Mass/volume] in Urine by Test strip"
            }
          ],
          "text": "Glucose [Mass/volume] in Urine by Test strip"
        },
        "valueQuantity": {
          "system": "http://unitsofmeasure.org",
          "value": 2,
          "unit": "mg/dL",
          "code": "mg/dL"
        },
        "referenceRange": [
          {
            "low": {
              "value": 0.8,
              "code": "mg/dL",
              "system": "http://unitsofmeasure.org"
            }
          },
          {
            "high": {
              "value": 0,
              "code": "mg/dL",
              "system": "http://unitsofmeasure.org"
            }
          }
        ],
        "interpretation": [
          {
            "coding": [
              {
                "code": "H",
                "system": "http://terminology.hl7.org/CodeSystem/v3-ObservationInterpretation",
                "display": "High"
              }
            ]
          }
        ],
        "text": {
          "status": "generated",
          "div": "<div xmlns=\"http://www.w3.org/1999/xhtml\"><table class=\"hl7__eu__lab__report\"><tr><th>Test</th><th>28-Mar-2024</th><th>Reference&#xA0;Range</th><th>Unit</th></tr><tr><td>Glucose [Mass/volume] in Urine by Test strip</td><td>2.0</td><td>0.8 - 0</td><td>H</td><td>mg/dL</td></tr></table></div>"
        },
        "status": "final",
        "subject": {
          "reference": "urn:uuid:64c7b8bb-0866-42cc-9ff2-2478ecdb64c4",
          "display": "Pelayo Casal"
        },
        "effectiveDateTime": "2024-03-28T05:38:59Z",
        "specimen": {
          "reference": "urn:uuid:f60c1a64-0c81-48ba-a9fe-8ee49abe3485"
        }
      }
    },
    {
      "fullUrl": "urn:uuid:412679f9-deef-4cca-99c0-75791a3c2e59",
      "resource": {
        "resourceType": "Observation",
        "id": "412679f9-deef-4cca-99c0-75791a3c2e59",
        "meta": {
          "profile": [
            "http://hl7.eu/fhir/laboratory/StructureDefinition/Observation-resultslab-eu-lab"
          ]
        },
        "performer": [
          {
            "display": "The Central European Lab"
          }
        ],
        "category": [
          {
            "coding": [
              {
                "system": "http://terminology.hl7.org/CodeSystem/observation-category",
                "code": "laboratory"
              }
            ]
          }
        ],
        "code": {
          "coding": [
            {
              "code": "25428-4",
              "system": "http://loinc.org",
              "display": "Glucose [Presence] in Urine by Test strip"
            }
          ],
          "text": "Glucose [Presence] in Urine by Test strip"
        },
        "text": {
          "status": "generated",
          "div": "<div xmlns=\"http://www.w3.org/1999/xhtml\"><table class=\"hl7__eu__lab__report\"><tr><th>Test</th><th>28-Mar-2024</th><th>Reference&#xA0;Range</th><th>Unit</th></tr><tr><td>Glucose [Presence] in Urine by Test strip</td></tr></table></div>"
        },
        "status": "final",
        "subject": {
          "reference": "urn:uuid:64c7b8bb-0866-42cc-9ff2-2478ecdb64c4",
          "display": "Pelayo Casal"
        },
        "effectiveDateTime": "2024-03-28T05:38:59Z",
        "specimen": {
          "reference": "urn:uuid:f60c1a64-0c81-48ba-a9fe-8ee49abe3485"
        }
      }
    },
    {
      "fullUrl": "urn:uuid:6685283a-2d14-483e-93dd-27a3f9717eae",
      "resource": {
        "resourceType": "Observation",
        "id": "6685283a-2d14-483e-93dd-27a3f9717eae",
        "meta": {
          "profile": [
            "http://hl7.eu/fhir/laboratory/StructureDefinition/Observation-resultslab-eu-lab"
          ]
        },
        "performer": [
          {
            "display": "The Central European Lab"
          }
        ],
        "category": [
          {
            "coding": [
              {
                "system": "http://terminology.hl7.org/CodeSystem/observation-category",
                "code": "laboratory"
              }
            ]
          }
        ],
        "code": {
          "coding": [
            {
              "code": "20505-4",
              "system": "http://loinc.org",
              "display": "Bilirubin.total [Mass/volume] in Urine by Test strip"
            }
          ],
          "text": "Bilirubin.total [Mass/volume] in Urine by Test strip"
        },
        "valueQuantity": {
          "system": "http://unitsofmeasure.org",
          "value": 1,
          "unit": "mg/dL",
          "code": "mg/dL"
        },
        "referenceRange": [
          {
            "low": {
              "value": 0.2,
              "code": "mg/dL",
              "system": "http://unitsofmeasure.org"
            }
          },
          {
            "high": {
              "value": 1.5,
              "code": "mg/dL",
              "system": "http://unitsofmeasure.org"
            }
          }
        ],
        "text": {
          "status": "generated",
          "div": "<div xmlns=\"http://www.w3.org/1999/xhtml\"><table class=\"hl7__eu__lab__report\"><tr><th>Test</th><th>28-Mar-2024</th><th>Reference&#xA0;Range</th><th>Unit</th></tr><tr><td>Bilirubin.total [Mass/volume] in Urine by Test strip</td><td>1.0</td><td>0.2 - 1.5</td><td></td><td>mg/dL</td></tr></table></div>"
        },
        "status": "final",
        "subject": {
          "reference": "urn:uuid:64c7b8bb-0866-42cc-9ff2-2478ecdb64c4",
          "display": "Pelayo Casal"
        },
        "effectiveDateTime": "2024-03-28T05:38:59Z",
        "specimen": {
          "reference": "urn:uuid:f60c1a64-0c81-48ba-a9fe-8ee49abe3485"
        }
      }
    },
    {
      "fullUrl": "urn:uuid:a8823bfc-836c-461f-8242-eb09f5b47600",
      "resource": {
        "resourceType": "Observation",
        "id": "a8823bfc-836c-461f-8242-eb09f5b47600",
        "meta": {
          "profile": [
            "http://hl7.eu/fhir/laboratory/StructureDefinition/Observation-resultslab-eu-lab"
          ]
        },
        "performer": [
          {
            "display": "The Central European Lab"
          }
        ],
        "category": [
          {
            "coding": [
              {
                "system": "http://terminology.hl7.org/CodeSystem/observation-category",
                "code": "laboratory"
              }
            ]
          }
        ],
        "code": {
          "coding": [
            {
              "code": "5770-3",
              "system": "http://loinc.org",
              "display": "Bilirubin.total [Presence] in Urine by Test strip"
            }
          ],
          "text": "Bilirubin.total [Presence] in Urine by Test strip"
        },
        "text": {
          "status": "generated",
          "div": "<div xmlns=\"http://www.w3.org/1999/xhtml\"><table class=\"hl7__eu__lab__report\"><tr><th>Test</th><th>28-Mar-2024</th><th>Reference&#xA0;Range</th><th>Unit</th></tr><tr><td>Bilirubin.total [Presence] in Urine by Test strip</td></tr></table></div>"
        },
        "status": "final",
        "subject": {
          "reference": "urn:uuid:64c7b8bb-0866-42cc-9ff2-2478ecdb64c4",
          "display": "Pelayo Casal"
        },
        "effectiveDateTime": "2024-03-28T05:38:59Z",
        "specimen": {
          "reference": "urn:uuid:f60c1a64-0c81-48ba-a9fe-8ee49abe3485"
        }
      }
    },
    {
      "fullUrl": "urn:uuid:6a430a37-8494-4834-bf4b-e8d89a8eb2c5",
      "resource": {
        "resourceType": "Observation",
        "id": "6a430a37-8494-4834-bf4b-e8d89a8eb2c5",
        "meta": {
          "profile": [
            "http://hl7.eu/fhir/laboratory/StructureDefinition/Observation-resultslab-eu-lab"
          ]
        },
        "performer": [
          {
            "display": "The Central European Lab"
          }
        ],
        "category": [
          {
            "coding": [
              {
                "system": "http://terminology.hl7.org/CodeSystem/observation-category",
                "code": "laboratory"
              }
            ]
          }
        ],
        "code": {
          "coding": [
            {
              "code": "5797-6",
              "system": "http://loinc.org",
              "display": "Ketones [Mass/volume] in Urine by Test strip"
            }
          ],
          "text": "Ketones [Mass/volume] in Urine by Test strip"
        },
        "valueQuantity": {
          "system": "http://unitsofmeasure.org",
          "value": 11.4,
          "unit": "mg/dL",
          "code": "mg/dL"
        },
        "referenceRange": [
          {
            "low": {
              "value": 0,
              "code": "mg/dL",
              "system": "http://unitsofmeasure.org"
            }
          },
          {
            "high": {
              "value": 4,
              "code": "mg/dL",
              "system": "http://unitsofmeasure.org"
            }
          }
        ],
        "interpretation": [
          {
            "coding": [
              {
                "code": "H",
                "system": "http://terminology.hl7.org/CodeSystem/v3-ObservationInterpretation",
                "display": "High"
              }
            ]
          }
        ],
        "text": {
          "status": "generated",
          "div": "<div xmlns=\"http://www.w3.org/1999/xhtml\"><table class=\"hl7__eu__lab__report\"><tr><th>Test</th><th>28-Mar-2024</th><th>Reference&#xA0;Range</th><th>Unit</th></tr><tr><td>Ketones [Mass/volume] in Urine by Test strip</td><td>11.4</td><td>0 - 4</td><td>H</td><td>mg/dL</td></tr></table></div>"
        },
        "status": "final",
        "subject": {
          "reference": "urn:uuid:64c7b8bb-0866-42cc-9ff2-2478ecdb64c4",
          "display": "Pelayo Casal"
        },
        "effectiveDateTime": "2024-03-28T05:38:59Z",
        "specimen": {
          "reference": "urn:uuid:f60c1a64-0c81-48ba-a9fe-8ee49abe3485"
        }
      }
    },
    {
      "fullUrl": "urn:uuid:84b846de-e92b-4676-9dc6-d8f603631583",
      "resource": {
        "resourceType": "Observation",
        "id": "84b846de-e92b-4676-9dc6-d8f603631583",
        "meta": {
          "profile": [
            "http://hl7.eu/fhir/laboratory/StructureDefinition/Observation-resultslab-eu-lab"
          ]
        },
        "performer": [
          {
            "display": "The Central European Lab"
          }
        ],
        "category": [
          {
            "coding": [
              {
                "system": "http://terminology.hl7.org/CodeSystem/observation-category",
                "code": "laboratory"
              }
            ]
          }
        ],
        "code": {
          "coding": [
            {
              "code": "2514-8",
              "system": "http://loinc.org",
              "display": "Ketones [Presence] in Urine by Test strip"
            }
          ],
          "text": "Ketones [Presence] in Urine by Test strip"
        },
        "text": {
          "status": "generated",
          "div": "<div xmlns=\"http://www.w3.org/1999/xhtml\"><table class=\"hl7__eu__lab__report\"><tr><th>Test</th><th>28-Mar-2024</th><th>Reference&#xA0;Range</th><th>Unit</th></tr><tr><td>Ketones [Presence] in Urine by Test strip</td></tr></table></div>"
        },
        "status": "final",
        "subject": {
          "reference": "urn:uuid:64c7b8bb-0866-42cc-9ff2-2478ecdb64c4",
          "display": "Pelayo Casal"
        },
        "effectiveDateTime": "2024-03-28T05:38:59Z",
        "specimen": {
          "reference": "urn:uuid:f60c1a64-0c81-48ba-a9fe-8ee49abe3485"
        }
      }
    },
    {
      "fullUrl": "urn:uuid:fb065592-c78c-4c23-8122-359bd123646e",
      "resource": {
        "resourceType": "Observation",
        "id": "fb065592-c78c-4c23-8122-359bd123646e",
        "meta": {
          "profile": [
            "http://hl7.eu/fhir/laboratory/StructureDefinition/Observation-resultslab-eu-lab"
          ]
        },
        "performer": [
          {
            "display": "The Central European Lab"
          }
        ],
        "category": [
          {
            "coding": [
              {
                "system": "http://terminology.hl7.org/CodeSystem/observation-category",
                "code": "laboratory"
              }
            ]
          }
        ],
        "code": {
          "coding": [
            {
              "code": "5811-5",
              "system": "http://loinc.org",
              "display": "Specific gravity of Urine by Test strip"
            }
          ],
          "text": "Specific gravity of Urine by Test strip"
        },
        "valueQuantity": {
          "system": "http://unitsofmeasure.org",
          "value": 1,
          "unit": "{nominal}",
          "code": "{nominal}"
        },
        "referenceRange": [
          {
            "low": {
              "value": 1.01,
              "code": "g/mL",
              "system": "http://unitsofmeasure.org"
            }
          },
          {
            "high": {
              "value": 1.03,
              "code": "g/mL",
              "system": "http://unitsofmeasure.org"
            }
          }
        ],
        "interpretation": [
          {
            "coding": [
              {
                "code": "L",
                "system": "http://terminology.hl7.org/CodeSystem/v3-ObservationInterpretation",
                "display": "Low"
              }
            ]
          }
        ],
        "text": {
          "status": "generated",
          "div": "<div xmlns=\"http://www.w3.org/1999/xhtml\"><table class=\"hl7__eu__lab__report\"><tr><th>Test</th><th>28-Mar-2024</th><th>Reference&#xA0;Range</th><th>Unit</th></tr><tr><td>Specific gravity of Urine by Test strip</td><td>1.0</td><td>1.01 - 1.03</td><td>L</td><td>{nominal}</td></tr></table></div>"
        },
        "status": "final",
        "subject": {
          "reference": "urn:uuid:64c7b8bb-0866-42cc-9ff2-2478ecdb64c4",
          "display": "Pelayo Casal"
        },
        "effectiveDateTime": "2024-03-28T05:38:59Z",
        "specimen": {
          "reference": "urn:uuid:f60c1a64-0c81-48ba-a9fe-8ee49abe3485"
        }
      }
    },
    {
      "fullUrl": "urn:uuid:6012a0e9-aa02-452d-9d6d-03de14dc8ee3",
      "resource": {
        "resourceType": "Observation",
        "id": "6012a0e9-aa02-452d-9d6d-03de14dc8ee3",
        "meta": {
          "profile": [
            "http://hl7.eu/fhir/laboratory/StructureDefinition/Observation-resultslab-eu-lab"
          ]
        },
        "performer": [
          {
            "display": "The Central European Lab"
          }
        ],
        "category": [
          {
            "coding": [
              {
                "system": "http://terminology.hl7.org/CodeSystem/observation-category",
                "code": "laboratory"
              }
            ]
          }
        ],
        "code": {
          "coding": [
            {
              "code": "5803-2",
              "system": "http://loinc.org",
              "display": "pH of Urine by Test strip"
            }
          ],
          "text": "pH of Urine by Test strip"
        },
        "valueQuantity": {
          "system": "http://unitsofmeasure.org",
          "value": 6.7,
          "unit": "pH",
          "code": "pH"
        },
        "referenceRange": [
          {
            "low": {
              "value": 4.5,
              "code": "pH",
              "system": "http://unitsofmeasure.org"
            }
          },
          {
            "high": {
              "value": 7.5,
              "code": "pH",
              "system": "http://unitsofmeasure.org"
            }
          }
        ],
        "text": {
          "status": "generated",
          "div": "<div xmlns=\"http://www.w3.org/1999/xhtml\"><table class=\"hl7__eu__lab__report\"><tr><th>Test</th><th>28-Mar-2024</th><th>Reference&#xA0;Range</th><th>Unit</th></tr><tr><td>pH of Urine by Test strip</td><td>6.7</td><td>4.5 - 7.5</td><td></td><td>pH</td></tr></table></div>"
        },
        "status": "final",
        "subject": {
          "reference": "urn:uuid:64c7b8bb-0866-42cc-9ff2-2478ecdb64c4",
          "display": "Pelayo Casal"
        },
        "effectiveDateTime": "2024-03-28T05:38:59Z",
        "specimen": {
          "reference": "urn:uuid:f60c1a64-0c81-48ba-a9fe-8ee49abe3485"
        }
      }
    },
    {
      "fullUrl": "urn:uuid:5c453e5e-240f-4e27-8e10-b889056c5d62",
      "resource": {
        "resourceType": "Observation",
        "id": "5c453e5e-240f-4e27-8e10-b889056c5d62",
        "meta": {
          "profile": [
            "http://hl7.eu/fhir/laboratory/StructureDefinition/Observation-resultslab-eu-lab"
          ]
        },
        "performer": [
          {
            "display": "The Central European Lab"
          }
        ],
        "category": [
          {
            "coding": [
              {
                "system": "http://terminology.hl7.org/CodeSystem/observation-category",
                "code": "laboratory"
              }
            ]
          }
        ],
        "code": {
          "coding": [
            {
              "code": "5804-0",
              "system": "http://loinc.org",
              "display": "Protein [Mass/volume] in Urine by Test strip"
            }
          ],
          "text": "Protein [Mass/volume] in Urine by Test strip"
        },
        "valueQuantity": {
          "system": "http://unitsofmeasure.org",
          "value": 346.2,
          "unit": "mg/dL",
          "code": "mg/dL"
        },
        "referenceRange": [
          {
            "low": {
              "value": 0,
              "code": "mg/dL",
              "system": "http://unitsofmeasure.org"
            }
          },
          {
            "high": {
              "value": 150,
              "code": "mg/dL",
              "system": "http://unitsofmeasure.org"
            }
          }
        ],
        "interpretation": [
          {
            "coding": [
              {
                "code": "H",
                "system": "http://terminology.hl7.org/CodeSystem/v3-ObservationInterpretation",
                "display": "High"
              }
            ]
          }
        ],
        "text": {
          "status": "generated",
          "div": "<div xmlns=\"http://www.w3.org/1999/xhtml\"><table class=\"hl7__eu__lab__report\"><tr><th>Test</th><th>28-Mar-2024</th><th>Reference&#xA0;Range</th><th>Unit</th></tr><tr><td>Protein [Mass/volume] in Urine by Test strip</td><td>346.2</td><td>0 - 150</td><td>H</td><td>mg/dL</td></tr></table></div>"
        },
        "status": "final",
        "subject": {
          "reference": "urn:uuid:64c7b8bb-0866-42cc-9ff2-2478ecdb64c4",
          "display": "Pelayo Casal"
        },
        "effectiveDateTime": "2024-03-28T05:38:59Z",
        "specimen": {
          "reference": "urn:uuid:f60c1a64-0c81-48ba-a9fe-8ee49abe3485"
        }
      }
    },
    {
      "fullUrl": "urn:uuid:855dc3ef-96d1-4bba-9384-77f2df155768",
      "resource": {
        "resourceType": "Observation",
        "id": "855dc3ef-96d1-4bba-9384-77f2df155768",
        "meta": {
          "profile": [
            "http://hl7.eu/fhir/laboratory/StructureDefinition/Observation-resultslab-eu-lab"
          ]
        },
        "performer": [
          {
            "display": "The Central European Lab"
          }
        ],
        "category": [
          {
            "coding": [
              {
                "system": "http://terminology.hl7.org/CodeSystem/observation-category",
                "code": "laboratory"
              }
            ]
          }
        ],
        "code": {
          "coding": [
            {
              "code": "20454-5",
              "system": "http://loinc.org",
              "display": "Protein [Presence] in Urine by Test strip"
            }
          ],
          "text": "Protein [Presence] in Urine by Test strip"
        },
        "text": {
          "status": "generated",
          "div": "<div xmlns=\"http://www.w3.org/1999/xhtml\"><table class=\"hl7__eu__lab__report\"><tr><th>Test</th><th>28-Mar-2024</th><th>Reference&#xA0;Range</th><th>Unit</th></tr><tr><td>Protein [Presence] in Urine by Test strip</td></tr></table></div>"
        },
        "status": "final",
        "subject": {
          "reference": "urn:uuid:64c7b8bb-0866-42cc-9ff2-2478ecdb64c4",
          "display": "Pelayo Casal"
        },
        "effectiveDateTime": "2024-03-28T05:38:59Z",
        "specimen": {
          "reference": "urn:uuid:f60c1a64-0c81-48ba-a9fe-8ee49abe3485"
        }
      }
    },
    {
      "fullUrl": "urn:uuid:ae110fd6-4ec8-4257-9634-ca9a9cb199da",
      "resource": {
        "resourceType": "Observation",
        "id": "ae110fd6-4ec8-4257-9634-ca9a9cb199da",
        "meta": {
          "profile": [
            "http://hl7.eu/fhir/laboratory/StructureDefinition/Observation-resultslab-eu-lab"
          ]
        },
        "performer": [
          {
            "display": "The Central European Lab"
          }
        ],
        "category": [
          {
            "coding": [
              {
                "system": "http://terminology.hl7.org/CodeSystem/observation-category",
                "code": "laboratory"
              }
            ]
          }
        ],
        "code": {
          "coding": [
            {
              "code": "5802-4",
              "system": "http://loinc.org",
              "display": "Nitrite [Presence] in Urine by Test strip"
            }
          ],
          "text": "Nitrite [Presence] in Urine by Test strip"
        },
        "text": {
          "status": "generated",
          "div": "<div xmlns=\"http://www.w3.org/1999/xhtml\"><table class=\"hl7__eu__lab__report\"><tr><th>Test</th><th>28-Mar-2024</th><th>Reference&#xA0;Range</th><th>Unit</th></tr><tr><td>Nitrite [Presence] in Urine by Test strip</td></tr></table></div>"
        },
        "status": "final",
        "subject": {
          "reference": "urn:uuid:64c7b8bb-0866-42cc-9ff2-2478ecdb64c4",
          "display": "Pelayo Casal"
        },
        "effectiveDateTime": "2024-03-28T05:38:59Z",
        "specimen": {
          "reference": "urn:uuid:f60c1a64-0c81-48ba-a9fe-8ee49abe3485"
        }
      }
    },
    {
      "fullUrl": "urn:uuid:2424bbab-44fb-4403-be28-ecc0d380a1af",
      "resource": {
        "resourceType": "Observation",
        "id": "2424bbab-44fb-4403-be28-ecc0d380a1af",
        "meta": {
          "profile": [
            "http://hl7.eu/fhir/laboratory/StructureDefinition/Observation-resultslab-eu-lab"
          ]
        },
        "performer": [
          {
            "display": "The Central European Lab"
          }
        ],
        "category": [
          {
            "coding": [
              {
                "system": "http://terminology.hl7.org/CodeSystem/observation-category",
                "code": "laboratory"
              }
            ]
          }
        ],
        "code": {
          "coding": [
            {
              "code": "5794-3",
              "system": "http://loinc.org",
              "display": "Hemoglobin [Presence] in Urine by Test strip"
            }
          ],
          "text": "Hemoglobin [Presence] in Urine by Test strip"
        },
        "text": {
          "status": "generated",
          "div": "<div xmlns=\"http://www.w3.org/1999/xhtml\"><table class=\"hl7__eu__lab__report\"><tr><th>Test</th><th>28-Mar-2024</th><th>Reference&#xA0;Range</th><th>Unit</th></tr><tr><td>Hemoglobin [Presence] in Urine by Test strip</td></tr></table></div>"
        },
        "status": "final",
        "subject": {
          "reference": "urn:uuid:64c7b8bb-0866-42cc-9ff2-2478ecdb64c4",
          "display": "Pelayo Casal"
        },
        "effectiveDateTime": "2024-03-28T05:38:59Z",
        "specimen": {
          "reference": "urn:uuid:f60c1a64-0c81-48ba-a9fe-8ee49abe3485"
        }
      }
    },
    {
      "fullUrl": "urn:uuid:16444659-720d-45b6-b78d-395900bc0230",
      "resource": {
        "resourceType": "Observation",
        "id": "16444659-720d-45b6-b78d-395900bc0230",
        "meta": {
          "profile": [
            "http://hl7.eu/fhir/laboratory/StructureDefinition/Observation-resultslab-eu-lab"
          ]
        },
        "performer": [
          {
            "display": "The Central European Lab"
          }
        ],
        "category": [
          {
            "coding": [
              {
                "system": "http://terminology.hl7.org/CodeSystem/observation-category",
                "code": "laboratory"
              }
            ]
          }
        ],
        "code": {
          "coding": [
            {
              "code": "5799-2",
              "system": "http://loinc.org",
              "display": "Leukocyte esterase [Presence] in Urine by Test strip"
            }
          ],
          "text": "Leukocyte esterase [Presence] in Urine by Test strip"
        },
        "text": {
          "status": "generated",
          "div": "<div xmlns=\"http://www.w3.org/1999/xhtml\"><table class=\"hl7__eu__lab__report\"><tr><th>Test</th><th>28-Mar-2024</th><th>Reference&#xA0;Range</th><th>Unit</th></tr><tr><td>Leukocyte esterase [Presence] in Urine by Test strip</td></tr></table></div>"
        },
        "status": "final",
        "subject": {
          "reference": "urn:uuid:64c7b8bb-0866-42cc-9ff2-2478ecdb64c4",
          "display": "Pelayo Casal"
        },
        "effectiveDateTime": "2024-03-28T05:38:59Z",
        "specimen": {
          "reference": "urn:uuid:f60c1a64-0c81-48ba-a9fe-8ee49abe3485"
        }
      }
    },
    {
      "fullUrl": "urn:uuid:3faf84e1-eeae-43c0-ba97-ce4c222f4fb1",
      "resource": {
        "resourceType": "Observation",
        "id": "3faf84e1-eeae-43c0-ba97-ce4c222f4fb1",
        "meta": {
          "profile": [
            "http://hl7.eu/fhir/laboratory/StructureDefinition/Observation-resultslab-eu-lab"
          ]
        },
        "performer": [
          {
            "display": "The Central European Lab"
          }
        ],
        "category": [
          {
            "coding": [
              {
                "system": "http://terminology.hl7.org/CodeSystem/observation-category",
                "code": "laboratory"
              }
            ]
          }
        ],
        "code": {
          "coding": [
            {
              "code": "4548-4",
              "system": "http://loinc.org",
              "display": "Hemoglobin A1c/Hemoglobin.total in Blood"
            }
          ],
          "text": "Hemoglobin A1c/Hemoglobin.total in Blood"
        },
        "valueQuantity": {
          "system": "http://unitsofmeasure.org",
          "value": 3,
          "unit": "%",
          "code": "%"
        },
        "referenceRange": [
          {
            "low": {
              "value": 4.5,
              "code": "%",
              "system": "http://unitsofmeasure.org"
            }
          },
          {
            "high": {
              "value": 6.4,
              "code": "%",
              "system": "http://unitsofmeasure.org"
            }
          }
        ],
        "interpretation": [
          {
            "coding": [
              {
                "code": "L",
                "system": "http://terminology.hl7.org/CodeSystem/v3-ObservationInterpretation",
                "display": "Low"
              }
            ]
          }
        ],
        "text": {
          "status": "generated",
          "div": "<div xmlns=\"http://www.w3.org/1999/xhtml\"><table class=\"hl7__eu__lab__report\"><tr><th>Test</th><th>28-Mar-2024</th><th>Reference&#xA0;Range</th><th>Unit</th></tr><tr><td>Hemoglobin A1c/Hemoglobin.total in Blood</td><td>3.0</td><td>4.5 - 6.4</td><td>L</td><td>%</td></tr></table></div>"
        },
        "status": "final",
        "subject": {
          "reference": "urn:uuid:64c7b8bb-0866-42cc-9ff2-2478ecdb64c4",
          "display": "Pelayo Casal"
        },
        "effectiveDateTime": "2024-03-28T05:38:59Z",
        "specimen": {
          "reference": "urn:uuid:5b00e993-a213-4585-bdd5-b04791d4b07f"
        }
      }
    },
    {
      "fullUrl": "urn:uuid:5ef33527-14c5-448f-9b3c-f09364b88b62",
      "resource": {
        "resourceType": "Observation",
        "id": "5ef33527-14c5-448f-9b3c-f09364b88b62",
        "meta": {
          "profile": [
            "http://hl7.eu/fhir/laboratory/StructureDefinition/Observation-resultslab-eu-lab"
          ]
        },
        "performer": [
          {
            "display": "The Central European Lab"
          }
        ],
        "category": [
          {
            "coding": [
              {
                "system": "http://terminology.hl7.org/CodeSystem/observation-category",
                "code": "laboratory"
              }
            ]
          }
        ],
        "code": {
          "coding": [
            {
              "code": "2339-0",
              "system": "http://loinc.org",
              "display": "Glucose [Mass/volume] in Blood"
            }
          ],
          "text": "Glucose [Mass/volume] in Blood"
        },
        "valueQuantity": {
          "system": "http://unitsofmeasure.org",
          "value": 91,
          "unit": "mg/dL",
          "code": "mg/dL"
        },
        "referenceRange": [
          {
            "low": {
              "value": 70,
              "code": "mg/dL",
              "system": "http://unitsofmeasure.org"
            }
          },
          {
            "high": {
              "value": 140,
              "code": "mg/dL",
              "system": "http://unitsofmeasure.org"
            }
          }
        ],
        "text": {
          "status": "generated",
          "div": "<div xmlns=\"http://www.w3.org/1999/xhtml\"><table class=\"hl7__eu__lab__report\"><tr><th>Test</th><th>28-Mar-2024</th><th>Reference&#xA0;Range</th><th>Unit</th></tr><tr><td>Glucose [Mass/volume] in Blood</td><td>91.0</td><td>70 - 140</td><td></td><td>mg/dL</td></tr></table></div>"
        },
        "status": "final",
        "subject": {
          "reference": "urn:uuid:64c7b8bb-0866-42cc-9ff2-2478ecdb64c4",
          "display": "Pelayo Casal"
        },
        "effectiveDateTime": "2024-03-28T05:38:59Z",
        "specimen": {
          "reference": "urn:uuid:5b00e993-a213-4585-bdd5-b04791d4b07f"
        }
      }
    },
    {
      "fullUrl": "urn:uuid:63bdc734-2e05-4061-9c04-fd615e39d29b",
      "resource": {
        "resourceType": "Observation",
        "id": "63bdc734-2e05-4061-9c04-fd615e39d29b",
        "meta": {
          "profile": [
            "http://hl7.eu/fhir/laboratory/StructureDefinition/Observation-resultslab-eu-lab"
          ]
        },
        "performer": [
          {
            "display": "The Central European Lab"
          }
        ],
        "category": [
          {
            "coding": [
              {
                "system": "http://terminology.hl7.org/CodeSystem/observation-category",
                "code": "laboratory"
              }
            ]
          }
        ],
        "code": {
          "coding": [
            {
              "code": "6299-2",
              "system": "http://loinc.org",
              "display": "Urea nitrogen [Mass/volume] in Blood"
            }
          ],
          "text": "Urea nitrogen [Mass/volume] in Blood"
        },
        "valueQuantity": {
          "system": "http://unitsofmeasure.org",
          "value": 13.2,
          "unit": "mg/dL",
          "code": "mg/dL"
        },
        "referenceRange": [
          {
            "low": {
              "value": 7,
              "code": "mg/dL",
              "system": "http://unitsofmeasure.org"
            }
          },
          {
            "high": {
              "value": 25,
              "code": "mg/dL",
              "system": "http://unitsofmeasure.org"
            }
          }
        ],
        "text": {
          "status": "generated",
          "div": "<div xmlns=\"http://www.w3.org/1999/xhtml\"><table class=\"hl7__eu__lab__report\"><tr><th>Test</th><th>28-Mar-2024</th><th>Reference&#xA0;Range</th><th>Unit</th></tr><tr><td>Urea nitrogen [Mass/volume] in Blood</td><td>13.2</td><td>7 - 25</td><td></td><td>mg/dL</td></tr></table></div>"
        },
        "status": "final",
        "subject": {
          "reference": "urn:uuid:64c7b8bb-0866-42cc-9ff2-2478ecdb64c4",
          "display": "Pelayo Casal"
        },
        "effectiveDateTime": "2024-03-28T05:38:59Z",
        "specimen": {
          "reference": "urn:uuid:5b00e993-a213-4585-bdd5-b04791d4b07f"
        }
      }
    },
    {
      "fullUrl": "urn:uuid:9e9616f7-4b3c-429f-9cde-ccb141b994b4",
      "resource": {
        "resourceType": "Observation",
        "id": "9e9616f7-4b3c-429f-9cde-ccb141b994b4",
        "meta": {
          "profile": [
            "http://hl7.eu/fhir/laboratory/StructureDefinition/Observation-resultslab-eu-lab"
          ]
        },
        "performer": [
          {
            "display": "The Central European Lab"
          }
        ],
        "category": [
          {
            "coding": [
              {
                "system": "http://terminology.hl7.org/CodeSystem/observation-category",
                "code": "laboratory"
              }
            ]
          }
        ],
        "code": {
          "coding": [
            {
              "code": "38483-4",
              "system": "http://loinc.org",
              "display": "Creatinine [Mass/volume] in Blood"
            }
          ],
          "text": "Creatinine [Mass/volume] in Blood"
        },
        "valueQuantity": {
          "system": "http://unitsofmeasure.org",
          "value": 1.9,
          "unit": "mg/dL",
          "code": "mg/dL"
        },
        "referenceRange": [
          {
            "low": {
              "value": 0.9,
              "code": "mg/dL",
              "system": "http://unitsofmeasure.org"
            }
          },
          {
            "high": {
              "value": 1.3,
              "code": "mg/dL",
              "system": "http://unitsofmeasure.org"
            }
          }
        ],
        "interpretation": [
          {
            "coding": [
              {
                "code": "H",
                "system": "http://terminology.hl7.org/CodeSystem/v3-ObservationInterpretation",
                "display": "High"
              }
            ]
          }
        ],
        "text": {
          "status": "generated",
          "div": "<div xmlns=\"http://www.w3.org/1999/xhtml\"><table class=\"hl7__eu__lab__report\"><tr><th>Test</th><th>28-Mar-2024</th><th>Reference&#xA0;Range</th><th>Unit</th></tr><tr><td>Creatinine [Mass/volume] in Blood</td><td>1.9</td><td>0.9 - 1.3</td><td>H</td><td>mg/dL</td></tr></table></div>"
        },
        "status": "final",
        "subject": {
          "reference": "urn:uuid:64c7b8bb-0866-42cc-9ff2-2478ecdb64c4",
          "display": "Pelayo Casal"
        },
        "effectiveDateTime": "2024-03-28T05:38:59Z",
        "specimen": {
          "reference": "urn:uuid:5b00e993-a213-4585-bdd5-b04791d4b07f"
        }
      }
    },
    {
      "fullUrl": "urn:uuid:ae0e1c88-4d98-45e4-9744-3a95ce91b8f9",
      "resource": {
        "resourceType": "Observation",
        "id": "ae0e1c88-4d98-45e4-9744-3a95ce91b8f9",
        "meta": {
          "profile": [
            "http://hl7.eu/fhir/laboratory/StructureDefinition/Observation-resultslab-eu-lab"
          ]
        },
        "performer": [
          {
            "display": "The Central European Lab"
          }
        ],
        "category": [
          {
            "coding": [
              {
                "system": "http://terminology.hl7.org/CodeSystem/observation-category",
                "code": "laboratory"
              }
            ]
          }
        ],
        "code": {
          "coding": [
            {
              "code": "49765-1",
              "system": "http://loinc.org",
              "display": "Calcium [Mass/volume] in Blood"
            }
          ],
          "text": "Calcium [Mass/volume] in Blood"
        },
        "valueQuantity": {
          "system": "http://unitsofmeasure.org",
          "value": 9.7,
          "unit": "mg/dL",
          "code": "mg/dL"
        },
        "referenceRange": [
          {
            "low": {
              "value": 8.6,
              "code": "mg/dL",
              "system": "http://unitsofmeasure.org"
            }
          },
          {
            "high": {
              "value": 10.2,
              "code": "mg/dL",
              "system": "http://unitsofmeasure.org"
            }
          }
        ],
        "text": {
          "status": "generated",
          "div": "<div xmlns=\"http://www.w3.org/1999/xhtml\"><table class=\"hl7__eu__lab__report\"><tr><th>Test</th><th>28-Mar-2024</th><th>Reference&#xA0;Range</th><th>Unit</th></tr><tr><td>Calcium [Mass/volume] in Blood</td><td>9.7</td><td>8.6 - 10.2</td><td></td><td>mg/dL</td></tr></table></div>"
        },
        "status": "final",
        "subject": {
          "reference": "urn:uuid:64c7b8bb-0866-42cc-9ff2-2478ecdb64c4",
          "display": "Pelayo Casal"
        },
        "effectiveDateTime": "2024-03-28T05:38:59Z",
        "specimen": {
          "reference": "urn:uuid:5b00e993-a213-4585-bdd5-b04791d4b07f"
        }
      }
    },
    {
      "fullUrl": "urn:uuid:8c71f880-04d6-47e9-a150-217a68949b14",
      "resource": {
        "resourceType": "Observation",
        "id": "8c71f880-04d6-47e9-a150-217a68949b14",
        "meta": {
          "profile": [
            "http://hl7.eu/fhir/laboratory/StructureDefinition/Observation-resultslab-eu-lab"
          ]
        },
        "performer": [
          {
            "display": "The Central European Lab"
          }
        ],
        "category": [
          {
            "coding": [
              {
                "system": "http://terminology.hl7.org/CodeSystem/observation-category",
                "code": "laboratory"
              }
            ]
          }
        ],
        "code": {
          "coding": [
            {
              "code": "2947-0",
              "system": "http://loinc.org",
              "display": "Sodium [Moles/volume] in Blood"
            }
          ],
          "text": "Sodium [Moles/volume] in Blood"
        },
        "valueQuantity": {
          "system": "http://unitsofmeasure.org",
          "value": 139,
          "unit": "mmol/L",
          "code": "mmol/L"
        },
        "referenceRange": [
          {
            "low": {
              "value": 135,
              "code": "mmol/L",
              "system": "http://unitsofmeasure.org"
            }
          },
          {
            "high": {
              "value": 145,
              "code": "mmol/L",
              "system": "http://unitsofmeasure.org"
            }
          }
        ],
        "text": {
          "status": "generated",
          "div": "<div xmlns=\"http://www.w3.org/1999/xhtml\"><table class=\"hl7__eu__lab__report\"><tr><th>Test</th><th>28-Mar-2024</th><th>Reference&#xA0;Range</th><th>Unit</th></tr><tr><td>Sodium [Moles/volume] in Blood</td><td>139.0</td><td>135 - 145</td><td></td><td>mmol/L</td></tr></table></div>"
        },
        "status": "final",
        "subject": {
          "reference": "urn:uuid:64c7b8bb-0866-42cc-9ff2-2478ecdb64c4",
          "display": "Pelayo Casal"
        },
        "effectiveDateTime": "2024-03-28T05:38:59Z",
        "specimen": {
          "reference": "urn:uuid:5b00e993-a213-4585-bdd5-b04791d4b07f"
        }
      }
    },
    {
      "fullUrl": "urn:uuid:b10a932f-70d6-4a3a-bd64-3b3df3718b5c",
      "resource": {
        "resourceType": "Observation",
        "id": "b10a932f-70d6-4a3a-bd64-3b3df3718b5c",
        "meta": {
          "profile": [
            "http://hl7.eu/fhir/laboratory/StructureDefinition/Observation-resultslab-eu-lab"
          ]
        },
        "performer": [
          {
            "display": "The Central European Lab"
          }
        ],
        "category": [
          {
            "coding": [
              {
                "system": "http://terminology.hl7.org/CodeSystem/observation-category",
                "code": "laboratory"
              }
            ]
          }
        ],
        "code": {
          "coding": [
            {
              "code": "6298-4",
              "system": "http://loinc.org",
              "display": "Potassium [Moles/volume] in Blood"
            }
          ],
          "text": "Potassium [Moles/volume] in Blood"
        },
        "valueQuantity": {
          "system": "http://unitsofmeasure.org",
          "value": 3.9,
          "unit": "mmol/L",
          "code": "mmol/L"
        },
        "referenceRange": [
          {
            "low": {
              "value": 3.5,
              "code": "mmol/L",
              "system": "http://unitsofmeasure.org"
            }
          },
          {
            "high": {
              "value": 5.1,
              "code": "mmol/L",
              "system": "http://unitsofmeasure.org"
            }
          }
        ],
        "text": {
          "status": "generated",
          "div": "<div xmlns=\"http://www.w3.org/1999/xhtml\"><table class=\"hl7__eu__lab__report\"><tr><th>Test</th><th>28-Mar-2024</th><th>Reference&#xA0;Range</th><th>Unit</th></tr><tr><td>Potassium [Moles/volume] in Blood</td><td>3.9</td><td>3.5 - 5.1</td><td></td><td>mmol/L</td></tr></table></div>"
        },
        "status": "final",
        "subject": {
          "reference": "urn:uuid:64c7b8bb-0866-42cc-9ff2-2478ecdb64c4",
          "display": "Pelayo Casal"
        },
        "effectiveDateTime": "2024-03-28T05:38:59Z",
        "specimen": {
          "reference": "urn:uuid:5b00e993-a213-4585-bdd5-b04791d4b07f"
        }
      }
    },
    {
      "fullUrl": "urn:uuid:f6879667-11a6-41b1-8bce-4dadfa557ddb",
      "resource": {
        "resourceType": "Observation",
        "id": "f6879667-11a6-41b1-8bce-4dadfa557ddb",
        "meta": {
          "profile": [
            "http://hl7.eu/fhir/laboratory/StructureDefinition/Observation-resultslab-eu-lab"
          ]
        },
        "performer": [
          {
            "display": "The Central European Lab"
          }
        ],
        "category": [
          {
            "coding": [
              {
                "system": "http://terminology.hl7.org/CodeSystem/observation-category",
                "code": "laboratory"
              }
            ]
          }
        ],
        "code": {
          "coding": [
            {
              "code": "2069-3",
              "system": "http://loinc.org",
              "display": "Chloride [Moles/volume] in Blood"
            }
          ],
          "text": "Chloride [Moles/volume] in Blood"
        },
        "valueQuantity": {
          "system": "http://unitsofmeasure.org",
          "value": 110.4,
          "unit": "mmol/L",
          "code": "mmol/L"
        },
        "referenceRange": [
          {
            "low": {
              "value": 98,
              "code": "mmol/L",
              "system": "http://unitsofmeasure.org"
            }
          },
          {
            "high": {
              "value": 108,
              "code": "mmol/L",
              "system": "http://unitsofmeasure.org"
            }
          }
        ],
        "interpretation": [
          {
            "coding": [
              {
                "code": "H",
                "system": "http://terminology.hl7.org/CodeSystem/v3-ObservationInterpretation",
                "display": "High"
              }
            ]
          }
        ],
        "text": {
          "status": "generated",
          "div": "<div xmlns=\"http://www.w3.org/1999/xhtml\"><table class=\"hl7__eu__lab__report\"><tr><th>Test</th><th>28-Mar-2024</th><th>Reference&#xA0;Range</th><th>Unit</th></tr><tr><td>Chloride [Moles/volume] in Blood</td><td>110.4</td><td>98 - 108</td><td>H</td><td>mmol/L</td></tr></table></div>"
        },
        "status": "final",
        "subject": {
          "reference": "urn:uuid:64c7b8bb-0866-42cc-9ff2-2478ecdb64c4",
          "display": "Pelayo Casal"
        },
        "effectiveDateTime": "2024-03-28T05:38:59Z",
        "specimen": {
          "reference": "urn:uuid:5b00e993-a213-4585-bdd5-b04791d4b07f"
        }
      }
    },
    {
      "fullUrl": "urn:uuid:c830fbe8-1026-4296-ad24-d7ca7db9455e",
      "resource": {
        "resourceType": "Observation",
        "id": "c830fbe8-1026-4296-ad24-d7ca7db9455e",
        "meta": {
          "profile": [
            "http://hl7.eu/fhir/laboratory/StructureDefinition/Observation-resultslab-eu-lab"
          ]
        },
        "performer": [
          {
            "display": "The Central European Lab"
          }
        ],
        "category": [
          {
            "coding": [
              {
                "system": "http://terminology.hl7.org/CodeSystem/observation-category",
                "code": "laboratory"
              }
            ]
          }
        ],
        "code": {
          "coding": [
            {
              "code": "20565-8",
              "system": "http://loinc.org",
              "display": "Carbon dioxide, total [Moles/volume] in Blood"
            }
          ],
          "text": "Carbon dioxide, total [Moles/volume] in Blood"
        },
        "valueQuantity": {
          "system": "http://unitsofmeasure.org",
          "value": 23,
          "unit": "mmol/L",
          "code": "mmol/L"
        },
        "referenceRange": [
          {
            "low": {
              "value": 22,
              "code": "mmol/L",
              "system": "http://unitsofmeasure.org"
            }
          },
          {
            "high": {
              "value": 32,
              "code": "mmol/L",
              "system": "http://unitsofmeasure.org"
            }
          }
        ],
        "text": {
          "status": "generated",
          "div": "<div xmlns=\"http://www.w3.org/1999/xhtml\"><table class=\"hl7__eu__lab__report\"><tr><th>Test</th><th>28-Mar-2024</th><th>Reference&#xA0;Range</th><th>Unit</th></tr><tr><td>Carbon dioxide, total [Moles/volume] in Blood</td><td>23.0</td><td>22 - 32</td><td></td><td>mmol/L</td></tr></table></div>"
        },
        "status": "final",
        "subject": {
          "reference": "urn:uuid:64c7b8bb-0866-42cc-9ff2-2478ecdb64c4",
          "display": "Pelayo Casal"
        },
        "effectiveDateTime": "2024-03-28T05:38:59Z",
        "specimen": {
          "reference": "urn:uuid:5b00e993-a213-4585-bdd5-b04791d4b07f"
        }
      }
    },
    {
      "fullUrl": "urn:uuid:0e22c9e8-4aa8-4bc8-9ca7-c6c6fdd8d65e",
      "resource": {
        "resourceType": "Device",
        "id": "0e22c9e8-4aa8-4bc8-9ca7-c6c6fdd8d65e",
        "deviceName": [
          {
            "name": "SYNDERAI Synthetic Generator",
            "type": "manufacturer-name"
          }
        ],
        "version": [
          {
            "value": "5.0"
          }
        ],
        "text": {
          "status": "generated",
          "div": "<div xmlns=\"http://www.w3.org/1999/xhtml\">SYNDERAI Synthetic Generator v5.0</div>"
        },
        "status": "active\"",
        "distinctIdentifier": "synderai-generator-50",
        "manufacturer": "SYNDERAI Project"
      }
    },
    {
      "fullUrl": "urn:uuid:07e84941-8883-465c-ad99-fae6e9b6d56e",
      "resource": {
        "resourceType": "Provenance",
        "id": "07e84941-8883-465c-ad99-fae6e9b6d56e",
        "target": [
          {
            "reference": "Patient/64c7b8bb-0866-42cc-9ff2-2478ecdb64c4"
          },
          {
            "reference": "Bundle/facfda11-3ec0-4c4a-a2cf-3ee64af76e15"
          },
          {
            "reference": "Composition/c4314e25-decc-4dfa-9e31-2de2bcf8d06c"
          },
          {
            "reference": "PractitionerRole/64f83117-34b8-46e2-8d5f-b189fdba51af"
          },
          {
            "reference": "Practitioner/7d2b06aa-4bf0-4adf-9afa-d7cc1bf2e44c"
          },
          {
            "reference": "PractitionerRole/08b57ff5-0403-44c3-9304-9586a84f4c1f"
          },
          {
            "reference": "Organization/7c156393-ac92-4754-bd62-93a5bfe123b5"
          }
        ],
        "activity": {
          "text": "Synthetic Example Data Generation"
        },
        "policy": [
          "https://synderai.net/synderai-synthetic-data-policy"
        ],
        "agent": [
          {
            "type": {
              "text": "author"
            },
            "who": {
              "reference": "Device/0e22c9e8-4aa8-4bc8-9ca7-c6c6fdd8d65e"
            }
          }
        ],
        "reason": [
          {
            "text": "Interoperability Testing and Training (non-clinical use)"
          }
        ],
        "text": {
          "status": "generated",
          "div": "<div xmlns=\"http://www.w3.org/1999/xhtml\">Provenance for SYNDERAI Synthetic Example Data Resource</div>"
        },
        "recorded": "2024-03-28T06:38:59Z"
      }
    },
    {
      "fullUrl": "urn:uuid:64f83117-34b8-46e2-8d5f-b189fdba51af",
      "resource": {
        "resourceType": "PractitionerRole",
        "id": "64f83117-34b8-46e2-8d5f-b189fdba51af",
        "meta": {
          "profile": [
            "http://hl7.eu/fhir/base/StructureDefinition/practitionerRole-eu"
          ]
        },
        "text": {
          "status": "generated",
          "div": "<div xmlns=\"http://www.w3.org/1999/xhtml\">Laboratory Role Id: 64f83117-34b8-46e2-8d5f-b189fdba51af</div>"
        },
        "practitioner": {
          "reference": "urn:uuid:7d2b06aa-4bf0-4adf-9afa-d7cc1bf2e44c"
        }
      }
    },
    {
      "fullUrl": "urn:uuid:7d2b06aa-4bf0-4adf-9afa-d7cc1bf2e44c",
      "resource": {
        "resourceType": "Practitioner",
        "id": "7d2b06aa-4bf0-4adf-9afa-d7cc1bf2e44c",
        "meta": {
          "profile": [
            "http://hl7.eu/fhir/base/StructureDefinition/practitioner-eu"
          ]
        },
        "identifier": [
          {
            "assigner": {
              "display": "HL7 Europe"
            },
            "system": "urn:oid:2.16.840.1.113883.2.51.999",
            "value": "7cff840a-a195-4cf2-90ac-1360acda4683"
          }
        ],
        "name": [
          {
            "prefix": [
              "dr"
            ],
            "given": [
              "Ex"
            ],
            "family": "Ample"
          }
        ],
        "address": [
          {
            "line": [
              "Laboratoire Central Européenne",
              "Boulevard du Jardin Botanique 32"
            ],
            "postalCode": "1000",
            "city": "Brussels",
            "country": "Belgium"
          }
        ],
        "text": {
          "status": "generated",
          "div": "<div xmlns=\"http://www.w3.org/1999/xhtml\">Laboratory: Laboratoire Central Européenne, 1000 Brussels, Belgium</div>"
        }
      }
    }
  ],
  "type": "document",
  "timestamp": "2024-03-28T06:38:59Z"
}
