{
  "resourceType": "Bundle",
  "id": "42e5d1da-2d51-4649-b5e5-a4c959580c9c",
  "meta": {
    "profile": [
      "http://hl7.eu/fhir/laboratory/StructureDefinition/Bundle-eu-lab"
    ]
  },
  "identifier": {
    "assigner": {
      "display": "HL7 Europe"
    },
    "system": "urn:oid:2.16.840.1.113883.2.51.999",
    "value": "e5163da7-f390-4a90-9e84-b2ffb782a171"
  },
  "entry": [
    {
      "fullUrl": "urn:uuid:4967c281-1479-4783-b6bc-aabc1da5fd92",
      "resource": {
        "resourceType": "Composition",
        "id": "4967c281-1479-4783-b6bc-aabc1da5fd92",
        "meta": {
          "profile": [
            "http://hl7.eu/fhir/laboratory/StructureDefinition/Composition-eu-lab"
          ]
        },
        "identifier": {
          "assigner": {
            "display": "HL7 Europe"
          },
          "system": "urn:oid:2.16.840.1.113883.2.51.999",
          "value": "66b1b917-00c6-4e1a-8d3c-f9a2c921fcf1"
        },
        "author": [
          {
            "reference": "urn:uuid:a7cd3b2a-8392-4238-8b48-eead9e9c27b3"
          }
        ],
        "category": [
          {
            "coding": [
              {
                "code": "26436-6",
                "system": "http://loinc.org",
                "display": "Laboratory studies (set)"
              }
            ]
          }
        ],
        "type": {
          "coding": [
            {
              "code": "11502-2",
              "system": "http://loinc.org",
              "display": "Laboratory report"
            }
          ],
          "text": "Laboratory Report"
        },
        "section": [
          {
            "code": {
              "coding": [
                {
                  "code": "26436-6",
                  "system": "http://loinc.org",
                  "display": "Laboratory studies (set)"
                }
              ],
              "text": "Laboratory studies"
            },
            "section": [
              {
                "code": {
                  "coding": [
                    {
                      "code": "$18723-7",
                      "system": "http://loinc.org",
                      "display": "Hematology studies (set)"
                    }
                  ],
                  "text": "Hematology"
                },
                "entry": [
                  {
                    "reference": "urn:uuid:0a2992e1-a766-4697-af47-3c1ec877be71"
                  },
                  {
                    "reference": "urn:uuid:b1a5d9f5-6839-4487-a17d-a155bc0782b7"
                  },
                  {
                    "reference": "urn:uuid:2e24a426-df39-4068-89c9-1a0332a00bb6"
                  },
                  {
                    "reference": "urn:uuid:6d238b11-61f0-4bb0-b0e9-1880105d8281"
                  },
                  {
                    "reference": "urn:uuid:204e133d-c0df-4fb2-ad82-0a6851b58803"
                  },
                  {
                    "reference": "urn:uuid:013dd0eb-c97e-4073-9841-2db2939f0d95"
                  },
                  {
                    "reference": "urn:uuid:a437a869-c6a9-42ec-85bf-23038c7f2096"
                  },
                  {
                    "reference": "urn:uuid:c972254f-82aa-49e4-99c6-5618235d1054"
                  },
                  {
                    "reference": "urn:uuid:338d10e1-5af3-4893-b59e-51a69d1d5564"
                  },
                  {
                    "reference": "urn:uuid:2e094c6a-8f3e-42c2-ac7b-6e3e4b272e32"
                  },
                  {
                    "reference": "urn:uuid:d90b067a-f404-4da4-be1c-6d55082421b1"
                  }
                ],
                "text": {
                  "status": "generated",
                  "div": "<div xmlns=\"http://www.w3.org/1999/xhtml\"><h3>Hematology</h3><table class=\"hl7__eu__lab__report\"><thead><tr><th>Test</th><th>13-JAN-2016</th><th>Reference&#xA0;Range</th><th>Unit</th></tr></thead><tbody><tr><td>Leukocytes [#/volume] in Blood by Automated count</td><td>6.4</td><td>3.6 - 10.5</td><td>10*3/uL</td></tr><tr><td>Erythrocytes [#/volume] in Blood by Automated count</td><td>4.6</td><td>3.9 - 5.2</td><td>10*6/uL</td></tr><tr><td>Hemoglobin [Mass/volume] in Blood</td><td><strong>17.3 H</strong></td><td>12 - 16</td><td>g/dL</td></tr><tr><td>Hematocrit [Volume Fraction] of Blood by Automated count</td><td>48.6</td><td>37 - 52</td><td>%</td></tr><tr><td>MCV [Entitic volume] by Automated count</td><td>85.5</td><td>82 - 98</td><td>fL</td></tr><tr><td>MCH [Entitic mass] by Automated count</td><td>31.6</td><td>27 - 33</td><td>pg</td></tr><tr><td>MCHC [Mass/volume] by Automated count</td><td>35.7</td><td>31 - 36</td><td>g/dL</td></tr><tr><td>Erythrocyte distribution width [Entitic volume] by Automated count</td><td>41.2</td><td>36 - 56</td><td>fL</td></tr><tr><td>Platelets [#/volume] in Blood by Automated count</td><td>339.0</td><td>150 - 450</td><td>10*3/uL</td></tr><tr><td>Platelet distribution width [Entitic volume] in Blood by Automated count</td><td><strong>443.4 H</strong></td><td>11.6 - 17.4</td><td>fL</td></tr><tr><td>Platelet mean volume [Entitic volume] in Blood by Automated count</td><td>12.2</td><td>7.4 - 13.4</td><td>fL</td></tr></tbody></table></div>"
                },
                "title": "Hematology"
              },
              {
                "code": {
                  "coding": [
                    {
                      "code": "$18719-5",
                      "system": "http://loinc.org",
                      "display": "Chemistry studies (set)"
                    }
                  ],
                  "text": "Chemistry"
                },
                "entry": [
                  {
                    "reference": "urn:uuid:187dee16-da2a-45e1-823f-a88a156389f8"
                  },
                  {
                    "reference": "urn:uuid:352779ed-9806-4cbb-a3df-b4813c39a0c7"
                  },
                  {
                    "reference": "urn:uuid:4cd0ca41-7633-48e3-90a6-d7abcf952a99"
                  },
                  {
                    "reference": "urn:uuid:9f31a607-5f4f-470a-86a3-2c991a13ef71"
                  },
                  {
                    "reference": "urn:uuid:e75e8c3e-e908-42ca-8d80-21d164ff9225"
                  },
                  {
                    "reference": "urn:uuid:15d9cf30-ce78-4740-b5b8-314fe4a97d69"
                  },
                  {
                    "reference": "urn:uuid:bad06a5e-cbe0-4769-a6ab-8bb122216eb5"
                  },
                  {
                    "reference": "urn:uuid:2875f9f7-c971-4732-a972-528d6a0f34eb"
                  },
                  {
                    "reference": "urn:uuid:f233c001-61ef-446a-a843-e25a76ab127a"
                  }
                ],
                "text": {
                  "status": "generated",
                  "div": "<div xmlns=\"http://www.w3.org/1999/xhtml\"><h3>Chemistry</h3><table class=\"hl7__eu__lab__report\"><thead><tr><th>Test</th><th>13-JAN-2016</th><th>Reference&#xA0;Range</th><th>Unit</th></tr></thead><tbody><tr><td>Hemoglobin A1c/Hemoglobin.total in Blood</td><td><strong>6.3 H</strong></td><td>4 - 6</td><td>%</td></tr><tr><td>Glucose [Mass/volume] in Blood</td><td>73.0</td><td>70 - 140</td><td>mg/dL</td></tr><tr><td>Urea nitrogen [Mass/volume] in Blood</td><td>17.9</td><td>7 - 50</td><td>mg/dL</td></tr><tr><td>Creatinine [Mass/volume] in Blood</td><td>0.8</td><td>0.5 - 1.3</td><td>mg/dL</td></tr><tr><td>Calcium [Mass/volume] in Blood</td><td>9.0</td><td>8.5 - 10.4</td><td>mg/dL</td></tr><tr><td>Sodium [Moles/volume] in Blood</td><td>143.2</td><td>135 - 145</td><td>mmol/L</td></tr><tr><td>Potassium [Moles/volume] in Blood</td><td>4.0</td><td>3.5 - 5.3</td><td>mmol/L</td></tr><tr><td>Chloride [Moles/volume] in Blood</td><td>102.2</td><td>98 - 110</td><td>mmol/L</td></tr><tr><td>Carbon dioxide, total [Moles/volume] in Blood</td><td><strong>21.3 L</strong></td><td>22 - 32</td><td>mmol/L</td></tr></tbody></table></div>"
                },
                "title": "Chemistry"
              }
            ],
            "title": "Laboratory Report"
          },
          {
            "text": {
              "status": "generated",
              "div": "<div xmlns=\"http://www.w3.org/1999/xhtml\"><h3>Annotation</h3><table class=\"hl7__eu__lab__report\"><tr><th>Conclusion and Recommendations based on this report and previous findings known to us</th></tr><tr><td>The patient shows mildly elevated HbA1c, indicating suboptimal long-term glucose control, suggestive of prediabetes or diabetes. Hemoglobin is slightly elevated, which may reflect dehydration or other causes. Total CO2 is mildly decreased, possibly indicating mild metabolic acidosis or compensation. All other parameters, including renal function, electrolytes, and blood counts, are within normal limits. Recommend clinical correlation and follow-up for glycemic control and further evaluation of elevated hemoglobin and low CO2.</td></tr></table></div>"
            },
            "code": {
              "coding": [
                {
                  "system": "http://loinc.org",
                  "code": "48767-8",
                  "display": "Annotation comment"
                }
              ]
            },
            "title": "Annotation comment"
          }
        ],
        "status": "final",
        "subject": {
          "reference": "urn:uuid:a755a16b-856b-4ab0-9d6c-0b9509f65b24",
          "display": "Jele Jurković"
        },
        "date": "2016-01-13T19:07:38Z",
        "title": "Laboratory Report",
        "confidentiality": "N"
      }
    },
    {
      "fullUrl": "urn:uuid:ed949d9e-c8a5-4677-9703-ed0cd7cf25d2",
      "resource": {
        "resourceType": "DiagnosticReport",
        "id": "ed949d9e-c8a5-4677-9703-ed0cd7cf25d2",
        "meta": {
          "profile": [
            "http://hl7.eu/fhir/laboratory/StructureDefinition/DiagnosticReport-eu-lab"
          ]
        },
        "identifier": [
          {
            "assigner": {
              "display": "HL7 Europe"
            },
            "system": "urn:oid:2.16.840.1.113883.2.51.999",
            "value": "a09462d6-63aa-4554-a57e-98b8b73fa587"
          }
        ],
        "extension": [
          {
            "url": "http://hl7.org/fhir/5.0/StructureDefinition/extension-DiagnosticReport.composition",
            "valueReference": {
              "reference": "urn:uuid:66b1b917-00c6-4e1a-8d3c-f9a2c921fcf1"
            }
          }
        ],
        "category": [
          {
            "coding": [
              {
                "code": "26436-6",
                "system": "http://loinc.org",
                "display": "Laboratory studies (set)"
              }
            ]
          }
        ],
        "specimen": [
          {
            "reference": "urn:uuid:3a108600-4af0-41a9-9edd-6e2a082c43da"
          },
          {
            "reference": "urn:uuid:3a108600-4af0-41a9-9edd-6e2a082c43da"
          }
        ],
        "result": [
          {
            "reference": "urn:uuid:187dee16-da2a-45e1-823f-a88a156389f8"
          },
          {
            "reference": "urn:uuid:352779ed-9806-4cbb-a3df-b4813c39a0c7"
          },
          {
            "reference": "urn:uuid:4cd0ca41-7633-48e3-90a6-d7abcf952a99"
          },
          {
            "reference": "urn:uuid:9f31a607-5f4f-470a-86a3-2c991a13ef71"
          },
          {
            "reference": "urn:uuid:e75e8c3e-e908-42ca-8d80-21d164ff9225"
          },
          {
            "reference": "urn:uuid:15d9cf30-ce78-4740-b5b8-314fe4a97d69"
          },
          {
            "reference": "urn:uuid:bad06a5e-cbe0-4769-a6ab-8bb122216eb5"
          },
          {
            "reference": "urn:uuid:2875f9f7-c971-4732-a972-528d6a0f34eb"
          },
          {
            "reference": "urn:uuid:f233c001-61ef-446a-a843-e25a76ab127a"
          },
          {
            "reference": "urn:uuid:0a2992e1-a766-4697-af47-3c1ec877be71"
          },
          {
            "reference": "urn:uuid:b1a5d9f5-6839-4487-a17d-a155bc0782b7"
          },
          {
            "reference": "urn:uuid:2e24a426-df39-4068-89c9-1a0332a00bb6"
          },
          {
            "reference": "urn:uuid:6d238b11-61f0-4bb0-b0e9-1880105d8281"
          },
          {
            "reference": "urn:uuid:204e133d-c0df-4fb2-ad82-0a6851b58803"
          },
          {
            "reference": "urn:uuid:013dd0eb-c97e-4073-9841-2db2939f0d95"
          },
          {
            "reference": "urn:uuid:a437a869-c6a9-42ec-85bf-23038c7f2096"
          },
          {
            "reference": "urn:uuid:c972254f-82aa-49e4-99c6-5618235d1054"
          },
          {
            "reference": "urn:uuid:338d10e1-5af3-4893-b59e-51a69d1d5564"
          },
          {
            "reference": "urn:uuid:2e094c6a-8f3e-42c2-ac7b-6e3e4b272e32"
          },
          {
            "reference": "urn:uuid:d90b067a-f404-4da4-be1c-6d55082421b1"
          }
        ],
        "status": "registered",
        "code": {
          "coding": [
            {
              "code": "11502-2",
              "system": "http://loinc.org",
              "display": "Laboratory report"
            }
          ]
        },
        "subject": {
          "reference": "urn:uuid:a755a16b-856b-4ab0-9d6c-0b9509f65b24",
          "display": "Jele Jurković"
        }
      }
    },
    {
      "fullUrl": "urn:uuid:a755a16b-856b-4ab0-9d6c-0b9509f65b24",
      "resource": {
        "resourceType": "Patient",
        "id": "a755a16b-856b-4ab0-9d6c-0b9509f65b24",
        "meta": {
          "security": [
            {
              "system": "http://terminology.hl7.org/CodeSystem/v3-ActReason",
              "code": "HTEST"
            },
            {
              "system": "http://terminology.hl7.org/CodeSystem/v3-ActReason",
              "code": "TRAIN"
            }
          ],
          "tag": [
            {
              "system": "https://synderai.net/fhir/CodeSystem/tags",
              "code": "synthetic",
              "display": "SYNDERAI Synthetic data"
            }
          ],
          "profile": [
            "http://hl7.eu/fhir/base/StructureDefinition/patient-eu-core"
          ]
        },
        "identifier": [
          {
            "type": {
              "coding": [
                {
                  "code": "PT",
                  "system": "http://terminology.hl7.org/CodeSystem/v2-0203"
                }
              ]
            },
            "system": "http://ec.europa.eu/identifier/eci",
            "value": "3583-291434-1"
          },
          {
            "type": {
              "coding": [
                {
                  "code": "MR",
                  "system": "http://terminology.hl7.org/CodeSystem/v2-0203"
                }
              ]
            },
            "system": "http://local.setting.eu/identifier",
            "value": "9d4fea2d-eece-b99f-3e16-832f0f5813f5"
          }
        ],
        "name": [
          {
            "family": "Jurković"
          },
          {
            "given": [
              "Jele"
            ]
          },
          {
            "text": "Jele Jurković"
          }
        ],
        "address": [
          {
            "line": [
              "Klesarski put 7b/8"
            ],
            "use": "home",
            "type": "physical",
            "postalCode": "34310",
            "city": "Pleternica",
            "country": "Croatia"
          }
        ],
        "telecom": [
          {
            "system": "phone",
            "value": "021 083 354"
          }
        ],
        "extension": [
          {
            "url": "http://hl7.org/fhir/StructureDefinition/patient-nationality",
            "valueCodeableConcept": {
              "coding": [
                {
                  "code": "HR",
                  "system": "http://hl7.org/fhir/ValueSet/country"
                }
              ]
            }
          }
        ],
        "text": {
          "status": "generated",
          "div": "<div xmlns=\"http://www.w3.org/1999/xhtml\"><table class=\"hl7__ips\"><tr><td>Jele Jurković</td><td>female</td><td>07-Jan-1953</td></tr></table></div>"
        },
        "gender": "female",
        "birthDate": "1953-01-07"
      }
    },
    {
      "fullUrl": "urn:uuid:bcc8e3bc-6908-4360-bdaa-bff40023fa1e",
      "resource": {
        "resourceType": "ServiceRequest",
        "id": "bcc8e3bc-6908-4360-bdaa-bff40023fa1e",
        "meta": {
          "profile": [
            "http://hl7.eu/fhir/laboratory/StructureDefinition/ServiceRequest-eu-lab"
          ]
        },
        "identifier": [
          {
            "system": "http://example.org",
            "value": "9fbbb99b-5ce3-4de3-8d31-1156bbb997e6"
          }
        ],
        "specimen": [
          {
            "reference": "urn:uuid:3a108600-4af0-41a9-9edd-6e2a082c43da"
          }
        ],
        "reasonCode": [
          {
            "coding": [
              {
                "code": "64859006",
                "system": "http://snomed.info/sct",
                "display": "Osteoporosis"
              }
            ]
          },
          {
            "coding": [
              {
                "code": "6525002",
                "system": "http://snomed.info/sct",
                "display": "Dependent drug abuse"
              }
            ]
          },
          {
            "coding": [
              {
                "code": "15777000",
                "system": "http://snomed.info/sct",
                "display": "Prediabetes"
              }
            ]
          }
        ],
        "status": "active",
        "intent": "order",
        "code": {
          "coding": [
            {
              "code": "108252007",
              "system": "http://snomed.info/sct",
              "display": "Laboratory procedure"
            }
          ]
        },
        "subject": {
          "reference": "urn:uuid:a755a16b-856b-4ab0-9d6c-0b9509f65b24",
          "display": "Jele Jurković"
        },
        "requester": {
          "reference": "urn:uuid:5b3307dd-03a3-4d4d-9e35-8d9b888fbf5b"
        }
      }
    },
    {
      "fullUrl": "urn:uuid:5b3307dd-03a3-4d4d-9e35-8d9b888fbf5b",
      "resource": {
        "resourceType": "PractitionerRole",
        "id": "5b3307dd-03a3-4d4d-9e35-8d9b888fbf5b",
        "meta": {
          "profile": [
            "http://hl7.eu/fhir/base/StructureDefinition/practitionerRole-eu"
          ]
        },
        "text": {
          "status": "generated",
          "div": "<div xmlns=\"http://www.w3.org/1999/xhtml\">Provider Role Id: 5b3307dd-03a3-4d4d-9e35-8d9b888fbf5b</div>"
        },
        "organization": {
          "reference": "urn:uuid:1afa54af-53fa-407b-a73b-633f3ef8bdd9"
        }
      }
    },
    {
      "fullUrl": "urn:uuid:1afa54af-53fa-407b-a73b-633f3ef8bdd9",
      "resource": {
        "resourceType": "Organization",
        "id": "1afa54af-53fa-407b-a73b-633f3ef8bdd9",
        "meta": {
          "profile": [
            "http://hl7.eu/fhir/base/StructureDefinition/organization-eu"
          ]
        },
        "identifier": [
          {
            "assigner": {
              "display": "HL7 Europe"
            },
            "system": "urn:oid:2.16.840.1.113883.2.51.999",
            "value": "4270f605-aec2-4967-93d9-3783ce34f101"
          }
        ],
        "address": [
          {
            "line": [
              "Osječka ulica 107"
            ],
            "city": "Požega",
            "postalCode": "34000",
            "country": "Croatia"
          }
        ],
        "text": {
          "status": "generated",
          "div": "<div xmlns=\"http://www.w3.org/1999/xhtml\">Provider Organization: Opća županijska bolnica Požega</div>"
        },
        "name": "Opća županijska bolnica Požega"
      }
    },
    {
      "fullUrl": "urn:uuid:3a108600-4af0-41a9-9edd-6e2a082c43da",
      "resource": {
        "resourceType": "Specimen",
        "id": "3a108600-4af0-41a9-9edd-6e2a082c43da",
        "meta": {
          "profile": [
            "http://hl7.eu/fhir/laboratory/StructureDefinition/Specimen-eu-lab"
          ]
        },
        "collection": {
          "collectedDateTime": "2016-01-13"
        },
        "text": {
          "status": "generated",
          "div": "<div xmlns=\"http://www.w3.org/1999/xhtml\"><table class=\"hl7__eu__lab__report\"><tr><th>Specimen</th><th>Collection Date</th></tr><tr><td>Whole blood specimen (specimen)</td><td><span class=\"nb\">13-Jan-2016</span></td></tr></table></div>"
        },
        "type": {
          "coding": [
            {
              "code": "258580003",
              "system": "http://snomed.info/sct",
              "display": "Whole blood specimen (specimen)"
            }
          ]
        }
      }
    },
    {
      "fullUrl": "urn:uuid:3a108600-4af0-41a9-9edd-6e2a082c43da",
      "resource": {
        "resourceType": "Specimen",
        "id": "3a108600-4af0-41a9-9edd-6e2a082c43da",
        "meta": {
          "profile": [
            "http://hl7.eu/fhir/laboratory/StructureDefinition/Specimen-eu-lab"
          ]
        },
        "collection": {
          "collectedDateTime": "2016-01-13"
        },
        "text": {
          "status": "generated",
          "div": "<div xmlns=\"http://www.w3.org/1999/xhtml\"><table class=\"hl7__eu__lab__report\"><tr><th>Specimen</th><th>Collection Date</th></tr><tr><td>Whole blood specimen (specimen)</td><td><span class=\"nb\">13-Jan-2016</span></td></tr></table></div>"
        },
        "type": {
          "coding": [
            {
              "code": "258580003",
              "system": "http://snomed.info/sct",
              "display": "Whole blood specimen (specimen)"
            }
          ]
        }
      }
    },
    {
      "fullUrl": "urn:uuid:187dee16-da2a-45e1-823f-a88a156389f8",
      "resource": {
        "resourceType": "Observation",
        "id": "187dee16-da2a-45e1-823f-a88a156389f8",
        "meta": {
          "profile": [
            "http://hl7.eu/fhir/laboratory/StructureDefinition/Observation-resultslab-eu-lab"
          ]
        },
        "performer": [
          {
            "display": "The Central European Lab"
          }
        ],
        "category": [
          {
            "coding": [
              {
                "system": "http://terminology.hl7.org/CodeSystem/observation-category",
                "code": "laboratory"
              }
            ]
          }
        ],
        "code": {
          "coding": [
            {
              "code": "4548-4",
              "system": "http://loinc.org",
              "display": "Hemoglobin A1c/Hemoglobin.total in Blood"
            }
          ],
          "text": "Hemoglobin A1c/Hemoglobin.total in Blood"
        },
        "valueQuantity": {
          "system": "http://unitsofmeasure.org",
          "value": 6.3,
          "unit": "%",
          "code": "%"
        },
        "referenceRange": [
          {
            "low": {
              "value": 4,
              "code": "%",
              "system": "http://unitsofmeasure.org"
            }
          },
          {
            "high": {
              "value": 6,
              "code": "%",
              "system": "http://unitsofmeasure.org"
            }
          }
        ],
        "interpretation": [
          {
            "coding": [
              {
                "code": "H",
                "system": "http://terminology.hl7.org/CodeSystem/v3-ObservationInterpretation",
                "display": "High"
              }
            ]
          }
        ],
        "text": {
          "status": "generated",
          "div": "<div xmlns=\"http://www.w3.org/1999/xhtml\"><table class=\"hl7__eu__lab__report\"><tr><th>Test</th><th>13-Jan-2016</th><th>Reference&#xA0;Range</th><th>Unit</th></tr><tr><td>Hemoglobin A1c/Hemoglobin.total in Blood</td><td>6.3</td><td>4 - 6</td><td>H</td><td>%</td></tr></table></div>"
        },
        "status": "final",
        "subject": {
          "reference": "urn:uuid:a755a16b-856b-4ab0-9d6c-0b9509f65b24",
          "display": "Jele Jurković"
        },
        "effectiveDateTime": "2016-01-13T18:07:38Z",
        "specimen": {
          "reference": "urn:uuid:3a108600-4af0-41a9-9edd-6e2a082c43da"
        }
      }
    },
    {
      "fullUrl": "urn:uuid:352779ed-9806-4cbb-a3df-b4813c39a0c7",
      "resource": {
        "resourceType": "Observation",
        "id": "352779ed-9806-4cbb-a3df-b4813c39a0c7",
        "meta": {
          "profile": [
            "http://hl7.eu/fhir/laboratory/StructureDefinition/Observation-resultslab-eu-lab"
          ]
        },
        "performer": [
          {
            "display": "The Central European Lab"
          }
        ],
        "category": [
          {
            "coding": [
              {
                "system": "http://terminology.hl7.org/CodeSystem/observation-category",
                "code": "laboratory"
              }
            ]
          }
        ],
        "code": {
          "coding": [
            {
              "code": "2339-0",
              "system": "http://loinc.org",
              "display": "Glucose [Mass/volume] in Blood"
            }
          ],
          "text": "Glucose [Mass/volume] in Blood"
        },
        "valueQuantity": {
          "system": "http://unitsofmeasure.org",
          "value": 73,
          "unit": "mg/dL",
          "code": "mg/dL"
        },
        "referenceRange": [
          {
            "low": {
              "value": 70,
              "code": "mg/dL",
              "system": "http://unitsofmeasure.org"
            }
          },
          {
            "high": {
              "value": 140,
              "code": "mg/dL",
              "system": "http://unitsofmeasure.org"
            }
          }
        ],
        "text": {
          "status": "generated",
          "div": "<div xmlns=\"http://www.w3.org/1999/xhtml\"><table class=\"hl7__eu__lab__report\"><tr><th>Test</th><th>13-Jan-2016</th><th>Reference&#xA0;Range</th><th>Unit</th></tr><tr><td>Glucose [Mass/volume] in Blood</td><td>73.0</td><td>70 - 140</td><td></td><td>mg/dL</td></tr></table></div>"
        },
        "status": "final",
        "subject": {
          "reference": "urn:uuid:a755a16b-856b-4ab0-9d6c-0b9509f65b24",
          "display": "Jele Jurković"
        },
        "effectiveDateTime": "2016-01-13T18:07:38Z",
        "specimen": {
          "reference": "urn:uuid:3a108600-4af0-41a9-9edd-6e2a082c43da"
        }
      }
    },
    {
      "fullUrl": "urn:uuid:4cd0ca41-7633-48e3-90a6-d7abcf952a99",
      "resource": {
        "resourceType": "Observation",
        "id": "4cd0ca41-7633-48e3-90a6-d7abcf952a99",
        "meta": {
          "profile": [
            "http://hl7.eu/fhir/laboratory/StructureDefinition/Observation-resultslab-eu-lab"
          ]
        },
        "performer": [
          {
            "display": "The Central European Lab"
          }
        ],
        "category": [
          {
            "coding": [
              {
                "system": "http://terminology.hl7.org/CodeSystem/observation-category",
                "code": "laboratory"
              }
            ]
          }
        ],
        "code": {
          "coding": [
            {
              "code": "6299-2",
              "system": "http://loinc.org",
              "display": "Urea nitrogen [Mass/volume] in Blood"
            }
          ],
          "text": "Urea nitrogen [Mass/volume] in Blood"
        },
        "valueQuantity": {
          "system": "http://unitsofmeasure.org",
          "value": 17.9,
          "unit": "mg/dL",
          "code": "mg/dL"
        },
        "referenceRange": [
          {
            "low": {
              "value": 7,
              "code": "mg/dL",
              "system": "http://unitsofmeasure.org"
            }
          },
          {
            "high": {
              "value": 50,
              "code": "mg/dL",
              "system": "http://unitsofmeasure.org"
            }
          }
        ],
        "text": {
          "status": "generated",
          "div": "<div xmlns=\"http://www.w3.org/1999/xhtml\"><table class=\"hl7__eu__lab__report\"><tr><th>Test</th><th>13-Jan-2016</th><th>Reference&#xA0;Range</th><th>Unit</th></tr><tr><td>Urea nitrogen [Mass/volume] in Blood</td><td>17.9</td><td>7 - 50</td><td></td><td>mg/dL</td></tr></table></div>"
        },
        "status": "final",
        "subject": {
          "reference": "urn:uuid:a755a16b-856b-4ab0-9d6c-0b9509f65b24",
          "display": "Jele Jurković"
        },
        "effectiveDateTime": "2016-01-13T18:07:38Z",
        "specimen": {
          "reference": "urn:uuid:3a108600-4af0-41a9-9edd-6e2a082c43da"
        }
      }
    },
    {
      "fullUrl": "urn:uuid:9f31a607-5f4f-470a-86a3-2c991a13ef71",
      "resource": {
        "resourceType": "Observation",
        "id": "9f31a607-5f4f-470a-86a3-2c991a13ef71",
        "meta": {
          "profile": [
            "http://hl7.eu/fhir/laboratory/StructureDefinition/Observation-resultslab-eu-lab"
          ]
        },
        "performer": [
          {
            "display": "The Central European Lab"
          }
        ],
        "category": [
          {
            "coding": [
              {
                "system": "http://terminology.hl7.org/CodeSystem/observation-category",
                "code": "laboratory"
              }
            ]
          }
        ],
        "code": {
          "coding": [
            {
              "code": "38483-4",
              "system": "http://loinc.org",
              "display": "Creatinine [Mass/volume] in Blood"
            }
          ],
          "text": "Creatinine [Mass/volume] in Blood"
        },
        "valueQuantity": {
          "system": "http://unitsofmeasure.org",
          "value": 0.8,
          "unit": "mg/dL",
          "code": "mg/dL"
        },
        "referenceRange": [
          {
            "low": {
              "value": 0.5,
              "code": "mg/dL",
              "system": "http://unitsofmeasure.org"
            }
          },
          {
            "high": {
              "value": 1.3,
              "code": "mg/dL",
              "system": "http://unitsofmeasure.org"
            }
          }
        ],
        "text": {
          "status": "generated",
          "div": "<div xmlns=\"http://www.w3.org/1999/xhtml\"><table class=\"hl7__eu__lab__report\"><tr><th>Test</th><th>13-Jan-2016</th><th>Reference&#xA0;Range</th><th>Unit</th></tr><tr><td>Creatinine [Mass/volume] in Blood</td><td>0.8</td><td>0.5 - 1.3</td><td></td><td>mg/dL</td></tr></table></div>"
        },
        "status": "final",
        "subject": {
          "reference": "urn:uuid:a755a16b-856b-4ab0-9d6c-0b9509f65b24",
          "display": "Jele Jurković"
        },
        "effectiveDateTime": "2016-01-13T18:07:38Z",
        "specimen": {
          "reference": "urn:uuid:3a108600-4af0-41a9-9edd-6e2a082c43da"
        }
      }
    },
    {
      "fullUrl": "urn:uuid:e75e8c3e-e908-42ca-8d80-21d164ff9225",
      "resource": {
        "resourceType": "Observation",
        "id": "e75e8c3e-e908-42ca-8d80-21d164ff9225",
        "meta": {
          "profile": [
            "http://hl7.eu/fhir/laboratory/StructureDefinition/Observation-resultslab-eu-lab"
          ]
        },
        "performer": [
          {
            "display": "The Central European Lab"
          }
        ],
        "category": [
          {
            "coding": [
              {
                "system": "http://terminology.hl7.org/CodeSystem/observation-category",
                "code": "laboratory"
              }
            ]
          }
        ],
        "code": {
          "coding": [
            {
              "code": "49765-1",
              "system": "http://loinc.org",
              "display": "Calcium [Mass/volume] in Blood"
            }
          ],
          "text": "Calcium [Mass/volume] in Blood"
        },
        "valueQuantity": {
          "system": "http://unitsofmeasure.org",
          "value": 9,
          "unit": "mg/dL",
          "code": "mg/dL"
        },
        "referenceRange": [
          {
            "low": {
              "value": 8.5,
              "code": "mg/dL",
              "system": "http://unitsofmeasure.org"
            }
          },
          {
            "high": {
              "value": 10.4,
              "code": "mg/dL",
              "system": "http://unitsofmeasure.org"
            }
          }
        ],
        "text": {
          "status": "generated",
          "div": "<div xmlns=\"http://www.w3.org/1999/xhtml\"><table class=\"hl7__eu__lab__report\"><tr><th>Test</th><th>13-Jan-2016</th><th>Reference&#xA0;Range</th><th>Unit</th></tr><tr><td>Calcium [Mass/volume] in Blood</td><td>9.0</td><td>8.5 - 10.4</td><td></td><td>mg/dL</td></tr></table></div>"
        },
        "status": "final",
        "subject": {
          "reference": "urn:uuid:a755a16b-856b-4ab0-9d6c-0b9509f65b24",
          "display": "Jele Jurković"
        },
        "effectiveDateTime": "2016-01-13T18:07:38Z",
        "specimen": {
          "reference": "urn:uuid:3a108600-4af0-41a9-9edd-6e2a082c43da"
        }
      }
    },
    {
      "fullUrl": "urn:uuid:15d9cf30-ce78-4740-b5b8-314fe4a97d69",
      "resource": {
        "resourceType": "Observation",
        "id": "15d9cf30-ce78-4740-b5b8-314fe4a97d69",
        "meta": {
          "profile": [
            "http://hl7.eu/fhir/laboratory/StructureDefinition/Observation-resultslab-eu-lab"
          ]
        },
        "performer": [
          {
            "display": "The Central European Lab"
          }
        ],
        "category": [
          {
            "coding": [
              {
                "system": "http://terminology.hl7.org/CodeSystem/observation-category",
                "code": "laboratory"
              }
            ]
          }
        ],
        "code": {
          "coding": [
            {
              "code": "2947-0",
              "system": "http://loinc.org",
              "display": "Sodium [Moles/volume] in Blood"
            }
          ],
          "text": "Sodium [Moles/volume] in Blood"
        },
        "valueQuantity": {
          "system": "http://unitsofmeasure.org",
          "value": 143.2,
          "unit": "mmol/L",
          "code": "mmol/L"
        },
        "referenceRange": [
          {
            "low": {
              "value": 135,
              "code": "mmol/L",
              "system": "http://unitsofmeasure.org"
            }
          },
          {
            "high": {
              "value": 145,
              "code": "mmol/L",
              "system": "http://unitsofmeasure.org"
            }
          }
        ],
        "text": {
          "status": "generated",
          "div": "<div xmlns=\"http://www.w3.org/1999/xhtml\"><table class=\"hl7__eu__lab__report\"><tr><th>Test</th><th>13-Jan-2016</th><th>Reference&#xA0;Range</th><th>Unit</th></tr><tr><td>Sodium [Moles/volume] in Blood</td><td>143.2</td><td>135 - 145</td><td></td><td>mmol/L</td></tr></table></div>"
        },
        "status": "final",
        "subject": {
          "reference": "urn:uuid:a755a16b-856b-4ab0-9d6c-0b9509f65b24",
          "display": "Jele Jurković"
        },
        "effectiveDateTime": "2016-01-13T18:07:38Z",
        "specimen": {
          "reference": "urn:uuid:3a108600-4af0-41a9-9edd-6e2a082c43da"
        }
      }
    },
    {
      "fullUrl": "urn:uuid:bad06a5e-cbe0-4769-a6ab-8bb122216eb5",
      "resource": {
        "resourceType": "Observation",
        "id": "bad06a5e-cbe0-4769-a6ab-8bb122216eb5",
        "meta": {
          "profile": [
            "http://hl7.eu/fhir/laboratory/StructureDefinition/Observation-resultslab-eu-lab"
          ]
        },
        "performer": [
          {
            "display": "The Central European Lab"
          }
        ],
        "category": [
          {
            "coding": [
              {
                "system": "http://terminology.hl7.org/CodeSystem/observation-category",
                "code": "laboratory"
              }
            ]
          }
        ],
        "code": {
          "coding": [
            {
              "code": "6298-4",
              "system": "http://loinc.org",
              "display": "Potassium [Moles/volume] in Blood"
            }
          ],
          "text": "Potassium [Moles/volume] in Blood"
        },
        "valueQuantity": {
          "system": "http://unitsofmeasure.org",
          "value": 4,
          "unit": "mmol/L",
          "code": "mmol/L"
        },
        "referenceRange": [
          {
            "low": {
              "value": 3.5,
              "code": "mmol/L",
              "system": "http://unitsofmeasure.org"
            }
          },
          {
            "high": {
              "value": 5.3,
              "code": "mmol/L",
              "system": "http://unitsofmeasure.org"
            }
          }
        ],
        "text": {
          "status": "generated",
          "div": "<div xmlns=\"http://www.w3.org/1999/xhtml\"><table class=\"hl7__eu__lab__report\"><tr><th>Test</th><th>13-Jan-2016</th><th>Reference&#xA0;Range</th><th>Unit</th></tr><tr><td>Potassium [Moles/volume] in Blood</td><td>4.0</td><td>3.5 - 5.3</td><td></td><td>mmol/L</td></tr></table></div>"
        },
        "status": "final",
        "subject": {
          "reference": "urn:uuid:a755a16b-856b-4ab0-9d6c-0b9509f65b24",
          "display": "Jele Jurković"
        },
        "effectiveDateTime": "2016-01-13T18:07:38Z",
        "specimen": {
          "reference": "urn:uuid:3a108600-4af0-41a9-9edd-6e2a082c43da"
        }
      }
    },
    {
      "fullUrl": "urn:uuid:2875f9f7-c971-4732-a972-528d6a0f34eb",
      "resource": {
        "resourceType": "Observation",
        "id": "2875f9f7-c971-4732-a972-528d6a0f34eb",
        "meta": {
          "profile": [
            "http://hl7.eu/fhir/laboratory/StructureDefinition/Observation-resultslab-eu-lab"
          ]
        },
        "performer": [
          {
            "display": "The Central European Lab"
          }
        ],
        "category": [
          {
            "coding": [
              {
                "system": "http://terminology.hl7.org/CodeSystem/observation-category",
                "code": "laboratory"
              }
            ]
          }
        ],
        "code": {
          "coding": [
            {
              "code": "2069-3",
              "system": "http://loinc.org",
              "display": "Chloride [Moles/volume] in Blood"
            }
          ],
          "text": "Chloride [Moles/volume] in Blood"
        },
        "valueQuantity": {
          "system": "http://unitsofmeasure.org",
          "value": 102.2,
          "unit": "mmol/L",
          "code": "mmol/L"
        },
        "referenceRange": [
          {
            "low": {
              "value": 98,
              "code": "mmol/L",
              "system": "http://unitsofmeasure.org"
            }
          },
          {
            "high": {
              "value": 110,
              "code": "mmol/L",
              "system": "http://unitsofmeasure.org"
            }
          }
        ],
        "text": {
          "status": "generated",
          "div": "<div xmlns=\"http://www.w3.org/1999/xhtml\"><table class=\"hl7__eu__lab__report\"><tr><th>Test</th><th>13-Jan-2016</th><th>Reference&#xA0;Range</th><th>Unit</th></tr><tr><td>Chloride [Moles/volume] in Blood</td><td>102.2</td><td>98 - 110</td><td></td><td>mmol/L</td></tr></table></div>"
        },
        "status": "final",
        "subject": {
          "reference": "urn:uuid:a755a16b-856b-4ab0-9d6c-0b9509f65b24",
          "display": "Jele Jurković"
        },
        "effectiveDateTime": "2016-01-13T18:07:38Z",
        "specimen": {
          "reference": "urn:uuid:3a108600-4af0-41a9-9edd-6e2a082c43da"
        }
      }
    },
    {
      "fullUrl": "urn:uuid:f233c001-61ef-446a-a843-e25a76ab127a",
      "resource": {
        "resourceType": "Observation",
        "id": "f233c001-61ef-446a-a843-e25a76ab127a",
        "meta": {
          "profile": [
            "http://hl7.eu/fhir/laboratory/StructureDefinition/Observation-resultslab-eu-lab"
          ]
        },
        "performer": [
          {
            "display": "The Central European Lab"
          }
        ],
        "category": [
          {
            "coding": [
              {
                "system": "http://terminology.hl7.org/CodeSystem/observation-category",
                "code": "laboratory"
              }
            ]
          }
        ],
        "code": {
          "coding": [
            {
              "code": "20565-8",
              "system": "http://loinc.org",
              "display": "Carbon dioxide, total [Moles/volume] in Blood"
            }
          ],
          "text": "Carbon dioxide, total [Moles/volume] in Blood"
        },
        "valueQuantity": {
          "system": "http://unitsofmeasure.org",
          "value": 21.3,
          "unit": "mmol/L",
          "code": "mmol/L"
        },
        "referenceRange": [
          {
            "low": {
              "value": 22,
              "code": "mmol/L",
              "system": "http://unitsofmeasure.org"
            }
          },
          {
            "high": {
              "value": 32,
              "code": "mmol/L",
              "system": "http://unitsofmeasure.org"
            }
          }
        ],
        "interpretation": [
          {
            "coding": [
              {
                "code": "L",
                "system": "http://terminology.hl7.org/CodeSystem/v3-ObservationInterpretation",
                "display": "Low"
              }
            ]
          }
        ],
        "text": {
          "status": "generated",
          "div": "<div xmlns=\"http://www.w3.org/1999/xhtml\"><table class=\"hl7__eu__lab__report\"><tr><th>Test</th><th>13-Jan-2016</th><th>Reference&#xA0;Range</th><th>Unit</th></tr><tr><td>Carbon dioxide, total [Moles/volume] in Blood</td><td>21.3</td><td>22 - 32</td><td>L</td><td>mmol/L</td></tr></table></div>"
        },
        "status": "final",
        "subject": {
          "reference": "urn:uuid:a755a16b-856b-4ab0-9d6c-0b9509f65b24",
          "display": "Jele Jurković"
        },
        "effectiveDateTime": "2016-01-13T18:07:38Z",
        "specimen": {
          "reference": "urn:uuid:3a108600-4af0-41a9-9edd-6e2a082c43da"
        }
      }
    },
    {
      "fullUrl": "urn:uuid:0a2992e1-a766-4697-af47-3c1ec877be71",
      "resource": {
        "resourceType": "Observation",
        "id": "0a2992e1-a766-4697-af47-3c1ec877be71",
        "meta": {
          "profile": [
            "http://hl7.eu/fhir/laboratory/StructureDefinition/Observation-resultslab-eu-lab"
          ]
        },
        "performer": [
          {
            "display": "The Central European Lab"
          }
        ],
        "category": [
          {
            "coding": [
              {
                "system": "http://terminology.hl7.org/CodeSystem/observation-category",
                "code": "laboratory"
              }
            ]
          }
        ],
        "code": {
          "coding": [
            {
              "code": "6690-2",
              "system": "http://loinc.org",
              "display": "Leukocytes [#/volume] in Blood by Automated count"
            }
          ],
          "text": "Leukocytes [#/volume] in Blood by Automated count"
        },
        "valueQuantity": {
          "system": "http://unitsofmeasure.org",
          "value": 6.4,
          "unit": "10*3/uL",
          "code": "10*3/uL"
        },
        "referenceRange": [
          {
            "low": {
              "value": 3.6,
              "code": "10*3/uL",
              "system": "http://unitsofmeasure.org"
            }
          },
          {
            "high": {
              "value": 10.5,
              "code": "10*3/uL",
              "system": "http://unitsofmeasure.org"
            }
          }
        ],
        "text": {
          "status": "generated",
          "div": "<div xmlns=\"http://www.w3.org/1999/xhtml\"><table class=\"hl7__eu__lab__report\"><tr><th>Test</th><th>13-Jan-2016</th><th>Reference&#xA0;Range</th><th>Unit</th></tr><tr><td>Leukocytes [#/volume] in Blood by Automated count</td><td>6.4</td><td>3.6 - 10.5</td><td></td><td>10*3/uL</td></tr></table></div>"
        },
        "status": "final",
        "subject": {
          "reference": "urn:uuid:a755a16b-856b-4ab0-9d6c-0b9509f65b24",
          "display": "Jele Jurković"
        },
        "effectiveDateTime": "2016-01-13T18:07:38Z",
        "specimen": {
          "reference": "urn:uuid:3a108600-4af0-41a9-9edd-6e2a082c43da"
        }
      }
    },
    {
      "fullUrl": "urn:uuid:b1a5d9f5-6839-4487-a17d-a155bc0782b7",
      "resource": {
        "resourceType": "Observation",
        "id": "b1a5d9f5-6839-4487-a17d-a155bc0782b7",
        "meta": {
          "profile": [
            "http://hl7.eu/fhir/laboratory/StructureDefinition/Observation-resultslab-eu-lab"
          ]
        },
        "performer": [
          {
            "display": "The Central European Lab"
          }
        ],
        "category": [
          {
            "coding": [
              {
                "system": "http://terminology.hl7.org/CodeSystem/observation-category",
                "code": "laboratory"
              }
            ]
          }
        ],
        "code": {
          "coding": [
            {
              "code": "789-8",
              "system": "http://loinc.org",
              "display": "Erythrocytes [#/volume] in Blood by Automated count"
            }
          ],
          "text": "Erythrocytes [#/volume] in Blood by Automated count"
        },
        "valueQuantity": {
          "system": "http://unitsofmeasure.org",
          "value": 4.6,
          "unit": "10*6/uL",
          "code": "10*6/uL"
        },
        "referenceRange": [
          {
            "low": {
              "value": 3.9,
              "code": "10*6/uL",
              "system": "http://unitsofmeasure.org"
            }
          },
          {
            "high": {
              "value": 5.2,
              "code": "10*6/uL",
              "system": "http://unitsofmeasure.org"
            }
          }
        ],
        "text": {
          "status": "generated",
          "div": "<div xmlns=\"http://www.w3.org/1999/xhtml\"><table class=\"hl7__eu__lab__report\"><tr><th>Test</th><th>13-Jan-2016</th><th>Reference&#xA0;Range</th><th>Unit</th></tr><tr><td>Erythrocytes [#/volume] in Blood by Automated count</td><td>4.6</td><td>3.9 - 5.2</td><td></td><td>10*6/uL</td></tr></table></div>"
        },
        "status": "final",
        "subject": {
          "reference": "urn:uuid:a755a16b-856b-4ab0-9d6c-0b9509f65b24",
          "display": "Jele Jurković"
        },
        "effectiveDateTime": "2016-01-13T18:07:38Z",
        "specimen": {
          "reference": "urn:uuid:3a108600-4af0-41a9-9edd-6e2a082c43da"
        }
      }
    },
    {
      "fullUrl": "urn:uuid:2e24a426-df39-4068-89c9-1a0332a00bb6",
      "resource": {
        "resourceType": "Observation",
        "id": "2e24a426-df39-4068-89c9-1a0332a00bb6",
        "meta": {
          "profile": [
            "http://hl7.eu/fhir/laboratory/StructureDefinition/Observation-resultslab-eu-lab"
          ]
        },
        "performer": [
          {
            "display": "The Central European Lab"
          }
        ],
        "category": [
          {
            "coding": [
              {
                "system": "http://terminology.hl7.org/CodeSystem/observation-category",
                "code": "laboratory"
              }
            ]
          }
        ],
        "code": {
          "coding": [
            {
              "code": "718-7",
              "system": "http://loinc.org",
              "display": "Hemoglobin [Mass/volume] in Blood"
            }
          ],
          "text": "Hemoglobin [Mass/volume] in Blood"
        },
        "valueQuantity": {
          "system": "http://unitsofmeasure.org",
          "value": 17.3,
          "unit": "g/dL",
          "code": "g/dL"
        },
        "referenceRange": [
          {
            "low": {
              "value": 12,
              "code": "g/dL",
              "system": "http://unitsofmeasure.org"
            }
          },
          {
            "high": {
              "value": 16,
              "code": "g/dL",
              "system": "http://unitsofmeasure.org"
            }
          }
        ],
        "interpretation": [
          {
            "coding": [
              {
                "code": "H",
                "system": "http://terminology.hl7.org/CodeSystem/v3-ObservationInterpretation",
                "display": "High"
              }
            ]
          }
        ],
        "text": {
          "status": "generated",
          "div": "<div xmlns=\"http://www.w3.org/1999/xhtml\"><table class=\"hl7__eu__lab__report\"><tr><th>Test</th><th>13-Jan-2016</th><th>Reference&#xA0;Range</th><th>Unit</th></tr><tr><td>Hemoglobin [Mass/volume] in Blood</td><td>17.3</td><td>12 - 16</td><td>H</td><td>g/dL</td></tr></table></div>"
        },
        "status": "final",
        "subject": {
          "reference": "urn:uuid:a755a16b-856b-4ab0-9d6c-0b9509f65b24",
          "display": "Jele Jurković"
        },
        "effectiveDateTime": "2016-01-13T18:07:38Z",
        "specimen": {
          "reference": "urn:uuid:3a108600-4af0-41a9-9edd-6e2a082c43da"
        }
      }
    },
    {
      "fullUrl": "urn:uuid:6d238b11-61f0-4bb0-b0e9-1880105d8281",
      "resource": {
        "resourceType": "Observation",
        "id": "6d238b11-61f0-4bb0-b0e9-1880105d8281",
        "meta": {
          "profile": [
            "http://hl7.eu/fhir/laboratory/StructureDefinition/Observation-resultslab-eu-lab"
          ]
        },
        "performer": [
          {
            "display": "The Central European Lab"
          }
        ],
        "category": [
          {
            "coding": [
              {
                "system": "http://terminology.hl7.org/CodeSystem/observation-category",
                "code": "laboratory"
              }
            ]
          }
        ],
        "code": {
          "coding": [
            {
              "code": "4544-3",
              "system": "http://loinc.org",
              "display": "Hematocrit [Volume Fraction] of Blood by Automated count"
            }
          ],
          "text": "Hematocrit [Volume Fraction] of Blood by Automated count"
        },
        "valueQuantity": {
          "system": "http://unitsofmeasure.org",
          "value": 48.6,
          "unit": "%",
          "code": "%"
        },
        "referenceRange": [
          {
            "low": {
              "value": 37,
              "code": "%",
              "system": "http://unitsofmeasure.org"
            }
          },
          {
            "high": {
              "value": 52,
              "code": "%",
              "system": "http://unitsofmeasure.org"
            }
          }
        ],
        "text": {
          "status": "generated",
          "div": "<div xmlns=\"http://www.w3.org/1999/xhtml\"><table class=\"hl7__eu__lab__report\"><tr><th>Test</th><th>13-Jan-2016</th><th>Reference&#xA0;Range</th><th>Unit</th></tr><tr><td>Hematocrit [Volume Fraction] of Blood by Automated count</td><td>48.6</td><td>37 - 52</td><td></td><td>%</td></tr></table></div>"
        },
        "status": "final",
        "subject": {
          "reference": "urn:uuid:a755a16b-856b-4ab0-9d6c-0b9509f65b24",
          "display": "Jele Jurković"
        },
        "effectiveDateTime": "2016-01-13T18:07:38Z",
        "specimen": {
          "reference": "urn:uuid:3a108600-4af0-41a9-9edd-6e2a082c43da"
        }
      }
    },
    {
      "fullUrl": "urn:uuid:204e133d-c0df-4fb2-ad82-0a6851b58803",
      "resource": {
        "resourceType": "Observation",
        "id": "204e133d-c0df-4fb2-ad82-0a6851b58803",
        "meta": {
          "profile": [
            "http://hl7.eu/fhir/laboratory/StructureDefinition/Observation-resultslab-eu-lab"
          ]
        },
        "performer": [
          {
            "display": "The Central European Lab"
          }
        ],
        "category": [
          {
            "coding": [
              {
                "system": "http://terminology.hl7.org/CodeSystem/observation-category",
                "code": "laboratory"
              }
            ]
          }
        ],
        "code": {
          "coding": [
            {
              "code": "787-2",
              "system": "http://loinc.org",
              "display": "MCV [Entitic volume] by Automated count"
            }
          ],
          "text": "MCV [Entitic volume] by Automated count"
        },
        "valueQuantity": {
          "system": "http://unitsofmeasure.org",
          "value": 85.5,
          "unit": "fL",
          "code": "fL"
        },
        "referenceRange": [
          {
            "low": {
              "value": 82,
              "code": "fL",
              "system": "http://unitsofmeasure.org"
            }
          },
          {
            "high": {
              "value": 98,
              "code": "fL",
              "system": "http://unitsofmeasure.org"
            }
          }
        ],
        "text": {
          "status": "generated",
          "div": "<div xmlns=\"http://www.w3.org/1999/xhtml\"><table class=\"hl7__eu__lab__report\"><tr><th>Test</th><th>13-Jan-2016</th><th>Reference&#xA0;Range</th><th>Unit</th></tr><tr><td>MCV [Entitic volume] by Automated count</td><td>85.5</td><td>82 - 98</td><td></td><td>fL</td></tr></table></div>"
        },
        "status": "final",
        "subject": {
          "reference": "urn:uuid:a755a16b-856b-4ab0-9d6c-0b9509f65b24",
          "display": "Jele Jurković"
        },
        "effectiveDateTime": "2016-01-13T18:07:38Z",
        "specimen": {
          "reference": "urn:uuid:3a108600-4af0-41a9-9edd-6e2a082c43da"
        }
      }
    },
    {
      "fullUrl": "urn:uuid:013dd0eb-c97e-4073-9841-2db2939f0d95",
      "resource": {
        "resourceType": "Observation",
        "id": "013dd0eb-c97e-4073-9841-2db2939f0d95",
        "meta": {
          "profile": [
            "http://hl7.eu/fhir/laboratory/StructureDefinition/Observation-resultslab-eu-lab"
          ]
        },
        "performer": [
          {
            "display": "The Central European Lab"
          }
        ],
        "category": [
          {
            "coding": [
              {
                "system": "http://terminology.hl7.org/CodeSystem/observation-category",
                "code": "laboratory"
              }
            ]
          }
        ],
        "code": {
          "coding": [
            {
              "code": "785-6",
              "system": "http://loinc.org",
              "display": "MCH [Entitic mass] by Automated count"
            }
          ],
          "text": "MCH [Entitic mass] by Automated count"
        },
        "valueQuantity": {
          "system": "http://unitsofmeasure.org",
          "value": 31.6,
          "unit": "pg",
          "code": "pg"
        },
        "referenceRange": [
          {
            "low": {
              "value": 27,
              "code": "pg",
              "system": "http://unitsofmeasure.org"
            }
          },
          {
            "high": {
              "value": 33,
              "code": "pg",
              "system": "http://unitsofmeasure.org"
            }
          }
        ],
        "text": {
          "status": "generated",
          "div": "<div xmlns=\"http://www.w3.org/1999/xhtml\"><table class=\"hl7__eu__lab__report\"><tr><th>Test</th><th>13-Jan-2016</th><th>Reference&#xA0;Range</th><th>Unit</th></tr><tr><td>MCH [Entitic mass] by Automated count</td><td>31.6</td><td>27 - 33</td><td></td><td>pg</td></tr></table></div>"
        },
        "status": "final",
        "subject": {
          "reference": "urn:uuid:a755a16b-856b-4ab0-9d6c-0b9509f65b24",
          "display": "Jele Jurković"
        },
        "effectiveDateTime": "2016-01-13T18:07:38Z",
        "specimen": {
          "reference": "urn:uuid:3a108600-4af0-41a9-9edd-6e2a082c43da"
        }
      }
    },
    {
      "fullUrl": "urn:uuid:a437a869-c6a9-42ec-85bf-23038c7f2096",
      "resource": {
        "resourceType": "Observation",
        "id": "a437a869-c6a9-42ec-85bf-23038c7f2096",
        "meta": {
          "profile": [
            "http://hl7.eu/fhir/laboratory/StructureDefinition/Observation-resultslab-eu-lab"
          ]
        },
        "performer": [
          {
            "display": "The Central European Lab"
          }
        ],
        "category": [
          {
            "coding": [
              {
                "system": "http://terminology.hl7.org/CodeSystem/observation-category",
                "code": "laboratory"
              }
            ]
          }
        ],
        "code": {
          "coding": [
            {
              "code": "786-4",
              "system": "http://loinc.org",
              "display": "MCHC [Mass/volume] by Automated count"
            }
          ],
          "text": "MCHC [Mass/volume] by Automated count"
        },
        "valueQuantity": {
          "system": "http://unitsofmeasure.org",
          "value": 35.7,
          "unit": "g/dL",
          "code": "g/dL"
        },
        "referenceRange": [
          {
            "low": {
              "value": 31,
              "code": "g/dL",
              "system": "http://unitsofmeasure.org"
            }
          },
          {
            "high": {
              "value": 36,
              "code": "g/dL",
              "system": "http://unitsofmeasure.org"
            }
          }
        ],
        "text": {
          "status": "generated",
          "div": "<div xmlns=\"http://www.w3.org/1999/xhtml\"><table class=\"hl7__eu__lab__report\"><tr><th>Test</th><th>13-Jan-2016</th><th>Reference&#xA0;Range</th><th>Unit</th></tr><tr><td>MCHC [Mass/volume] by Automated count</td><td>35.7</td><td>31 - 36</td><td></td><td>g/dL</td></tr></table></div>"
        },
        "status": "final",
        "subject": {
          "reference": "urn:uuid:a755a16b-856b-4ab0-9d6c-0b9509f65b24",
          "display": "Jele Jurković"
        },
        "effectiveDateTime": "2016-01-13T18:07:38Z",
        "specimen": {
          "reference": "urn:uuid:3a108600-4af0-41a9-9edd-6e2a082c43da"
        }
      }
    },
    {
      "fullUrl": "urn:uuid:c972254f-82aa-49e4-99c6-5618235d1054",
      "resource": {
        "resourceType": "Observation",
        "id": "c972254f-82aa-49e4-99c6-5618235d1054",
        "meta": {
          "profile": [
            "http://hl7.eu/fhir/laboratory/StructureDefinition/Observation-resultslab-eu-lab"
          ]
        },
        "performer": [
          {
            "display": "The Central European Lab"
          }
        ],
        "category": [
          {
            "coding": [
              {
                "system": "http://terminology.hl7.org/CodeSystem/observation-category",
                "code": "laboratory"
              }
            ]
          }
        ],
        "code": {
          "coding": [
            {
              "code": "21000-5",
              "system": "http://loinc.org",
              "display": "Erythrocyte distribution width [Entitic volume] by Automated count"
            }
          ],
          "text": "Erythrocyte distribution width [Entitic volume] by Automated count"
        },
        "valueQuantity": {
          "system": "http://unitsofmeasure.org",
          "value": 41.2,
          "unit": "fL",
          "code": "fL"
        },
        "referenceRange": [
          {
            "low": {
              "value": 36,
              "code": "fL",
              "system": "http://unitsofmeasure.org"
            }
          },
          {
            "high": {
              "value": 56,
              "code": "fL",
              "system": "http://unitsofmeasure.org"
            }
          }
        ],
        "text": {
          "status": "generated",
          "div": "<div xmlns=\"http://www.w3.org/1999/xhtml\"><table class=\"hl7__eu__lab__report\"><tr><th>Test</th><th>13-Jan-2016</th><th>Reference&#xA0;Range</th><th>Unit</th></tr><tr><td>Erythrocyte distribution width [Entitic volume] by Automated count</td><td>41.2</td><td>36 - 56</td><td></td><td>fL</td></tr></table></div>"
        },
        "status": "final",
        "subject": {
          "reference": "urn:uuid:a755a16b-856b-4ab0-9d6c-0b9509f65b24",
          "display": "Jele Jurković"
        },
        "effectiveDateTime": "2016-01-13T18:07:38Z",
        "specimen": {
          "reference": "urn:uuid:3a108600-4af0-41a9-9edd-6e2a082c43da"
        }
      }
    },
    {
      "fullUrl": "urn:uuid:338d10e1-5af3-4893-b59e-51a69d1d5564",
      "resource": {
        "resourceType": "Observation",
        "id": "338d10e1-5af3-4893-b59e-51a69d1d5564",
        "meta": {
          "profile": [
            "http://hl7.eu/fhir/laboratory/StructureDefinition/Observation-resultslab-eu-lab"
          ]
        },
        "performer": [
          {
            "display": "The Central European Lab"
          }
        ],
        "category": [
          {
            "coding": [
              {
                "system": "http://terminology.hl7.org/CodeSystem/observation-category",
                "code": "laboratory"
              }
            ]
          }
        ],
        "code": {
          "coding": [
            {
              "code": "777-3",
              "system": "http://loinc.org",
              "display": "Platelets [#/volume] in Blood by Automated count"
            }
          ],
          "text": "Platelets [#/volume] in Blood by Automated count"
        },
        "valueQuantity": {
          "system": "http://unitsofmeasure.org",
          "value": 339,
          "unit": "10*3/uL",
          "code": "10*3/uL"
        },
        "referenceRange": [
          {
            "low": {
              "value": 150,
              "code": "10*3/uL",
              "system": "http://unitsofmeasure.org"
            }
          },
          {
            "high": {
              "value": 450,
              "code": "10*3/uL",
              "system": "http://unitsofmeasure.org"
            }
          }
        ],
        "text": {
          "status": "generated",
          "div": "<div xmlns=\"http://www.w3.org/1999/xhtml\"><table class=\"hl7__eu__lab__report\"><tr><th>Test</th><th>13-Jan-2016</th><th>Reference&#xA0;Range</th><th>Unit</th></tr><tr><td>Platelets [#/volume] in Blood by Automated count</td><td>339.0</td><td>150 - 450</td><td></td><td>10*3/uL</td></tr></table></div>"
        },
        "status": "final",
        "subject": {
          "reference": "urn:uuid:a755a16b-856b-4ab0-9d6c-0b9509f65b24",
          "display": "Jele Jurković"
        },
        "effectiveDateTime": "2016-01-13T18:07:38Z",
        "specimen": {
          "reference": "urn:uuid:3a108600-4af0-41a9-9edd-6e2a082c43da"
        }
      }
    },
    {
      "fullUrl": "urn:uuid:2e094c6a-8f3e-42c2-ac7b-6e3e4b272e32",
      "resource": {
        "resourceType": "Observation",
        "id": "2e094c6a-8f3e-42c2-ac7b-6e3e4b272e32",
        "meta": {
          "profile": [
            "http://hl7.eu/fhir/laboratory/StructureDefinition/Observation-resultslab-eu-lab"
          ]
        },
        "performer": [
          {
            "display": "The Central European Lab"
          }
        ],
        "category": [
          {
            "coding": [
              {
                "system": "http://terminology.hl7.org/CodeSystem/observation-category",
                "code": "laboratory"
              }
            ]
          }
        ],
        "code": {
          "coding": [
            {
              "code": "32207-3",
              "system": "http://loinc.org",
              "display": "Platelet distribution width [Entitic volume] in Blood by Automated count"
            }
          ],
          "text": "Platelet distribution width [Entitic volume] in Blood by Automated count"
        },
        "valueQuantity": {
          "system": "http://unitsofmeasure.org",
          "value": 443.4,
          "unit": "fL",
          "code": "fL"
        },
        "referenceRange": [
          {
            "low": {
              "value": 11.6,
              "code": "fL",
              "system": "http://unitsofmeasure.org"
            }
          },
          {
            "high": {
              "value": 17.4,
              "code": "fL",
              "system": "http://unitsofmeasure.org"
            }
          }
        ],
        "interpretation": [
          {
            "coding": [
              {
                "code": "H",
                "system": "http://terminology.hl7.org/CodeSystem/v3-ObservationInterpretation",
                "display": "High"
              }
            ]
          }
        ],
        "text": {
          "status": "generated",
          "div": "<div xmlns=\"http://www.w3.org/1999/xhtml\"><table class=\"hl7__eu__lab__report\"><tr><th>Test</th><th>13-Jan-2016</th><th>Reference&#xA0;Range</th><th>Unit</th></tr><tr><td>Platelet distribution width [Entitic volume] in Blood by Automated count</td><td>443.4</td><td>11.6 - 17.4</td><td>H</td><td>fL</td></tr></table></div>"
        },
        "status": "final",
        "subject": {
          "reference": "urn:uuid:a755a16b-856b-4ab0-9d6c-0b9509f65b24",
          "display": "Jele Jurković"
        },
        "effectiveDateTime": "2016-01-13T18:07:38Z",
        "specimen": {
          "reference": "urn:uuid:3a108600-4af0-41a9-9edd-6e2a082c43da"
        }
      }
    },
    {
      "fullUrl": "urn:uuid:d90b067a-f404-4da4-be1c-6d55082421b1",
      "resource": {
        "resourceType": "Observation",
        "id": "d90b067a-f404-4da4-be1c-6d55082421b1",
        "meta": {
          "profile": [
            "http://hl7.eu/fhir/laboratory/StructureDefinition/Observation-resultslab-eu-lab"
          ]
        },
        "performer": [
          {
            "display": "The Central European Lab"
          }
        ],
        "category": [
          {
            "coding": [
              {
                "system": "http://terminology.hl7.org/CodeSystem/observation-category",
                "code": "laboratory"
              }
            ]
          }
        ],
        "code": {
          "coding": [
            {
              "code": "32623-1",
              "system": "http://loinc.org",
              "display": "Platelet mean volume [Entitic volume] in Blood by Automated count"
            }
          ],
          "text": "Platelet mean volume [Entitic volume] in Blood by Automated count"
        },
        "valueQuantity": {
          "system": "http://unitsofmeasure.org",
          "value": 12.2,
          "unit": "fL",
          "code": "fL"
        },
        "referenceRange": [
          {
            "low": {
              "value": 7.4,
              "code": "fL",
              "system": "http://unitsofmeasure.org"
            }
          },
          {
            "high": {
              "value": 13.4,
              "code": "fL",
              "system": "http://unitsofmeasure.org"
            }
          }
        ],
        "text": {
          "status": "generated",
          "div": "<div xmlns=\"http://www.w3.org/1999/xhtml\"><table class=\"hl7__eu__lab__report\"><tr><th>Test</th><th>13-Jan-2016</th><th>Reference&#xA0;Range</th><th>Unit</th></tr><tr><td>Platelet mean volume [Entitic volume] in Blood by Automated count</td><td>12.2</td><td>7.4 - 13.4</td><td></td><td>fL</td></tr></table></div>"
        },
        "status": "final",
        "subject": {
          "reference": "urn:uuid:a755a16b-856b-4ab0-9d6c-0b9509f65b24",
          "display": "Jele Jurković"
        },
        "effectiveDateTime": "2016-01-13T18:07:38Z",
        "specimen": {
          "reference": "urn:uuid:3a108600-4af0-41a9-9edd-6e2a082c43da"
        }
      }
    },
    {
      "fullUrl": "urn:uuid:c47458b5-6bbe-42c7-a774-211bf87bdc27",
      "resource": {
        "resourceType": "Device",
        "id": "c47458b5-6bbe-42c7-a774-211bf87bdc27",
        "deviceName": [
          {
            "name": "SYNDERAI Synthetic Generator",
            "type": "manufacturer-name"
          }
        ],
        "version": [
          {
            "value": "5.0"
          }
        ],
        "text": {
          "status": "generated",
          "div": "<div xmlns=\"http://www.w3.org/1999/xhtml\">SYNDERAI Synthetic Generator v5.0</div>"
        },
        "status": "active\"",
        "distinctIdentifier": "synderai-generator-50",
        "manufacturer": "SYNDERAI Project"
      }
    },
    {
      "fullUrl": "urn:uuid:0c8948dc-3f00-409c-9939-96de8dc6a805",
      "resource": {
        "resourceType": "Provenance",
        "id": "0c8948dc-3f00-409c-9939-96de8dc6a805",
        "target": [
          {
            "reference": "Patient/a755a16b-856b-4ab0-9d6c-0b9509f65b24"
          },
          {
            "reference": "Bundle/42e5d1da-2d51-4649-b5e5-a4c959580c9c"
          },
          {
            "reference": "Composition/4967c281-1479-4783-b6bc-aabc1da5fd92"
          },
          {
            "reference": "PractitionerRole/a7cd3b2a-8392-4238-8b48-eead9e9c27b3"
          },
          {
            "reference": "Practitioner/6b6a0a55-73ec-4ff5-9720-592b23b60737"
          },
          {
            "reference": "PractitionerRole/5b3307dd-03a3-4d4d-9e35-8d9b888fbf5b"
          },
          {
            "reference": "Organization/1afa54af-53fa-407b-a73b-633f3ef8bdd9"
          }
        ],
        "activity": {
          "text": "Synthetic Example Data Generation"
        },
        "policy": [
          "https://synderai.net/synderai-synthetic-data-policy"
        ],
        "agent": [
          {
            "type": {
              "text": "author"
            },
            "who": {
              "reference": "Device/c47458b5-6bbe-42c7-a774-211bf87bdc27"
            }
          }
        ],
        "reason": [
          {
            "text": "Interoperability Testing and Training (non-clinical use)"
          }
        ],
        "text": {
          "status": "generated",
          "div": "<div xmlns=\"http://www.w3.org/1999/xhtml\">Provenance for SYNDERAI Synthetic Example Data Resource</div>"
        },
        "recorded": "2016-01-13T19:07:38Z"
      }
    },
    {
      "fullUrl": "urn:uuid:a7cd3b2a-8392-4238-8b48-eead9e9c27b3",
      "resource": {
        "resourceType": "PractitionerRole",
        "id": "a7cd3b2a-8392-4238-8b48-eead9e9c27b3",
        "meta": {
          "profile": [
            "http://hl7.eu/fhir/base/StructureDefinition/practitionerRole-eu"
          ]
        },
        "text": {
          "status": "generated",
          "div": "<div xmlns=\"http://www.w3.org/1999/xhtml\">Laboratory Role Id: a7cd3b2a-8392-4238-8b48-eead9e9c27b3</div>"
        },
        "practitioner": {
          "reference": "urn:uuid:6b6a0a55-73ec-4ff5-9720-592b23b60737"
        }
      }
    },
    {
      "fullUrl": "urn:uuid:6b6a0a55-73ec-4ff5-9720-592b23b60737",
      "resource": {
        "resourceType": "Practitioner",
        "id": "6b6a0a55-73ec-4ff5-9720-592b23b60737",
        "meta": {
          "profile": [
            "http://hl7.eu/fhir/base/StructureDefinition/practitioner-eu"
          ]
        },
        "identifier": [
          {
            "assigner": {
              "display": "HL7 Europe"
            },
            "system": "urn:oid:2.16.840.1.113883.2.51.999",
            "value": "6be50932-c6fb-4e26-9aac-fea9b4efc9c8"
          }
        ],
        "name": [
          {
            "prefix": [
              "dr"
            ],
            "given": [
              "Ex"
            ],
            "family": "Ample"
          }
        ],
        "address": [
          {
            "line": [
              "Laboratoire Central Européenne",
              "Boulevard du Jardin Botanique 32"
            ],
            "postalCode": "1000",
            "city": "Brussels",
            "country": "Belgium"
          }
        ],
        "text": {
          "status": "generated",
          "div": "<div xmlns=\"http://www.w3.org/1999/xhtml\">Laboratory: Laboratoire Central Européenne, 1000 Brussels, Belgium</div>"
        }
      }
    }
  ],
  "type": "document",
  "timestamp": "2016-01-13T19:07:38Z"
}
