{
  "resourceType": "Bundle",
  "id": "e95f5262-8bd8-46f4-a261-04414b0f337a",
  "meta": {
    "profile": [
      "http://hl7.eu/fhir/laboratory/StructureDefinition/Bundle-eu-lab"
    ]
  },
  "identifier": {
    "assigner": {
      "display": "HL7 Europe"
    },
    "system": "urn:oid:2.16.840.1.113883.2.51.999",
    "value": "f8895c9c-b60d-43e1-8bea-d33b4882819b"
  },
  "entry": [
    {
      "fullUrl": "urn:uuid:446c0b6f-25ed-44ac-99fa-005d38d912af",
      "resource": {
        "resourceType": "Composition",
        "id": "446c0b6f-25ed-44ac-99fa-005d38d912af",
        "meta": {
          "profile": [
            "http://hl7.eu/fhir/laboratory/StructureDefinition/Composition-eu-lab"
          ]
        },
        "identifier": {
          "assigner": {
            "display": "HL7 Europe"
          },
          "system": "urn:oid:2.16.840.1.113883.2.51.999",
          "value": "e95349f3-32b9-4ff1-afa3-e7717ce313f5"
        },
        "author": [
          {
            "reference": "urn:uuid:4ea03015-083a-499a-80d9-cf285affe896"
          }
        ],
        "category": [
          {
            "coding": [
              {
                "code": "26436-6",
                "system": "http://loinc.org",
                "display": "Laboratory studies (set)"
              }
            ]
          }
        ],
        "type": {
          "coding": [
            {
              "code": "11502-2",
              "system": "http://loinc.org",
              "display": "Laboratory report"
            }
          ],
          "text": "Laboratory Report"
        },
        "section": [
          {
            "code": {
              "coding": [
                {
                  "code": "26436-6",
                  "system": "http://loinc.org",
                  "display": "Laboratory studies (set)"
                }
              ],
              "text": "Laboratory studies"
            },
            "section": [
              {
                "code": {
                  "coding": [
                    {
                      "code": "$18723-7",
                      "system": "http://loinc.org",
                      "display": "Hematology studies (set)"
                    }
                  ],
                  "text": "Hematology"
                },
                "entry": [
                  {
                    "reference": "urn:uuid:b15ab9ee-037f-439d-8354-a496331ab9c5"
                  },
                  {
                    "reference": "urn:uuid:2ecc6493-7539-4231-bc04-eaace64462d7"
                  },
                  {
                    "reference": "urn:uuid:f60e462e-352b-4868-8f11-cbc7cd83c251"
                  },
                  {
                    "reference": "urn:uuid:5c390e83-6190-46e8-bf3c-f58d3cbe62d0"
                  },
                  {
                    "reference": "urn:uuid:5e782bb6-9004-4d14-a2ad-4e2d0b9f87ff"
                  },
                  {
                    "reference": "urn:uuid:afdf871d-3560-43c2-a872-264a9e0277bb"
                  },
                  {
                    "reference": "urn:uuid:6205711a-462f-48a1-9e71-feaf3ee1a3c0"
                  },
                  {
                    "reference": "urn:uuid:6e075d66-b36d-48d3-b08c-e1afb2e30b33"
                  },
                  {
                    "reference": "urn:uuid:198c17d6-ff43-4837-bff5-f747b4e1ccbb"
                  },
                  {
                    "reference": "urn:uuid:9c07930a-ee94-4abe-9dd9-9c2625f90266"
                  },
                  {
                    "reference": "urn:uuid:fbd9e4d8-7ff4-46d0-a5e2-3bd093d1a1c2"
                  }
                ],
                "text": {
                  "status": "generated",
                  "div": "<div xmlns=\"http://www.w3.org/1999/xhtml\"><h3>Hematology</h3><table class=\"hl7__eu__lab__report\"><thead><tr><th>Test</th><th>14-JUN-2016</th><th>Reference&#xA0;Range</th><th>Unit</th></tr></thead><tbody><tr><td>Leukocytes [#/volume] in Blood by Automated count</td><td>6.5</td><td>3.4 - 10.6</td><td>10*3/uL</td></tr><tr><td>Erythrocytes [#/volume] in Blood by Automated count</td><td>5.1</td><td>4.2 - 5.2</td><td>10*6/uL</td></tr><tr><td>Hemoglobin [Mass/volume] in Blood</td><td>14.0</td><td>12 - 16</td><td>g/dL</td></tr><tr><td>Hematocrit [Volume Fraction] of Blood by Automated count</td><td>41.7</td><td>36 - 48</td><td>%</td></tr><tr><td>MCV [Entitic volume] by Automated count</td><td>85.7</td><td>82 - 98</td><td>fL</td></tr><tr><td>MCH [Entitic mass] by Automated count</td><td>32.7</td><td>27 - 33</td><td>pg</td></tr><tr><td>MCHC [Mass/volume] by Automated count</td><td>34.6</td><td>32 - 37</td><td>g/dL</td></tr><tr><td>Erythrocyte distribution width [Entitic volume] by Automated count</td><td>39.0</td><td>36 - 46</td><td>fL</td></tr><tr><td>Platelets [#/volume] in Blood by Automated count</td><td>438.1</td><td>150 - 450</td><td>10*3/uL</td></tr><tr><td>Platelet distribution width [Entitic volume] in Blood by Automated count</td><td><strong>175.7 H</strong></td><td>11.6 - 17.4</td><td>fL</td></tr><tr><td>Platelet mean volume [Entitic volume] in Blood by Automated count</td><td>11.5</td><td>7.4 - 12</td><td>fL</td></tr></tbody></table></div>"
                },
                "title": "Hematology"
              },
              {
                "code": {
                  "coding": [
                    {
                      "code": "$18719-5",
                      "system": "http://loinc.org",
                      "display": "Chemistry studies (set)"
                    }
                  ],
                  "text": "Chemistry"
                },
                "entry": [
                  {
                    "reference": "urn:uuid:5eb1966d-1136-4b39-9084-cb41865b9c09"
                  },
                  {
                    "reference": "urn:uuid:a195cc26-addf-4ac6-a009-a78f07b08d86"
                  },
                  {
                    "reference": "urn:uuid:85d71d8c-e308-4786-8651-e8e853728ca5"
                  },
                  {
                    "reference": "urn:uuid:854c85c4-7538-4667-937a-94b133c08735"
                  },
                  {
                    "reference": "urn:uuid:dca52d29-017c-4f7d-b97c-3f2b94f99a75"
                  },
                  {
                    "reference": "urn:uuid:3f850491-fca8-497d-bf3d-2d789afbfc44"
                  },
                  {
                    "reference": "urn:uuid:c1dd5ad1-6aa5-484e-a329-449435308972"
                  },
                  {
                    "reference": "urn:uuid:3316e925-8d6c-4d6b-986b-785381377041"
                  },
                  {
                    "reference": "urn:uuid:91fc30ff-55eb-40b4-a6ca-4005acbdec8b"
                  }
                ],
                "text": {
                  "status": "generated",
                  "div": "<div xmlns=\"http://www.w3.org/1999/xhtml\"><h3>Chemistry</h3><table class=\"hl7__eu__lab__report\"><thead><tr><th>Test</th><th>14-JUN-2016</th><th>Reference&#xA0;Range</th><th>Unit</th></tr></thead><tbody><tr><td>Glucose [Mass/volume] in Blood</td><td>91.4</td><td>70 - 140</td><td>mg/dL</td></tr><tr><td>Urea nitrogen [Mass/volume] in Blood</td><td>15.9</td><td>7 - 25</td><td>mg/dL</td></tr><tr><td>Creatinine [Mass/volume] in Blood</td><td>0.8</td><td>0.6 - 1.1</td><td>mg/dL</td></tr><tr><td>Calcium [Mass/volume] in Blood</td><td>8.8</td><td>8.6 - 10.4</td><td>mg/dL</td></tr><tr><td>Sodium [Moles/volume] in Blood</td><td>142.0</td><td>135 - 145</td><td>mmol/L</td></tr><tr><td>Potassium [Moles/volume] in Blood</td><td>4.9</td><td>3.5 - 5.1</td><td>mmol/L</td></tr><tr><td>Chloride [Moles/volume] in Blood</td><td>102.5</td><td>98 - 110</td><td>mmol/L</td></tr><tr><td>Carbon dioxide, total [Moles/volume] in Blood</td><td>22.9</td><td>22 - 29</td><td>mmol/L</td></tr><tr><td>Ketones [Presence] in Urine by Test strip</td><td>0.0</td><td>0 - 0</td><td>{presence}</td></tr></tbody></table></div>"
                },
                "title": "Chemistry"
              },
              {
                "code": {
                  "coding": [
                    {
                      "code": "$18729-4",
                      "system": "http://loinc.org",
                      "display": "Urinalysis studies (set)"
                    }
                  ],
                  "text": "Urinalysis"
                },
                "entry": [
                  {
                    "reference": "urn:uuid:758bd881-f37f-44f9-a7bd-72cd7ebeb3eb"
                  },
                  {
                    "reference": "urn:uuid:cc254c31-599f-4713-a5fb-f84825c9feef"
                  },
                  {
                    "reference": "urn:uuid:be871d7e-4a88-4a37-9ea6-d13d88d54310"
                  },
                  {
                    "reference": "urn:uuid:22f43f24-131b-436e-8914-df46368e8720"
                  },
                  {
                    "reference": "urn:uuid:2185f11f-abca-4011-989f-33330846aa37"
                  },
                  {
                    "reference": "urn:uuid:a97f5e23-1902-4279-b386-cfd60d345d1d"
                  },
                  {
                    "reference": "urn:uuid:31556d49-9f57-4f34-914d-637a0fbb081b"
                  },
                  {
                    "reference": "urn:uuid:9ef331c3-8ac0-4823-b876-730e03a7f2c2"
                  }
                ],
                "text": {
                  "status": "generated",
                  "div": "<div xmlns=\"http://www.w3.org/1999/xhtml\"><h3>Urinalysis</h3><table class=\"hl7__eu__lab__report\"><thead><tr><th>Test</th><th>14-JUN-2016</th><th>Reference&#xA0;Range</th><th>Unit</th></tr></thead><tbody><tr><td>Glucose [Presence] in Urine by Test strip</td><td>0.0</td><td>0 - 0.8</td><td>{presence}</td></tr><tr><td>Bilirubin.total [Presence] in Urine by Test strip</td><td>0.0</td><td>0 - 0</td><td>{presence}</td></tr><tr><td>Specific gravity of Urine by Test strip</td><td><strong>1.0 L</strong></td><td>1.005 - 1.03</td><td>{SG}</td></tr><tr><td>pH of Urine by Test strip</td><td>7.0</td><td>4.5 - 8</td><td>[pH]</td></tr><tr><td>Protein [Presence] in Urine by Test strip</td><td>0.0</td><td>0 - 0</td><td>{presence}</td></tr><tr><td>Nitrite [Presence] in Urine by Test strip</td><td>0.0</td><td>0 - 0</td><td>{presence}</td></tr><tr><td>Hemoglobin [Presence] in Urine by Test strip</td><td>0.0</td><td>0 - 0</td><td>{presence}</td></tr><tr><td>Leukocyte esterase [Presence] in Urine by Test strip</td><td>0.0</td><td>0 - 0</td><td>{presence}</td></tr></tbody></table></div>"
                },
                "title": "Urinalysis"
              }
            ],
            "title": "Laboratory Report"
          },
          {
            "text": {
              "status": "generated",
              "div": "<div xmlns=\"http://www.w3.org/1999/xhtml\"><h3>Annotation</h3><table class=\"hl7__eu__lab__report\"><tr><th>Conclusion and Recommendations based on this report and previous findings known to us</th></tr><tr><td>All blood chemistry and hematology parameters are within normal limits. The only abnormalities are a high platelet distribution width and a low urine specific gravity. The elevated platelet distribution width may indicate increased platelet size variability, possibly due to platelet activation or turnover, but platelet count is normal. Low urine specific gravity may suggest dilute urine; consider hydration status or possible renal concentrating defects if clinically indicated. No evidence of infection or metabolic derangement. Correlate with clinical findings.</td></tr></table></div>"
            },
            "code": {
              "coding": [
                {
                  "system": "http://loinc.org",
                  "code": "48767-8",
                  "display": "Annotation comment"
                }
              ]
            },
            "title": "Annotation comment"
          }
        ],
        "status": "final",
        "subject": {
          "reference": "urn:uuid:01a7c577-5663-4767-9af2-b64f638470d5",
          "display": "Iva Kratochvílová"
        },
        "date": "2016-06-14T05:15:20Z",
        "title": "Laboratory Report",
        "confidentiality": "N"
      }
    },
    {
      "fullUrl": "urn:uuid:4a6846a0-873f-457f-b761-58a71c66046c",
      "resource": {
        "resourceType": "DiagnosticReport",
        "id": "4a6846a0-873f-457f-b761-58a71c66046c",
        "meta": {
          "profile": [
            "http://hl7.eu/fhir/laboratory/StructureDefinition/DiagnosticReport-eu-lab"
          ]
        },
        "identifier": [
          {
            "assigner": {
              "display": "HL7 Europe"
            },
            "system": "urn:oid:2.16.840.1.113883.2.51.999",
            "value": "f9919b7e-c7f8-4648-b1a0-064c1ffe4b97"
          }
        ],
        "extension": [
          {
            "url": "http://hl7.org/fhir/5.0/StructureDefinition/extension-DiagnosticReport.composition",
            "valueReference": {
              "reference": "urn:uuid:e95349f3-32b9-4ff1-afa3-e7717ce313f5"
            }
          }
        ],
        "category": [
          {
            "coding": [
              {
                "code": "26436-6",
                "system": "http://loinc.org",
                "display": "Laboratory studies (set)"
              }
            ]
          }
        ],
        "specimen": [
          {
            "reference": "urn:uuid:b2d152dd-5777-4129-b815-adf85c09e1ca"
          },
          {
            "reference": "urn:uuid:b2d152dd-5777-4129-b815-adf85c09e1ca"
          },
          {
            "reference": "urn:uuid:9e2bb8f3-e2ba-4ee4-9e59-eb4beae2ad9b"
          }
        ],
        "result": [
          {
            "reference": "urn:uuid:5eb1966d-1136-4b39-9084-cb41865b9c09"
          },
          {
            "reference": "urn:uuid:a195cc26-addf-4ac6-a009-a78f07b08d86"
          },
          {
            "reference": "urn:uuid:85d71d8c-e308-4786-8651-e8e853728ca5"
          },
          {
            "reference": "urn:uuid:854c85c4-7538-4667-937a-94b133c08735"
          },
          {
            "reference": "urn:uuid:dca52d29-017c-4f7d-b97c-3f2b94f99a75"
          },
          {
            "reference": "urn:uuid:3f850491-fca8-497d-bf3d-2d789afbfc44"
          },
          {
            "reference": "urn:uuid:c1dd5ad1-6aa5-484e-a329-449435308972"
          },
          {
            "reference": "urn:uuid:3316e925-8d6c-4d6b-986b-785381377041"
          },
          {
            "reference": "urn:uuid:b15ab9ee-037f-439d-8354-a496331ab9c5"
          },
          {
            "reference": "urn:uuid:2ecc6493-7539-4231-bc04-eaace64462d7"
          },
          {
            "reference": "urn:uuid:f60e462e-352b-4868-8f11-cbc7cd83c251"
          },
          {
            "reference": "urn:uuid:5c390e83-6190-46e8-bf3c-f58d3cbe62d0"
          },
          {
            "reference": "urn:uuid:5e782bb6-9004-4d14-a2ad-4e2d0b9f87ff"
          },
          {
            "reference": "urn:uuid:afdf871d-3560-43c2-a872-264a9e0277bb"
          },
          {
            "reference": "urn:uuid:6205711a-462f-48a1-9e71-feaf3ee1a3c0"
          },
          {
            "reference": "urn:uuid:6e075d66-b36d-48d3-b08c-e1afb2e30b33"
          },
          {
            "reference": "urn:uuid:198c17d6-ff43-4837-bff5-f747b4e1ccbb"
          },
          {
            "reference": "urn:uuid:9c07930a-ee94-4abe-9dd9-9c2625f90266"
          },
          {
            "reference": "urn:uuid:fbd9e4d8-7ff4-46d0-a5e2-3bd093d1a1c2"
          },
          {
            "reference": "urn:uuid:758bd881-f37f-44f9-a7bd-72cd7ebeb3eb"
          },
          {
            "reference": "urn:uuid:cc254c31-599f-4713-a5fb-f84825c9feef"
          },
          {
            "reference": "urn:uuid:91fc30ff-55eb-40b4-a6ca-4005acbdec8b"
          },
          {
            "reference": "urn:uuid:be871d7e-4a88-4a37-9ea6-d13d88d54310"
          },
          {
            "reference": "urn:uuid:22f43f24-131b-436e-8914-df46368e8720"
          },
          {
            "reference": "urn:uuid:2185f11f-abca-4011-989f-33330846aa37"
          },
          {
            "reference": "urn:uuid:a97f5e23-1902-4279-b386-cfd60d345d1d"
          },
          {
            "reference": "urn:uuid:31556d49-9f57-4f34-914d-637a0fbb081b"
          },
          {
            "reference": "urn:uuid:9ef331c3-8ac0-4823-b876-730e03a7f2c2"
          }
        ],
        "status": "registered",
        "code": {
          "coding": [
            {
              "code": "11502-2",
              "system": "http://loinc.org",
              "display": "Laboratory report"
            }
          ]
        },
        "subject": {
          "reference": "urn:uuid:01a7c577-5663-4767-9af2-b64f638470d5",
          "display": "Iva Kratochvílová"
        }
      }
    },
    {
      "fullUrl": "urn:uuid:01a7c577-5663-4767-9af2-b64f638470d5",
      "resource": {
        "resourceType": "Patient",
        "id": "01a7c577-5663-4767-9af2-b64f638470d5",
        "meta": {
          "security": [
            {
              "system": "http://terminology.hl7.org/CodeSystem/v3-ActReason",
              "code": "HTEST"
            },
            {
              "system": "http://terminology.hl7.org/CodeSystem/v3-ActReason",
              "code": "TRAIN"
            }
          ],
          "tag": [
            {
              "system": "https://synderai.net/fhir/CodeSystem/tags",
              "code": "synthetic",
              "display": "SYNDERAI Synthetic data"
            }
          ],
          "profile": [
            "http://hl7.eu/fhir/base/StructureDefinition/patient-eu-core"
          ]
        },
        "identifier": [
          {
            "type": {
              "coding": [
                {
                  "code": "PT",
                  "system": "http://terminology.hl7.org/CodeSystem/v2-0203"
                }
              ]
            },
            "system": "http://ec.europa.eu/identifier/eci",
            "value": "4380-389488-0"
          },
          {
            "type": {
              "coding": [
                {
                  "code": "MR",
                  "system": "http://terminology.hl7.org/CodeSystem/v2-0203"
                }
              ]
            },
            "system": "http://local.setting.eu/identifier",
            "value": "f8f9ebdc-03dd-2fc0-819c-affa4ffd7f67"
          }
        ],
        "name": [
          {
            "family": "Kratochvílová"
          },
          {
            "given": [
              "Iva"
            ]
          },
          {
            "text": "Iva Kratochvílová"
          }
        ],
        "address": [
          {
            "line": [
              "Žofie Podlipské 4"
            ],
            "use": "home",
            "type": "physical",
            "postalCode": "27324",
            "city": "Postoloprty",
            "country": "Czechia"
          }
        ],
        "telecom": [
          {
            "system": "phone",
            "value": "00420 607 985 072"
          }
        ],
        "extension": [
          {
            "url": "http://hl7.org/fhir/StructureDefinition/patient-nationality",
            "valueCodeableConcept": {
              "coding": [
                {
                  "code": "CZ",
                  "system": "http://hl7.org/fhir/ValueSet/country"
                }
              ]
            }
          }
        ],
        "text": {
          "status": "generated",
          "div": "<div xmlns=\"http://www.w3.org/1999/xhtml\"><table class=\"hl7__ips\"><tr><td>Iva Kratochvílová</td><td>female</td><td>17-Sep-1964</td></tr></table></div>"
        },
        "gender": "female",
        "birthDate": "1964-09-17"
      }
    },
    {
      "fullUrl": "urn:uuid:93be2be5-da38-4ff4-ab2d-f47a4490ebaf",
      "resource": {
        "resourceType": "ServiceRequest",
        "id": "93be2be5-da38-4ff4-ab2d-f47a4490ebaf",
        "meta": {
          "profile": [
            "http://hl7.eu/fhir/laboratory/StructureDefinition/ServiceRequest-eu-lab"
          ]
        },
        "identifier": [
          {
            "system": "http://example.org",
            "value": "0effc122-63ce-4982-bc92-a429e562995b"
          }
        ],
        "specimen": [
          {
            "reference": "urn:uuid:b2d152dd-5777-4129-b815-adf85c09e1ca"
          },
          {
            "reference": "urn:uuid:9e2bb8f3-e2ba-4ee4-9e59-eb4beae2ad9b"
          }
        ],
        "reasonCode": [
          {
            "coding": [
              {
                "code": "431856006",
                "system": "http://snomed.info/sct",
                "display": "Chronic kidney disease stage 2"
              }
            ]
          },
          {
            "coding": [
              {
                "code": "431855005",
                "system": "http://snomed.info/sct",
                "display": "Chronic kidney disease stage 1"
              }
            ]
          },
          {
            "coding": [
              {
                "code": "237602007",
                "system": "http://snomed.info/sct",
                "display": "Metabolic syndrome X"
              }
            ]
          },
          {
            "coding": [
              {
                "code": "91302008",
                "system": "http://snomed.info/sct",
                "display": "Sepsis"
              }
            ]
          },
          {
            "coding": [
              {
                "code": "271737000",
                "system": "http://snomed.info/sct",
                "display": "Anemia"
              }
            ]
          },
          {
            "coding": [
              {
                "code": "15777000",
                "system": "http://snomed.info/sct",
                "display": "Prediabetes"
              }
            ]
          },
          {
            "coding": [
              {
                "code": "157141000119108",
                "system": "http://snomed.info/sct",
                "display": "Proteinuria due to type 2 diabetes mellitus"
              }
            ]
          },
          {
            "coding": [
              {
                "code": "90781000119102",
                "system": "http://snomed.info/sct",
                "display": "Microalbuminuria due to type 2 diabetes mellitus"
              }
            ]
          },
          {
            "coding": [
              {
                "code": "239872002",
                "system": "http://snomed.info/sct",
                "display": "Osteoarthritis of hip"
              }
            ]
          },
          {
            "coding": [
              {
                "code": "40055000",
                "system": "http://snomed.info/sct",
                "display": "Chronic sinusitis"
              }
            ]
          },
          {
            "coding": [
              {
                "code": "127013003",
                "system": "http://snomed.info/sct",
                "display": "Disorder of kidney due to diabetes mellitus"
              }
            ]
          },
          {
            "coding": [
              {
                "code": "59621000",
                "system": "http://snomed.info/sct",
                "display": "Essential hypertension"
              }
            ]
          }
        ],
        "status": "active",
        "intent": "order",
        "code": {
          "coding": [
            {
              "code": "108252007",
              "system": "http://snomed.info/sct",
              "display": "Laboratory procedure"
            }
          ]
        },
        "subject": {
          "reference": "urn:uuid:01a7c577-5663-4767-9af2-b64f638470d5",
          "display": "Iva Kratochvílová"
        },
        "requester": {
          "reference": "urn:uuid:aa84b35b-cc7e-4d6f-94f8-5def084cdcd7"
        }
      }
    },
    {
      "fullUrl": "urn:uuid:aa84b35b-cc7e-4d6f-94f8-5def084cdcd7",
      "resource": {
        "resourceType": "PractitionerRole",
        "id": "aa84b35b-cc7e-4d6f-94f8-5def084cdcd7",
        "meta": {
          "profile": [
            "http://hl7.eu/fhir/base/StructureDefinition/practitionerRole-eu"
          ]
        },
        "text": {
          "status": "generated",
          "div": "<div xmlns=\"http://www.w3.org/1999/xhtml\">Provider Role Id: aa84b35b-cc7e-4d6f-94f8-5def084cdcd7</div>"
        },
        "organization": {
          "reference": "urn:uuid:63c38a0b-5492-4b31-bd3b-85e7fda23792"
        }
      }
    },
    {
      "fullUrl": "urn:uuid:63c38a0b-5492-4b31-bd3b-85e7fda23792",
      "resource": {
        "resourceType": "Organization",
        "id": "63c38a0b-5492-4b31-bd3b-85e7fda23792",
        "meta": {
          "profile": [
            "http://hl7.eu/fhir/base/StructureDefinition/organization-eu"
          ]
        },
        "identifier": [
          {
            "assigner": {
              "display": "HL7 Europe"
            },
            "system": "urn:oid:2.16.840.1.113883.2.51.999",
            "value": "19583a12-f42d-4f54-a6bc-1f618e59385a"
          }
        ],
        "address": [
          {
            "city": "Kadaň",
            "postalCode": "432 01",
            "country": "Czechia"
          }
        ],
        "text": {
          "status": "generated",
          "div": "<div xmlns=\"http://www.w3.org/1999/xhtml\">Provider Organization: Nemocnice s poliklinikou Kadaň</div>"
        },
        "name": "Nemocnice s poliklinikou Kadaň"
      }
    },
    {
      "fullUrl": "urn:uuid:b2d152dd-5777-4129-b815-adf85c09e1ca",
      "resource": {
        "resourceType": "Specimen",
        "id": "b2d152dd-5777-4129-b815-adf85c09e1ca",
        "meta": {
          "profile": [
            "http://hl7.eu/fhir/laboratory/StructureDefinition/Specimen-eu-lab"
          ]
        },
        "collection": {
          "collectedDateTime": "2016-06-14"
        },
        "text": {
          "status": "generated",
          "div": "<div xmlns=\"http://www.w3.org/1999/xhtml\"><table class=\"hl7__eu__lab__report\"><tr><th>Specimen</th><th>Collection Date</th></tr><tr><td>Whole blood specimen (specimen)</td><td><span class=\"nb\">14-Jun-2016</span></td></tr></table></div>"
        },
        "type": {
          "coding": [
            {
              "code": "258580003",
              "system": "http://snomed.info/sct",
              "display": "Whole blood specimen (specimen)"
            }
          ]
        }
      }
    },
    {
      "fullUrl": "urn:uuid:b2d152dd-5777-4129-b815-adf85c09e1ca",
      "resource": {
        "resourceType": "Specimen",
        "id": "b2d152dd-5777-4129-b815-adf85c09e1ca",
        "meta": {
          "profile": [
            "http://hl7.eu/fhir/laboratory/StructureDefinition/Specimen-eu-lab"
          ]
        },
        "collection": {
          "collectedDateTime": "2016-06-14"
        },
        "text": {
          "status": "generated",
          "div": "<div xmlns=\"http://www.w3.org/1999/xhtml\"><table class=\"hl7__eu__lab__report\"><tr><th>Specimen</th><th>Collection Date</th></tr><tr><td>Whole blood specimen (specimen)</td><td><span class=\"nb\">14-Jun-2016</span></td></tr></table></div>"
        },
        "type": {
          "coding": [
            {
              "code": "258580003",
              "system": "http://snomed.info/sct",
              "display": "Whole blood specimen (specimen)"
            }
          ]
        }
      }
    },
    {
      "fullUrl": "urn:uuid:9e2bb8f3-e2ba-4ee4-9e59-eb4beae2ad9b",
      "resource": {
        "resourceType": "Specimen",
        "id": "9e2bb8f3-e2ba-4ee4-9e59-eb4beae2ad9b",
        "meta": {
          "profile": [
            "http://hl7.eu/fhir/laboratory/StructureDefinition/Specimen-eu-lab"
          ]
        },
        "collection": {
          "collectedDateTime": "2016-06-14"
        },
        "text": {
          "status": "generated",
          "div": "<div xmlns=\"http://www.w3.org/1999/xhtml\"><table class=\"hl7__eu__lab__report\"><tr><th>Specimen</th><th>Collection Date</th></tr><tr><td>Urine specimen</td><td><span class=\"nb\">14-Jun-2016</span></td></tr></table></div>"
        },
        "type": {
          "coding": [
            {
              "code": "122575003",
              "system": "http://snomed.info/sct",
              "display": "Urine specimen"
            }
          ]
        }
      }
    },
    {
      "fullUrl": "urn:uuid:5eb1966d-1136-4b39-9084-cb41865b9c09",
      "resource": {
        "resourceType": "Observation",
        "id": "5eb1966d-1136-4b39-9084-cb41865b9c09",
        "meta": {
          "profile": [
            "http://hl7.eu/fhir/laboratory/StructureDefinition/Observation-resultslab-eu-lab"
          ]
        },
        "performer": [
          {
            "display": "The Central European Lab"
          }
        ],
        "category": [
          {
            "coding": [
              {
                "system": "http://terminology.hl7.org/CodeSystem/observation-category",
                "code": "laboratory"
              }
            ]
          }
        ],
        "code": {
          "coding": [
            {
              "code": "2339-0",
              "system": "http://loinc.org",
              "display": "Glucose [Mass/volume] in Blood"
            }
          ],
          "text": "Glucose [Mass/volume] in Blood"
        },
        "valueQuantity": {
          "system": "http://unitsofmeasure.org",
          "value": 91.4,
          "unit": "mg/dL",
          "code": "mg/dL"
        },
        "referenceRange": [
          {
            "low": {
              "value": 70,
              "code": "mg/dL",
              "system": "http://unitsofmeasure.org"
            }
          },
          {
            "high": {
              "value": 140,
              "code": "mg/dL",
              "system": "http://unitsofmeasure.org"
            }
          }
        ],
        "text": {
          "status": "generated",
          "div": "<div xmlns=\"http://www.w3.org/1999/xhtml\"><table class=\"hl7__eu__lab__report\"><tr><th>Test</th><th>14-Jun-2016</th><th>Reference&#xA0;Range</th><th>Unit</th></tr><tr><td>Glucose [Mass/volume] in Blood</td><td>91.4</td><td>70 - 140</td><td></td><td>mg/dL</td></tr></table></div>"
        },
        "status": "final",
        "subject": {
          "reference": "urn:uuid:01a7c577-5663-4767-9af2-b64f638470d5",
          "display": "Iva Kratochvílová"
        },
        "effectiveDateTime": "2016-06-14T03:15:20Z",
        "specimen": {
          "reference": "urn:uuid:b2d152dd-5777-4129-b815-adf85c09e1ca"
        }
      }
    },
    {
      "fullUrl": "urn:uuid:a195cc26-addf-4ac6-a009-a78f07b08d86",
      "resource": {
        "resourceType": "Observation",
        "id": "a195cc26-addf-4ac6-a009-a78f07b08d86",
        "meta": {
          "profile": [
            "http://hl7.eu/fhir/laboratory/StructureDefinition/Observation-resultslab-eu-lab"
          ]
        },
        "performer": [
          {
            "display": "The Central European Lab"
          }
        ],
        "category": [
          {
            "coding": [
              {
                "system": "http://terminology.hl7.org/CodeSystem/observation-category",
                "code": "laboratory"
              }
            ]
          }
        ],
        "code": {
          "coding": [
            {
              "code": "6299-2",
              "system": "http://loinc.org",
              "display": "Urea nitrogen [Mass/volume] in Blood"
            }
          ],
          "text": "Urea nitrogen [Mass/volume] in Blood"
        },
        "valueQuantity": {
          "system": "http://unitsofmeasure.org",
          "value": 15.9,
          "unit": "mg/dL",
          "code": "mg/dL"
        },
        "referenceRange": [
          {
            "low": {
              "value": 7,
              "code": "mg/dL",
              "system": "http://unitsofmeasure.org"
            }
          },
          {
            "high": {
              "value": 25,
              "code": "mg/dL",
              "system": "http://unitsofmeasure.org"
            }
          }
        ],
        "text": {
          "status": "generated",
          "div": "<div xmlns=\"http://www.w3.org/1999/xhtml\"><table class=\"hl7__eu__lab__report\"><tr><th>Test</th><th>14-Jun-2016</th><th>Reference&#xA0;Range</th><th>Unit</th></tr><tr><td>Urea nitrogen [Mass/volume] in Blood</td><td>15.9</td><td>7 - 25</td><td></td><td>mg/dL</td></tr></table></div>"
        },
        "status": "final",
        "subject": {
          "reference": "urn:uuid:01a7c577-5663-4767-9af2-b64f638470d5",
          "display": "Iva Kratochvílová"
        },
        "effectiveDateTime": "2016-06-14T03:15:20Z",
        "specimen": {
          "reference": "urn:uuid:b2d152dd-5777-4129-b815-adf85c09e1ca"
        }
      }
    },
    {
      "fullUrl": "urn:uuid:85d71d8c-e308-4786-8651-e8e853728ca5",
      "resource": {
        "resourceType": "Observation",
        "id": "85d71d8c-e308-4786-8651-e8e853728ca5",
        "meta": {
          "profile": [
            "http://hl7.eu/fhir/laboratory/StructureDefinition/Observation-resultslab-eu-lab"
          ]
        },
        "performer": [
          {
            "display": "The Central European Lab"
          }
        ],
        "category": [
          {
            "coding": [
              {
                "system": "http://terminology.hl7.org/CodeSystem/observation-category",
                "code": "laboratory"
              }
            ]
          }
        ],
        "code": {
          "coding": [
            {
              "code": "38483-4",
              "system": "http://loinc.org",
              "display": "Creatinine [Mass/volume] in Blood"
            }
          ],
          "text": "Creatinine [Mass/volume] in Blood"
        },
        "valueQuantity": {
          "system": "http://unitsofmeasure.org",
          "value": 0.8,
          "unit": "mg/dL",
          "code": "mg/dL"
        },
        "referenceRange": [
          {
            "low": {
              "value": 0.6,
              "code": "mg/dL",
              "system": "http://unitsofmeasure.org"
            }
          },
          {
            "high": {
              "value": 1.1,
              "code": "mg/dL",
              "system": "http://unitsofmeasure.org"
            }
          }
        ],
        "text": {
          "status": "generated",
          "div": "<div xmlns=\"http://www.w3.org/1999/xhtml\"><table class=\"hl7__eu__lab__report\"><tr><th>Test</th><th>14-Jun-2016</th><th>Reference&#xA0;Range</th><th>Unit</th></tr><tr><td>Creatinine [Mass/volume] in Blood</td><td>0.8</td><td>0.6 - 1.1</td><td></td><td>mg/dL</td></tr></table></div>"
        },
        "status": "final",
        "subject": {
          "reference": "urn:uuid:01a7c577-5663-4767-9af2-b64f638470d5",
          "display": "Iva Kratochvílová"
        },
        "effectiveDateTime": "2016-06-14T03:15:20Z",
        "specimen": {
          "reference": "urn:uuid:b2d152dd-5777-4129-b815-adf85c09e1ca"
        }
      }
    },
    {
      "fullUrl": "urn:uuid:854c85c4-7538-4667-937a-94b133c08735",
      "resource": {
        "resourceType": "Observation",
        "id": "854c85c4-7538-4667-937a-94b133c08735",
        "meta": {
          "profile": [
            "http://hl7.eu/fhir/laboratory/StructureDefinition/Observation-resultslab-eu-lab"
          ]
        },
        "performer": [
          {
            "display": "The Central European Lab"
          }
        ],
        "category": [
          {
            "coding": [
              {
                "system": "http://terminology.hl7.org/CodeSystem/observation-category",
                "code": "laboratory"
              }
            ]
          }
        ],
        "code": {
          "coding": [
            {
              "code": "49765-1",
              "system": "http://loinc.org",
              "display": "Calcium [Mass/volume] in Blood"
            }
          ],
          "text": "Calcium [Mass/volume] in Blood"
        },
        "valueQuantity": {
          "system": "http://unitsofmeasure.org",
          "value": 8.8,
          "unit": "mg/dL",
          "code": "mg/dL"
        },
        "referenceRange": [
          {
            "low": {
              "value": 8.6,
              "code": "mg/dL",
              "system": "http://unitsofmeasure.org"
            }
          },
          {
            "high": {
              "value": 10.4,
              "code": "mg/dL",
              "system": "http://unitsofmeasure.org"
            }
          }
        ],
        "text": {
          "status": "generated",
          "div": "<div xmlns=\"http://www.w3.org/1999/xhtml\"><table class=\"hl7__eu__lab__report\"><tr><th>Test</th><th>14-Jun-2016</th><th>Reference&#xA0;Range</th><th>Unit</th></tr><tr><td>Calcium [Mass/volume] in Blood</td><td>8.8</td><td>8.6 - 10.4</td><td></td><td>mg/dL</td></tr></table></div>"
        },
        "status": "final",
        "subject": {
          "reference": "urn:uuid:01a7c577-5663-4767-9af2-b64f638470d5",
          "display": "Iva Kratochvílová"
        },
        "effectiveDateTime": "2016-06-14T03:15:20Z",
        "specimen": {
          "reference": "urn:uuid:b2d152dd-5777-4129-b815-adf85c09e1ca"
        }
      }
    },
    {
      "fullUrl": "urn:uuid:dca52d29-017c-4f7d-b97c-3f2b94f99a75",
      "resource": {
        "resourceType": "Observation",
        "id": "dca52d29-017c-4f7d-b97c-3f2b94f99a75",
        "meta": {
          "profile": [
            "http://hl7.eu/fhir/laboratory/StructureDefinition/Observation-resultslab-eu-lab"
          ]
        },
        "performer": [
          {
            "display": "The Central European Lab"
          }
        ],
        "category": [
          {
            "coding": [
              {
                "system": "http://terminology.hl7.org/CodeSystem/observation-category",
                "code": "laboratory"
              }
            ]
          }
        ],
        "code": {
          "coding": [
            {
              "code": "2947-0",
              "system": "http://loinc.org",
              "display": "Sodium [Moles/volume] in Blood"
            }
          ],
          "text": "Sodium [Moles/volume] in Blood"
        },
        "valueQuantity": {
          "system": "http://unitsofmeasure.org",
          "value": 142,
          "unit": "mmol/L",
          "code": "mmol/L"
        },
        "referenceRange": [
          {
            "low": {
              "value": 135,
              "code": "mmol/L",
              "system": "http://unitsofmeasure.org"
            }
          },
          {
            "high": {
              "value": 145,
              "code": "mmol/L",
              "system": "http://unitsofmeasure.org"
            }
          }
        ],
        "text": {
          "status": "generated",
          "div": "<div xmlns=\"http://www.w3.org/1999/xhtml\"><table class=\"hl7__eu__lab__report\"><tr><th>Test</th><th>14-Jun-2016</th><th>Reference&#xA0;Range</th><th>Unit</th></tr><tr><td>Sodium [Moles/volume] in Blood</td><td>142.0</td><td>135 - 145</td><td></td><td>mmol/L</td></tr></table></div>"
        },
        "status": "final",
        "subject": {
          "reference": "urn:uuid:01a7c577-5663-4767-9af2-b64f638470d5",
          "display": "Iva Kratochvílová"
        },
        "effectiveDateTime": "2016-06-14T03:15:20Z",
        "specimen": {
          "reference": "urn:uuid:b2d152dd-5777-4129-b815-adf85c09e1ca"
        }
      }
    },
    {
      "fullUrl": "urn:uuid:3f850491-fca8-497d-bf3d-2d789afbfc44",
      "resource": {
        "resourceType": "Observation",
        "id": "3f850491-fca8-497d-bf3d-2d789afbfc44",
        "meta": {
          "profile": [
            "http://hl7.eu/fhir/laboratory/StructureDefinition/Observation-resultslab-eu-lab"
          ]
        },
        "performer": [
          {
            "display": "The Central European Lab"
          }
        ],
        "category": [
          {
            "coding": [
              {
                "system": "http://terminology.hl7.org/CodeSystem/observation-category",
                "code": "laboratory"
              }
            ]
          }
        ],
        "code": {
          "coding": [
            {
              "code": "6298-4",
              "system": "http://loinc.org",
              "display": "Potassium [Moles/volume] in Blood"
            }
          ],
          "text": "Potassium [Moles/volume] in Blood"
        },
        "valueQuantity": {
          "system": "http://unitsofmeasure.org",
          "value": 4.9,
          "unit": "mmol/L",
          "code": "mmol/L"
        },
        "referenceRange": [
          {
            "low": {
              "value": 3.5,
              "code": "mmol/L",
              "system": "http://unitsofmeasure.org"
            }
          },
          {
            "high": {
              "value": 5.1,
              "code": "mmol/L",
              "system": "http://unitsofmeasure.org"
            }
          }
        ],
        "text": {
          "status": "generated",
          "div": "<div xmlns=\"http://www.w3.org/1999/xhtml\"><table class=\"hl7__eu__lab__report\"><tr><th>Test</th><th>14-Jun-2016</th><th>Reference&#xA0;Range</th><th>Unit</th></tr><tr><td>Potassium [Moles/volume] in Blood</td><td>4.9</td><td>3.5 - 5.1</td><td></td><td>mmol/L</td></tr></table></div>"
        },
        "status": "final",
        "subject": {
          "reference": "urn:uuid:01a7c577-5663-4767-9af2-b64f638470d5",
          "display": "Iva Kratochvílová"
        },
        "effectiveDateTime": "2016-06-14T03:15:20Z",
        "specimen": {
          "reference": "urn:uuid:b2d152dd-5777-4129-b815-adf85c09e1ca"
        }
      }
    },
    {
      "fullUrl": "urn:uuid:c1dd5ad1-6aa5-484e-a329-449435308972",
      "resource": {
        "resourceType": "Observation",
        "id": "c1dd5ad1-6aa5-484e-a329-449435308972",
        "meta": {
          "profile": [
            "http://hl7.eu/fhir/laboratory/StructureDefinition/Observation-resultslab-eu-lab"
          ]
        },
        "performer": [
          {
            "display": "The Central European Lab"
          }
        ],
        "category": [
          {
            "coding": [
              {
                "system": "http://terminology.hl7.org/CodeSystem/observation-category",
                "code": "laboratory"
              }
            ]
          }
        ],
        "code": {
          "coding": [
            {
              "code": "2069-3",
              "system": "http://loinc.org",
              "display": "Chloride [Moles/volume] in Blood"
            }
          ],
          "text": "Chloride [Moles/volume] in Blood"
        },
        "valueQuantity": {
          "system": "http://unitsofmeasure.org",
          "value": 102.5,
          "unit": "mmol/L",
          "code": "mmol/L"
        },
        "referenceRange": [
          {
            "low": {
              "value": 98,
              "code": "mmol/L",
              "system": "http://unitsofmeasure.org"
            }
          },
          {
            "high": {
              "value": 110,
              "code": "mmol/L",
              "system": "http://unitsofmeasure.org"
            }
          }
        ],
        "text": {
          "status": "generated",
          "div": "<div xmlns=\"http://www.w3.org/1999/xhtml\"><table class=\"hl7__eu__lab__report\"><tr><th>Test</th><th>14-Jun-2016</th><th>Reference&#xA0;Range</th><th>Unit</th></tr><tr><td>Chloride [Moles/volume] in Blood</td><td>102.5</td><td>98 - 110</td><td></td><td>mmol/L</td></tr></table></div>"
        },
        "status": "final",
        "subject": {
          "reference": "urn:uuid:01a7c577-5663-4767-9af2-b64f638470d5",
          "display": "Iva Kratochvílová"
        },
        "effectiveDateTime": "2016-06-14T03:15:20Z",
        "specimen": {
          "reference": "urn:uuid:b2d152dd-5777-4129-b815-adf85c09e1ca"
        }
      }
    },
    {
      "fullUrl": "urn:uuid:3316e925-8d6c-4d6b-986b-785381377041",
      "resource": {
        "resourceType": "Observation",
        "id": "3316e925-8d6c-4d6b-986b-785381377041",
        "meta": {
          "profile": [
            "http://hl7.eu/fhir/laboratory/StructureDefinition/Observation-resultslab-eu-lab"
          ]
        },
        "performer": [
          {
            "display": "The Central European Lab"
          }
        ],
        "category": [
          {
            "coding": [
              {
                "system": "http://terminology.hl7.org/CodeSystem/observation-category",
                "code": "laboratory"
              }
            ]
          }
        ],
        "code": {
          "coding": [
            {
              "code": "20565-8",
              "system": "http://loinc.org",
              "display": "Carbon dioxide, total [Moles/volume] in Blood"
            }
          ],
          "text": "Carbon dioxide, total [Moles/volume] in Blood"
        },
        "valueQuantity": {
          "system": "http://unitsofmeasure.org",
          "value": 22.9,
          "unit": "mmol/L",
          "code": "mmol/L"
        },
        "referenceRange": [
          {
            "low": {
              "value": 22,
              "code": "mmol/L",
              "system": "http://unitsofmeasure.org"
            }
          },
          {
            "high": {
              "value": 29,
              "code": "mmol/L",
              "system": "http://unitsofmeasure.org"
            }
          }
        ],
        "text": {
          "status": "generated",
          "div": "<div xmlns=\"http://www.w3.org/1999/xhtml\"><table class=\"hl7__eu__lab__report\"><tr><th>Test</th><th>14-Jun-2016</th><th>Reference&#xA0;Range</th><th>Unit</th></tr><tr><td>Carbon dioxide, total [Moles/volume] in Blood</td><td>22.9</td><td>22 - 29</td><td></td><td>mmol/L</td></tr></table></div>"
        },
        "status": "final",
        "subject": {
          "reference": "urn:uuid:01a7c577-5663-4767-9af2-b64f638470d5",
          "display": "Iva Kratochvílová"
        },
        "effectiveDateTime": "2016-06-14T03:15:20Z",
        "specimen": {
          "reference": "urn:uuid:b2d152dd-5777-4129-b815-adf85c09e1ca"
        }
      }
    },
    {
      "fullUrl": "urn:uuid:b15ab9ee-037f-439d-8354-a496331ab9c5",
      "resource": {
        "resourceType": "Observation",
        "id": "b15ab9ee-037f-439d-8354-a496331ab9c5",
        "meta": {
          "profile": [
            "http://hl7.eu/fhir/laboratory/StructureDefinition/Observation-resultslab-eu-lab"
          ]
        },
        "performer": [
          {
            "display": "The Central European Lab"
          }
        ],
        "category": [
          {
            "coding": [
              {
                "system": "http://terminology.hl7.org/CodeSystem/observation-category",
                "code": "laboratory"
              }
            ]
          }
        ],
        "code": {
          "coding": [
            {
              "code": "6690-2",
              "system": "http://loinc.org",
              "display": "Leukocytes [#/volume] in Blood by Automated count"
            }
          ],
          "text": "Leukocytes [#/volume] in Blood by Automated count"
        },
        "valueQuantity": {
          "system": "http://unitsofmeasure.org",
          "value": 6.5,
          "unit": "10*3/uL",
          "code": "10*3/uL"
        },
        "referenceRange": [
          {
            "low": {
              "value": 3.4,
              "code": "10*3/uL",
              "system": "http://unitsofmeasure.org"
            }
          },
          {
            "high": {
              "value": 10.6,
              "code": "10*3/uL",
              "system": "http://unitsofmeasure.org"
            }
          }
        ],
        "text": {
          "status": "generated",
          "div": "<div xmlns=\"http://www.w3.org/1999/xhtml\"><table class=\"hl7__eu__lab__report\"><tr><th>Test</th><th>14-Jun-2016</th><th>Reference&#xA0;Range</th><th>Unit</th></tr><tr><td>Leukocytes [#/volume] in Blood by Automated count</td><td>6.5</td><td>3.4 - 10.6</td><td></td><td>10*3/uL</td></tr></table></div>"
        },
        "status": "final",
        "subject": {
          "reference": "urn:uuid:01a7c577-5663-4767-9af2-b64f638470d5",
          "display": "Iva Kratochvílová"
        },
        "effectiveDateTime": "2016-06-14T03:15:20Z",
        "specimen": {
          "reference": "urn:uuid:b2d152dd-5777-4129-b815-adf85c09e1ca"
        }
      }
    },
    {
      "fullUrl": "urn:uuid:2ecc6493-7539-4231-bc04-eaace64462d7",
      "resource": {
        "resourceType": "Observation",
        "id": "2ecc6493-7539-4231-bc04-eaace64462d7",
        "meta": {
          "profile": [
            "http://hl7.eu/fhir/laboratory/StructureDefinition/Observation-resultslab-eu-lab"
          ]
        },
        "performer": [
          {
            "display": "The Central European Lab"
          }
        ],
        "category": [
          {
            "coding": [
              {
                "system": "http://terminology.hl7.org/CodeSystem/observation-category",
                "code": "laboratory"
              }
            ]
          }
        ],
        "code": {
          "coding": [
            {
              "code": "789-8",
              "system": "http://loinc.org",
              "display": "Erythrocytes [#/volume] in Blood by Automated count"
            }
          ],
          "text": "Erythrocytes [#/volume] in Blood by Automated count"
        },
        "valueQuantity": {
          "system": "http://unitsofmeasure.org",
          "value": 5.1,
          "unit": "10*6/uL",
          "code": "10*6/uL"
        },
        "referenceRange": [
          {
            "low": {
              "value": 4.2,
              "code": "10*6/uL",
              "system": "http://unitsofmeasure.org"
            }
          },
          {
            "high": {
              "value": 5.2,
              "code": "10*6/uL",
              "system": "http://unitsofmeasure.org"
            }
          }
        ],
        "text": {
          "status": "generated",
          "div": "<div xmlns=\"http://www.w3.org/1999/xhtml\"><table class=\"hl7__eu__lab__report\"><tr><th>Test</th><th>14-Jun-2016</th><th>Reference&#xA0;Range</th><th>Unit</th></tr><tr><td>Erythrocytes [#/volume] in Blood by Automated count</td><td>5.1</td><td>4.2 - 5.2</td><td></td><td>10*6/uL</td></tr></table></div>"
        },
        "status": "final",
        "subject": {
          "reference": "urn:uuid:01a7c577-5663-4767-9af2-b64f638470d5",
          "display": "Iva Kratochvílová"
        },
        "effectiveDateTime": "2016-06-14T03:15:20Z",
        "specimen": {
          "reference": "urn:uuid:b2d152dd-5777-4129-b815-adf85c09e1ca"
        }
      }
    },
    {
      "fullUrl": "urn:uuid:f60e462e-352b-4868-8f11-cbc7cd83c251",
      "resource": {
        "resourceType": "Observation",
        "id": "f60e462e-352b-4868-8f11-cbc7cd83c251",
        "meta": {
          "profile": [
            "http://hl7.eu/fhir/laboratory/StructureDefinition/Observation-resultslab-eu-lab"
          ]
        },
        "performer": [
          {
            "display": "The Central European Lab"
          }
        ],
        "category": [
          {
            "coding": [
              {
                "system": "http://terminology.hl7.org/CodeSystem/observation-category",
                "code": "laboratory"
              }
            ]
          }
        ],
        "code": {
          "coding": [
            {
              "code": "718-7",
              "system": "http://loinc.org",
              "display": "Hemoglobin [Mass/volume] in Blood"
            }
          ],
          "text": "Hemoglobin [Mass/volume] in Blood"
        },
        "valueQuantity": {
          "system": "http://unitsofmeasure.org",
          "value": 14,
          "unit": "g/dL",
          "code": "g/dL"
        },
        "referenceRange": [
          {
            "low": {
              "value": 12,
              "code": "g/dL",
              "system": "http://unitsofmeasure.org"
            }
          },
          {
            "high": {
              "value": 16,
              "code": "g/dL",
              "system": "http://unitsofmeasure.org"
            }
          }
        ],
        "text": {
          "status": "generated",
          "div": "<div xmlns=\"http://www.w3.org/1999/xhtml\"><table class=\"hl7__eu__lab__report\"><tr><th>Test</th><th>14-Jun-2016</th><th>Reference&#xA0;Range</th><th>Unit</th></tr><tr><td>Hemoglobin [Mass/volume] in Blood</td><td>14.0</td><td>12 - 16</td><td></td><td>g/dL</td></tr></table></div>"
        },
        "status": "final",
        "subject": {
          "reference": "urn:uuid:01a7c577-5663-4767-9af2-b64f638470d5",
          "display": "Iva Kratochvílová"
        },
        "effectiveDateTime": "2016-06-14T03:15:20Z",
        "specimen": {
          "reference": "urn:uuid:b2d152dd-5777-4129-b815-adf85c09e1ca"
        }
      }
    },
    {
      "fullUrl": "urn:uuid:5c390e83-6190-46e8-bf3c-f58d3cbe62d0",
      "resource": {
        "resourceType": "Observation",
        "id": "5c390e83-6190-46e8-bf3c-f58d3cbe62d0",
        "meta": {
          "profile": [
            "http://hl7.eu/fhir/laboratory/StructureDefinition/Observation-resultslab-eu-lab"
          ]
        },
        "performer": [
          {
            "display": "The Central European Lab"
          }
        ],
        "category": [
          {
            "coding": [
              {
                "system": "http://terminology.hl7.org/CodeSystem/observation-category",
                "code": "laboratory"
              }
            ]
          }
        ],
        "code": {
          "coding": [
            {
              "code": "4544-3",
              "system": "http://loinc.org",
              "display": "Hematocrit [Volume Fraction] of Blood by Automated count"
            }
          ],
          "text": "Hematocrit [Volume Fraction] of Blood by Automated count"
        },
        "valueQuantity": {
          "system": "http://unitsofmeasure.org",
          "value": 41.7,
          "unit": "%",
          "code": "%"
        },
        "referenceRange": [
          {
            "low": {
              "value": 36,
              "code": "%",
              "system": "http://unitsofmeasure.org"
            }
          },
          {
            "high": {
              "value": 48,
              "code": "%",
              "system": "http://unitsofmeasure.org"
            }
          }
        ],
        "text": {
          "status": "generated",
          "div": "<div xmlns=\"http://www.w3.org/1999/xhtml\"><table class=\"hl7__eu__lab__report\"><tr><th>Test</th><th>14-Jun-2016</th><th>Reference&#xA0;Range</th><th>Unit</th></tr><tr><td>Hematocrit [Volume Fraction] of Blood by Automated count</td><td>41.7</td><td>36 - 48</td><td></td><td>%</td></tr></table></div>"
        },
        "status": "final",
        "subject": {
          "reference": "urn:uuid:01a7c577-5663-4767-9af2-b64f638470d5",
          "display": "Iva Kratochvílová"
        },
        "effectiveDateTime": "2016-06-14T03:15:20Z",
        "specimen": {
          "reference": "urn:uuid:b2d152dd-5777-4129-b815-adf85c09e1ca"
        }
      }
    },
    {
      "fullUrl": "urn:uuid:5e782bb6-9004-4d14-a2ad-4e2d0b9f87ff",
      "resource": {
        "resourceType": "Observation",
        "id": "5e782bb6-9004-4d14-a2ad-4e2d0b9f87ff",
        "meta": {
          "profile": [
            "http://hl7.eu/fhir/laboratory/StructureDefinition/Observation-resultslab-eu-lab"
          ]
        },
        "performer": [
          {
            "display": "The Central European Lab"
          }
        ],
        "category": [
          {
            "coding": [
              {
                "system": "http://terminology.hl7.org/CodeSystem/observation-category",
                "code": "laboratory"
              }
            ]
          }
        ],
        "code": {
          "coding": [
            {
              "code": "787-2",
              "system": "http://loinc.org",
              "display": "MCV [Entitic volume] by Automated count"
            }
          ],
          "text": "MCV [Entitic volume] by Automated count"
        },
        "valueQuantity": {
          "system": "http://unitsofmeasure.org",
          "value": 85.7,
          "unit": "fL",
          "code": "fL"
        },
        "referenceRange": [
          {
            "low": {
              "value": 82,
              "code": "fL",
              "system": "http://unitsofmeasure.org"
            }
          },
          {
            "high": {
              "value": 98,
              "code": "fL",
              "system": "http://unitsofmeasure.org"
            }
          }
        ],
        "text": {
          "status": "generated",
          "div": "<div xmlns=\"http://www.w3.org/1999/xhtml\"><table class=\"hl7__eu__lab__report\"><tr><th>Test</th><th>14-Jun-2016</th><th>Reference&#xA0;Range</th><th>Unit</th></tr><tr><td>MCV [Entitic volume] by Automated count</td><td>85.7</td><td>82 - 98</td><td></td><td>fL</td></tr></table></div>"
        },
        "status": "final",
        "subject": {
          "reference": "urn:uuid:01a7c577-5663-4767-9af2-b64f638470d5",
          "display": "Iva Kratochvílová"
        },
        "effectiveDateTime": "2016-06-14T03:15:20Z",
        "specimen": {
          "reference": "urn:uuid:b2d152dd-5777-4129-b815-adf85c09e1ca"
        }
      }
    },
    {
      "fullUrl": "urn:uuid:afdf871d-3560-43c2-a872-264a9e0277bb",
      "resource": {
        "resourceType": "Observation",
        "id": "afdf871d-3560-43c2-a872-264a9e0277bb",
        "meta": {
          "profile": [
            "http://hl7.eu/fhir/laboratory/StructureDefinition/Observation-resultslab-eu-lab"
          ]
        },
        "performer": [
          {
            "display": "The Central European Lab"
          }
        ],
        "category": [
          {
            "coding": [
              {
                "system": "http://terminology.hl7.org/CodeSystem/observation-category",
                "code": "laboratory"
              }
            ]
          }
        ],
        "code": {
          "coding": [
            {
              "code": "785-6",
              "system": "http://loinc.org",
              "display": "MCH [Entitic mass] by Automated count"
            }
          ],
          "text": "MCH [Entitic mass] by Automated count"
        },
        "valueQuantity": {
          "system": "http://unitsofmeasure.org",
          "value": 32.7,
          "unit": "pg",
          "code": "pg"
        },
        "referenceRange": [
          {
            "low": {
              "value": 27,
              "code": "pg",
              "system": "http://unitsofmeasure.org"
            }
          },
          {
            "high": {
              "value": 33,
              "code": "pg",
              "system": "http://unitsofmeasure.org"
            }
          }
        ],
        "text": {
          "status": "generated",
          "div": "<div xmlns=\"http://www.w3.org/1999/xhtml\"><table class=\"hl7__eu__lab__report\"><tr><th>Test</th><th>14-Jun-2016</th><th>Reference&#xA0;Range</th><th>Unit</th></tr><tr><td>MCH [Entitic mass] by Automated count</td><td>32.7</td><td>27 - 33</td><td></td><td>pg</td></tr></table></div>"
        },
        "status": "final",
        "subject": {
          "reference": "urn:uuid:01a7c577-5663-4767-9af2-b64f638470d5",
          "display": "Iva Kratochvílová"
        },
        "effectiveDateTime": "2016-06-14T03:15:20Z",
        "specimen": {
          "reference": "urn:uuid:b2d152dd-5777-4129-b815-adf85c09e1ca"
        }
      }
    },
    {
      "fullUrl": "urn:uuid:6205711a-462f-48a1-9e71-feaf3ee1a3c0",
      "resource": {
        "resourceType": "Observation",
        "id": "6205711a-462f-48a1-9e71-feaf3ee1a3c0",
        "meta": {
          "profile": [
            "http://hl7.eu/fhir/laboratory/StructureDefinition/Observation-resultslab-eu-lab"
          ]
        },
        "performer": [
          {
            "display": "The Central European Lab"
          }
        ],
        "category": [
          {
            "coding": [
              {
                "system": "http://terminology.hl7.org/CodeSystem/observation-category",
                "code": "laboratory"
              }
            ]
          }
        ],
        "code": {
          "coding": [
            {
              "code": "786-4",
              "system": "http://loinc.org",
              "display": "MCHC [Mass/volume] by Automated count"
            }
          ],
          "text": "MCHC [Mass/volume] by Automated count"
        },
        "valueQuantity": {
          "system": "http://unitsofmeasure.org",
          "value": 34.6,
          "unit": "g/dL",
          "code": "g/dL"
        },
        "referenceRange": [
          {
            "low": {
              "value": 32,
              "code": "g/dL",
              "system": "http://unitsofmeasure.org"
            }
          },
          {
            "high": {
              "value": 37,
              "code": "g/dL",
              "system": "http://unitsofmeasure.org"
            }
          }
        ],
        "text": {
          "status": "generated",
          "div": "<div xmlns=\"http://www.w3.org/1999/xhtml\"><table class=\"hl7__eu__lab__report\"><tr><th>Test</th><th>14-Jun-2016</th><th>Reference&#xA0;Range</th><th>Unit</th></tr><tr><td>MCHC [Mass/volume] by Automated count</td><td>34.6</td><td>32 - 37</td><td></td><td>g/dL</td></tr></table></div>"
        },
        "status": "final",
        "subject": {
          "reference": "urn:uuid:01a7c577-5663-4767-9af2-b64f638470d5",
          "display": "Iva Kratochvílová"
        },
        "effectiveDateTime": "2016-06-14T03:15:20Z",
        "specimen": {
          "reference": "urn:uuid:b2d152dd-5777-4129-b815-adf85c09e1ca"
        }
      }
    },
    {
      "fullUrl": "urn:uuid:6e075d66-b36d-48d3-b08c-e1afb2e30b33",
      "resource": {
        "resourceType": "Observation",
        "id": "6e075d66-b36d-48d3-b08c-e1afb2e30b33",
        "meta": {
          "profile": [
            "http://hl7.eu/fhir/laboratory/StructureDefinition/Observation-resultslab-eu-lab"
          ]
        },
        "performer": [
          {
            "display": "The Central European Lab"
          }
        ],
        "category": [
          {
            "coding": [
              {
                "system": "http://terminology.hl7.org/CodeSystem/observation-category",
                "code": "laboratory"
              }
            ]
          }
        ],
        "code": {
          "coding": [
            {
              "code": "21000-5",
              "system": "http://loinc.org",
              "display": "Erythrocyte distribution width [Entitic volume] by Automated count"
            }
          ],
          "text": "Erythrocyte distribution width [Entitic volume] by Automated count"
        },
        "valueQuantity": {
          "system": "http://unitsofmeasure.org",
          "value": 39,
          "unit": "fL",
          "code": "fL"
        },
        "referenceRange": [
          {
            "low": {
              "value": 36,
              "code": "fL",
              "system": "http://unitsofmeasure.org"
            }
          },
          {
            "high": {
              "value": 46,
              "code": "fL",
              "system": "http://unitsofmeasure.org"
            }
          }
        ],
        "text": {
          "status": "generated",
          "div": "<div xmlns=\"http://www.w3.org/1999/xhtml\"><table class=\"hl7__eu__lab__report\"><tr><th>Test</th><th>14-Jun-2016</th><th>Reference&#xA0;Range</th><th>Unit</th></tr><tr><td>Erythrocyte distribution width [Entitic volume] by Automated count</td><td>39.0</td><td>36 - 46</td><td></td><td>fL</td></tr></table></div>"
        },
        "status": "final",
        "subject": {
          "reference": "urn:uuid:01a7c577-5663-4767-9af2-b64f638470d5",
          "display": "Iva Kratochvílová"
        },
        "effectiveDateTime": "2016-06-14T03:15:20Z",
        "specimen": {
          "reference": "urn:uuid:b2d152dd-5777-4129-b815-adf85c09e1ca"
        }
      }
    },
    {
      "fullUrl": "urn:uuid:198c17d6-ff43-4837-bff5-f747b4e1ccbb",
      "resource": {
        "resourceType": "Observation",
        "id": "198c17d6-ff43-4837-bff5-f747b4e1ccbb",
        "meta": {
          "profile": [
            "http://hl7.eu/fhir/laboratory/StructureDefinition/Observation-resultslab-eu-lab"
          ]
        },
        "performer": [
          {
            "display": "The Central European Lab"
          }
        ],
        "category": [
          {
            "coding": [
              {
                "system": "http://terminology.hl7.org/CodeSystem/observation-category",
                "code": "laboratory"
              }
            ]
          }
        ],
        "code": {
          "coding": [
            {
              "code": "777-3",
              "system": "http://loinc.org",
              "display": "Platelets [#/volume] in Blood by Automated count"
            }
          ],
          "text": "Platelets [#/volume] in Blood by Automated count"
        },
        "valueQuantity": {
          "system": "http://unitsofmeasure.org",
          "value": 438.1,
          "unit": "10*3/uL",
          "code": "10*3/uL"
        },
        "referenceRange": [
          {
            "low": {
              "value": 150,
              "code": "10*3/uL",
              "system": "http://unitsofmeasure.org"
            }
          },
          {
            "high": {
              "value": 450,
              "code": "10*3/uL",
              "system": "http://unitsofmeasure.org"
            }
          }
        ],
        "text": {
          "status": "generated",
          "div": "<div xmlns=\"http://www.w3.org/1999/xhtml\"><table class=\"hl7__eu__lab__report\"><tr><th>Test</th><th>14-Jun-2016</th><th>Reference&#xA0;Range</th><th>Unit</th></tr><tr><td>Platelets [#/volume] in Blood by Automated count</td><td>438.1</td><td>150 - 450</td><td></td><td>10*3/uL</td></tr></table></div>"
        },
        "status": "final",
        "subject": {
          "reference": "urn:uuid:01a7c577-5663-4767-9af2-b64f638470d5",
          "display": "Iva Kratochvílová"
        },
        "effectiveDateTime": "2016-06-14T03:15:20Z",
        "specimen": {
          "reference": "urn:uuid:b2d152dd-5777-4129-b815-adf85c09e1ca"
        }
      }
    },
    {
      "fullUrl": "urn:uuid:9c07930a-ee94-4abe-9dd9-9c2625f90266",
      "resource": {
        "resourceType": "Observation",
        "id": "9c07930a-ee94-4abe-9dd9-9c2625f90266",
        "meta": {
          "profile": [
            "http://hl7.eu/fhir/laboratory/StructureDefinition/Observation-resultslab-eu-lab"
          ]
        },
        "performer": [
          {
            "display": "The Central European Lab"
          }
        ],
        "category": [
          {
            "coding": [
              {
                "system": "http://terminology.hl7.org/CodeSystem/observation-category",
                "code": "laboratory"
              }
            ]
          }
        ],
        "code": {
          "coding": [
            {
              "code": "32207-3",
              "system": "http://loinc.org",
              "display": "Platelet distribution width [Entitic volume] in Blood by Automated count"
            }
          ],
          "text": "Platelet distribution width [Entitic volume] in Blood by Automated count"
        },
        "valueQuantity": {
          "system": "http://unitsofmeasure.org",
          "value": 175.7,
          "unit": "fL",
          "code": "fL"
        },
        "referenceRange": [
          {
            "low": {
              "value": 11.6,
              "code": "fL",
              "system": "http://unitsofmeasure.org"
            }
          },
          {
            "high": {
              "value": 17.4,
              "code": "fL",
              "system": "http://unitsofmeasure.org"
            }
          }
        ],
        "interpretation": [
          {
            "coding": [
              {
                "code": "H",
                "system": "http://terminology.hl7.org/CodeSystem/v3-ObservationInterpretation",
                "display": "High"
              }
            ]
          }
        ],
        "text": {
          "status": "generated",
          "div": "<div xmlns=\"http://www.w3.org/1999/xhtml\"><table class=\"hl7__eu__lab__report\"><tr><th>Test</th><th>14-Jun-2016</th><th>Reference&#xA0;Range</th><th>Unit</th></tr><tr><td>Platelet distribution width [Entitic volume] in Blood by Automated count</td><td>175.7</td><td>11.6 - 17.4</td><td>H</td><td>fL</td></tr></table></div>"
        },
        "status": "final",
        "subject": {
          "reference": "urn:uuid:01a7c577-5663-4767-9af2-b64f638470d5",
          "display": "Iva Kratochvílová"
        },
        "effectiveDateTime": "2016-06-14T03:15:20Z",
        "specimen": {
          "reference": "urn:uuid:b2d152dd-5777-4129-b815-adf85c09e1ca"
        }
      }
    },
    {
      "fullUrl": "urn:uuid:fbd9e4d8-7ff4-46d0-a5e2-3bd093d1a1c2",
      "resource": {
        "resourceType": "Observation",
        "id": "fbd9e4d8-7ff4-46d0-a5e2-3bd093d1a1c2",
        "meta": {
          "profile": [
            "http://hl7.eu/fhir/laboratory/StructureDefinition/Observation-resultslab-eu-lab"
          ]
        },
        "performer": [
          {
            "display": "The Central European Lab"
          }
        ],
        "category": [
          {
            "coding": [
              {
                "system": "http://terminology.hl7.org/CodeSystem/observation-category",
                "code": "laboratory"
              }
            ]
          }
        ],
        "code": {
          "coding": [
            {
              "code": "32623-1",
              "system": "http://loinc.org",
              "display": "Platelet mean volume [Entitic volume] in Blood by Automated count"
            }
          ],
          "text": "Platelet mean volume [Entitic volume] in Blood by Automated count"
        },
        "valueQuantity": {
          "system": "http://unitsofmeasure.org",
          "value": 11.5,
          "unit": "fL",
          "code": "fL"
        },
        "referenceRange": [
          {
            "low": {
              "value": 7.4,
              "code": "fL",
              "system": "http://unitsofmeasure.org"
            }
          },
          {
            "high": {
              "value": 12,
              "code": "fL",
              "system": "http://unitsofmeasure.org"
            }
          }
        ],
        "text": {
          "status": "generated",
          "div": "<div xmlns=\"http://www.w3.org/1999/xhtml\"><table class=\"hl7__eu__lab__report\"><tr><th>Test</th><th>14-Jun-2016</th><th>Reference&#xA0;Range</th><th>Unit</th></tr><tr><td>Platelet mean volume [Entitic volume] in Blood by Automated count</td><td>11.5</td><td>7.4 - 12</td><td></td><td>fL</td></tr></table></div>"
        },
        "status": "final",
        "subject": {
          "reference": "urn:uuid:01a7c577-5663-4767-9af2-b64f638470d5",
          "display": "Iva Kratochvílová"
        },
        "effectiveDateTime": "2016-06-14T03:15:20Z",
        "specimen": {
          "reference": "urn:uuid:b2d152dd-5777-4129-b815-adf85c09e1ca"
        }
      }
    },
    {
      "fullUrl": "urn:uuid:758bd881-f37f-44f9-a7bd-72cd7ebeb3eb",
      "resource": {
        "resourceType": "Observation",
        "id": "758bd881-f37f-44f9-a7bd-72cd7ebeb3eb",
        "meta": {
          "profile": [
            "http://hl7.eu/fhir/laboratory/StructureDefinition/Observation-resultslab-eu-lab"
          ]
        },
        "performer": [
          {
            "display": "The Central European Lab"
          }
        ],
        "category": [
          {
            "coding": [
              {
                "system": "http://terminology.hl7.org/CodeSystem/observation-category",
                "code": "laboratory"
              }
            ]
          }
        ],
        "code": {
          "coding": [
            {
              "code": "25428-4",
              "system": "http://loinc.org",
              "display": "Glucose [Presence] in Urine by Test strip"
            }
          ],
          "text": "Glucose [Presence] in Urine by Test strip"
        },
        "valueQuantity": {
          "system": "http://unitsofmeasure.org",
          "value": 0,
          "unit": "{presence}",
          "code": "{presence}"
        },
        "referenceRange": [
          {
            "low": {
              "value": 0,
              "code": "g/dL",
              "system": "http://unitsofmeasure.org"
            }
          },
          {
            "high": {
              "value": 0.8,
              "code": "g/dL",
              "system": "http://unitsofmeasure.org"
            }
          }
        ],
        "text": {
          "status": "generated",
          "div": "<div xmlns=\"http://www.w3.org/1999/xhtml\"><table class=\"hl7__eu__lab__report\"><tr><th>Test</th><th>14-Jun-2016</th><th>Reference&#xA0;Range</th><th>Unit</th></tr><tr><td>Glucose [Presence] in Urine by Test strip</td><td>0.0</td><td>0 - 0.8</td><td></td><td>{presence}</td></tr></table></div>"
        },
        "status": "final",
        "subject": {
          "reference": "urn:uuid:01a7c577-5663-4767-9af2-b64f638470d5",
          "display": "Iva Kratochvílová"
        },
        "effectiveDateTime": "2016-06-14T03:15:20Z",
        "specimen": {
          "reference": "urn:uuid:9e2bb8f3-e2ba-4ee4-9e59-eb4beae2ad9b"
        }
      }
    },
    {
      "fullUrl": "urn:uuid:cc254c31-599f-4713-a5fb-f84825c9feef",
      "resource": {
        "resourceType": "Observation",
        "id": "cc254c31-599f-4713-a5fb-f84825c9feef",
        "meta": {
          "profile": [
            "http://hl7.eu/fhir/laboratory/StructureDefinition/Observation-resultslab-eu-lab"
          ]
        },
        "performer": [
          {
            "display": "The Central European Lab"
          }
        ],
        "category": [
          {
            "coding": [
              {
                "system": "http://terminology.hl7.org/CodeSystem/observation-category",
                "code": "laboratory"
              }
            ]
          }
        ],
        "code": {
          "coding": [
            {
              "code": "5770-3",
              "system": "http://loinc.org",
              "display": "Bilirubin.total [Presence] in Urine by Test strip"
            }
          ],
          "text": "Bilirubin.total [Presence] in Urine by Test strip"
        },
        "valueQuantity": {
          "system": "http://unitsofmeasure.org",
          "value": 0,
          "unit": "{presence}",
          "code": "{presence}"
        },
        "referenceRange": [
          {
            "low": {
              "value": 0,
              "code": "mg/dL",
              "system": "http://unitsofmeasure.org"
            }
          },
          {
            "high": {
              "value": 0,
              "code": "mg/dL",
              "system": "http://unitsofmeasure.org"
            }
          }
        ],
        "text": {
          "status": "generated",
          "div": "<div xmlns=\"http://www.w3.org/1999/xhtml\"><table class=\"hl7__eu__lab__report\"><tr><th>Test</th><th>14-Jun-2016</th><th>Reference&#xA0;Range</th><th>Unit</th></tr><tr><td>Bilirubin.total [Presence] in Urine by Test strip</td><td>0.0</td><td>0 - 0</td><td></td><td>{presence}</td></tr></table></div>"
        },
        "status": "final",
        "subject": {
          "reference": "urn:uuid:01a7c577-5663-4767-9af2-b64f638470d5",
          "display": "Iva Kratochvílová"
        },
        "effectiveDateTime": "2016-06-14T03:15:20Z",
        "specimen": {
          "reference": "urn:uuid:9e2bb8f3-e2ba-4ee4-9e59-eb4beae2ad9b"
        }
      }
    },
    {
      "fullUrl": "urn:uuid:91fc30ff-55eb-40b4-a6ca-4005acbdec8b",
      "resource": {
        "resourceType": "Observation",
        "id": "91fc30ff-55eb-40b4-a6ca-4005acbdec8b",
        "meta": {
          "profile": [
            "http://hl7.eu/fhir/laboratory/StructureDefinition/Observation-resultslab-eu-lab"
          ]
        },
        "performer": [
          {
            "display": "The Central European Lab"
          }
        ],
        "category": [
          {
            "coding": [
              {
                "system": "http://terminology.hl7.org/CodeSystem/observation-category",
                "code": "laboratory"
              }
            ]
          }
        ],
        "code": {
          "coding": [
            {
              "code": "2514-8",
              "system": "http://loinc.org",
              "display": "Ketones [Presence] in Urine by Test strip"
            }
          ],
          "text": "Ketones [Presence] in Urine by Test strip"
        },
        "valueQuantity": {
          "system": "http://unitsofmeasure.org",
          "value": 0,
          "unit": "{presence}",
          "code": "{presence}"
        },
        "referenceRange": [
          {
            "low": {
              "value": 0,
              "code": "Presence",
              "system": "http://unitsofmeasure.org"
            }
          },
          {
            "high": {
              "value": 0,
              "code": "Presence",
              "system": "http://unitsofmeasure.org"
            }
          }
        ],
        "text": {
          "status": "generated",
          "div": "<div xmlns=\"http://www.w3.org/1999/xhtml\"><table class=\"hl7__eu__lab__report\"><tr><th>Test</th><th>14-Jun-2016</th><th>Reference&#xA0;Range</th><th>Unit</th></tr><tr><td>Ketones [Presence] in Urine by Test strip</td><td>0.0</td><td>0 - 0</td><td></td><td>{presence}</td></tr></table></div>"
        },
        "status": "final",
        "subject": {
          "reference": "urn:uuid:01a7c577-5663-4767-9af2-b64f638470d5",
          "display": "Iva Kratochvílová"
        },
        "effectiveDateTime": "2016-06-14T03:15:20Z",
        "specimen": {
          "reference": "urn:uuid:9e2bb8f3-e2ba-4ee4-9e59-eb4beae2ad9b"
        }
      }
    },
    {
      "fullUrl": "urn:uuid:be871d7e-4a88-4a37-9ea6-d13d88d54310",
      "resource": {
        "resourceType": "Observation",
        "id": "be871d7e-4a88-4a37-9ea6-d13d88d54310",
        "meta": {
          "profile": [
            "http://hl7.eu/fhir/laboratory/StructureDefinition/Observation-resultslab-eu-lab"
          ]
        },
        "performer": [
          {
            "display": "The Central European Lab"
          }
        ],
        "category": [
          {
            "coding": [
              {
                "system": "http://terminology.hl7.org/CodeSystem/observation-category",
                "code": "laboratory"
              }
            ]
          }
        ],
        "code": {
          "coding": [
            {
              "code": "5811-5",
              "system": "http://loinc.org",
              "display": "Specific gravity of Urine by Test strip"
            }
          ],
          "text": "Specific gravity of Urine by Test strip"
        },
        "valueQuantity": {
          "system": "http://unitsofmeasure.org",
          "value": 1,
          "unit": "{SG}",
          "code": "{SG}"
        },
        "referenceRange": [
          {
            "low": {
              "value": 1.005,
              "code": "SG",
              "system": "http://unitsofmeasure.org"
            }
          },
          {
            "high": {
              "value": 1.03,
              "code": "SG",
              "system": "http://unitsofmeasure.org"
            }
          }
        ],
        "interpretation": [
          {
            "coding": [
              {
                "code": "L",
                "system": "http://terminology.hl7.org/CodeSystem/v3-ObservationInterpretation",
                "display": "Low"
              }
            ]
          }
        ],
        "text": {
          "status": "generated",
          "div": "<div xmlns=\"http://www.w3.org/1999/xhtml\"><table class=\"hl7__eu__lab__report\"><tr><th>Test</th><th>14-Jun-2016</th><th>Reference&#xA0;Range</th><th>Unit</th></tr><tr><td>Specific gravity of Urine by Test strip</td><td>1.0</td><td>1.005 - 1.03</td><td>L</td><td>{SG}</td></tr></table></div>"
        },
        "status": "final",
        "subject": {
          "reference": "urn:uuid:01a7c577-5663-4767-9af2-b64f638470d5",
          "display": "Iva Kratochvílová"
        },
        "effectiveDateTime": "2016-06-14T03:15:20Z",
        "specimen": {
          "reference": "urn:uuid:9e2bb8f3-e2ba-4ee4-9e59-eb4beae2ad9b"
        }
      }
    },
    {
      "fullUrl": "urn:uuid:22f43f24-131b-436e-8914-df46368e8720",
      "resource": {
        "resourceType": "Observation",
        "id": "22f43f24-131b-436e-8914-df46368e8720",
        "meta": {
          "profile": [
            "http://hl7.eu/fhir/laboratory/StructureDefinition/Observation-resultslab-eu-lab"
          ]
        },
        "performer": [
          {
            "display": "The Central European Lab"
          }
        ],
        "category": [
          {
            "coding": [
              {
                "system": "http://terminology.hl7.org/CodeSystem/observation-category",
                "code": "laboratory"
              }
            ]
          }
        ],
        "code": {
          "coding": [
            {
              "code": "5803-2",
              "system": "http://loinc.org",
              "display": "pH of Urine by Test strip"
            }
          ],
          "text": "pH of Urine by Test strip"
        },
        "valueQuantity": {
          "system": "http://unitsofmeasure.org",
          "value": 7,
          "unit": "[pH]",
          "code": "[pH]"
        },
        "referenceRange": [
          {
            "low": {
              "value": 4.5,
              "code": "pH",
              "system": "http://unitsofmeasure.org"
            }
          },
          {
            "high": {
              "value": 8,
              "code": "pH",
              "system": "http://unitsofmeasure.org"
            }
          }
        ],
        "text": {
          "status": "generated",
          "div": "<div xmlns=\"http://www.w3.org/1999/xhtml\"><table class=\"hl7__eu__lab__report\"><tr><th>Test</th><th>14-Jun-2016</th><th>Reference&#xA0;Range</th><th>Unit</th></tr><tr><td>pH of Urine by Test strip</td><td>7.0</td><td>4.5 - 8</td><td></td><td>[pH]</td></tr></table></div>"
        },
        "status": "final",
        "subject": {
          "reference": "urn:uuid:01a7c577-5663-4767-9af2-b64f638470d5",
          "display": "Iva Kratochvílová"
        },
        "effectiveDateTime": "2016-06-14T03:15:20Z",
        "specimen": {
          "reference": "urn:uuid:9e2bb8f3-e2ba-4ee4-9e59-eb4beae2ad9b"
        }
      }
    },
    {
      "fullUrl": "urn:uuid:2185f11f-abca-4011-989f-33330846aa37",
      "resource": {
        "resourceType": "Observation",
        "id": "2185f11f-abca-4011-989f-33330846aa37",
        "meta": {
          "profile": [
            "http://hl7.eu/fhir/laboratory/StructureDefinition/Observation-resultslab-eu-lab"
          ]
        },
        "performer": [
          {
            "display": "The Central European Lab"
          }
        ],
        "category": [
          {
            "coding": [
              {
                "system": "http://terminology.hl7.org/CodeSystem/observation-category",
                "code": "laboratory"
              }
            ]
          }
        ],
        "code": {
          "coding": [
            {
              "code": "20454-5",
              "system": "http://loinc.org",
              "display": "Protein [Presence] in Urine by Test strip"
            }
          ],
          "text": "Protein [Presence] in Urine by Test strip"
        },
        "valueQuantity": {
          "system": "http://unitsofmeasure.org",
          "value": 0,
          "unit": "{presence}",
          "code": "{presence}"
        },
        "referenceRange": [
          {
            "low": {
              "value": 0,
              "code": "mg/dL",
              "system": "http://unitsofmeasure.org"
            }
          },
          {
            "high": {
              "value": 0,
              "code": "mg/dL",
              "system": "http://unitsofmeasure.org"
            }
          }
        ],
        "text": {
          "status": "generated",
          "div": "<div xmlns=\"http://www.w3.org/1999/xhtml\"><table class=\"hl7__eu__lab__report\"><tr><th>Test</th><th>14-Jun-2016</th><th>Reference&#xA0;Range</th><th>Unit</th></tr><tr><td>Protein [Presence] in Urine by Test strip</td><td>0.0</td><td>0 - 0</td><td></td><td>{presence}</td></tr></table></div>"
        },
        "status": "final",
        "subject": {
          "reference": "urn:uuid:01a7c577-5663-4767-9af2-b64f638470d5",
          "display": "Iva Kratochvílová"
        },
        "effectiveDateTime": "2016-06-14T03:15:20Z",
        "specimen": {
          "reference": "urn:uuid:9e2bb8f3-e2ba-4ee4-9e59-eb4beae2ad9b"
        }
      }
    },
    {
      "fullUrl": "urn:uuid:a97f5e23-1902-4279-b386-cfd60d345d1d",
      "resource": {
        "resourceType": "Observation",
        "id": "a97f5e23-1902-4279-b386-cfd60d345d1d",
        "meta": {
          "profile": [
            "http://hl7.eu/fhir/laboratory/StructureDefinition/Observation-resultslab-eu-lab"
          ]
        },
        "performer": [
          {
            "display": "The Central European Lab"
          }
        ],
        "category": [
          {
            "coding": [
              {
                "system": "http://terminology.hl7.org/CodeSystem/observation-category",
                "code": "laboratory"
              }
            ]
          }
        ],
        "code": {
          "coding": [
            {
              "code": "5802-4",
              "system": "http://loinc.org",
              "display": "Nitrite [Presence] in Urine by Test strip"
            }
          ],
          "text": "Nitrite [Presence] in Urine by Test strip"
        },
        "valueQuantity": {
          "system": "http://unitsofmeasure.org",
          "value": 0,
          "unit": "{presence}",
          "code": "{presence}"
        },
        "referenceRange": [
          {
            "low": {
              "value": 0,
              "code": "Presence",
              "system": "http://unitsofmeasure.org"
            }
          },
          {
            "high": {
              "value": 0,
              "code": "Presence",
              "system": "http://unitsofmeasure.org"
            }
          }
        ],
        "text": {
          "status": "generated",
          "div": "<div xmlns=\"http://www.w3.org/1999/xhtml\"><table class=\"hl7__eu__lab__report\"><tr><th>Test</th><th>14-Jun-2016</th><th>Reference&#xA0;Range</th><th>Unit</th></tr><tr><td>Nitrite [Presence] in Urine by Test strip</td><td>0.0</td><td>0 - 0</td><td></td><td>{presence}</td></tr></table></div>"
        },
        "status": "final",
        "subject": {
          "reference": "urn:uuid:01a7c577-5663-4767-9af2-b64f638470d5",
          "display": "Iva Kratochvílová"
        },
        "effectiveDateTime": "2016-06-14T03:15:20Z",
        "specimen": {
          "reference": "urn:uuid:9e2bb8f3-e2ba-4ee4-9e59-eb4beae2ad9b"
        }
      }
    },
    {
      "fullUrl": "urn:uuid:31556d49-9f57-4f34-914d-637a0fbb081b",
      "resource": {
        "resourceType": "Observation",
        "id": "31556d49-9f57-4f34-914d-637a0fbb081b",
        "meta": {
          "profile": [
            "http://hl7.eu/fhir/laboratory/StructureDefinition/Observation-resultslab-eu-lab"
          ]
        },
        "performer": [
          {
            "display": "The Central European Lab"
          }
        ],
        "category": [
          {
            "coding": [
              {
                "system": "http://terminology.hl7.org/CodeSystem/observation-category",
                "code": "laboratory"
              }
            ]
          }
        ],
        "code": {
          "coding": [
            {
              "code": "5794-3",
              "system": "http://loinc.org",
              "display": "Hemoglobin [Presence] in Urine by Test strip"
            }
          ],
          "text": "Hemoglobin [Presence] in Urine by Test strip"
        },
        "valueQuantity": {
          "system": "http://unitsofmeasure.org",
          "value": 0,
          "unit": "{presence}",
          "code": "{presence}"
        },
        "referenceRange": [
          {
            "low": {
              "value": 0,
              "code": "Presence",
              "system": "http://unitsofmeasure.org"
            }
          },
          {
            "high": {
              "value": 0,
              "code": "Presence",
              "system": "http://unitsofmeasure.org"
            }
          }
        ],
        "text": {
          "status": "generated",
          "div": "<div xmlns=\"http://www.w3.org/1999/xhtml\"><table class=\"hl7__eu__lab__report\"><tr><th>Test</th><th>14-Jun-2016</th><th>Reference&#xA0;Range</th><th>Unit</th></tr><tr><td>Hemoglobin [Presence] in Urine by Test strip</td><td>0.0</td><td>0 - 0</td><td></td><td>{presence}</td></tr></table></div>"
        },
        "status": "final",
        "subject": {
          "reference": "urn:uuid:01a7c577-5663-4767-9af2-b64f638470d5",
          "display": "Iva Kratochvílová"
        },
        "effectiveDateTime": "2016-06-14T03:15:20Z",
        "specimen": {
          "reference": "urn:uuid:9e2bb8f3-e2ba-4ee4-9e59-eb4beae2ad9b"
        }
      }
    },
    {
      "fullUrl": "urn:uuid:9ef331c3-8ac0-4823-b876-730e03a7f2c2",
      "resource": {
        "resourceType": "Observation",
        "id": "9ef331c3-8ac0-4823-b876-730e03a7f2c2",
        "meta": {
          "profile": [
            "http://hl7.eu/fhir/laboratory/StructureDefinition/Observation-resultslab-eu-lab"
          ]
        },
        "performer": [
          {
            "display": "The Central European Lab"
          }
        ],
        "category": [
          {
            "coding": [
              {
                "system": "http://terminology.hl7.org/CodeSystem/observation-category",
                "code": "laboratory"
              }
            ]
          }
        ],
        "code": {
          "coding": [
            {
              "code": "5799-2",
              "system": "http://loinc.org",
              "display": "Leukocyte esterase [Presence] in Urine by Test strip"
            }
          ],
          "text": "Leukocyte esterase [Presence] in Urine by Test strip"
        },
        "valueQuantity": {
          "system": "http://unitsofmeasure.org",
          "value": 0,
          "unit": "{presence}",
          "code": "{presence}"
        },
        "referenceRange": [
          {
            "low": {
              "value": 0,
              "code": "Presence",
              "system": "http://unitsofmeasure.org"
            }
          },
          {
            "high": {
              "value": 0,
              "code": "Presence",
              "system": "http://unitsofmeasure.org"
            }
          }
        ],
        "text": {
          "status": "generated",
          "div": "<div xmlns=\"http://www.w3.org/1999/xhtml\"><table class=\"hl7__eu__lab__report\"><tr><th>Test</th><th>14-Jun-2016</th><th>Reference&#xA0;Range</th><th>Unit</th></tr><tr><td>Leukocyte esterase [Presence] in Urine by Test strip</td><td>0.0</td><td>0 - 0</td><td></td><td>{presence}</td></tr></table></div>"
        },
        "status": "final",
        "subject": {
          "reference": "urn:uuid:01a7c577-5663-4767-9af2-b64f638470d5",
          "display": "Iva Kratochvílová"
        },
        "effectiveDateTime": "2016-06-14T03:15:20Z",
        "specimen": {
          "reference": "urn:uuid:9e2bb8f3-e2ba-4ee4-9e59-eb4beae2ad9b"
        }
      }
    },
    {
      "fullUrl": "urn:uuid:9ac8eb9b-c2ff-4fbf-9866-553837991963",
      "resource": {
        "resourceType": "Device",
        "id": "9ac8eb9b-c2ff-4fbf-9866-553837991963",
        "deviceName": [
          {
            "name": "SYNDERAI Synthetic Generator",
            "type": "manufacturer-name"
          }
        ],
        "version": [
          {
            "value": "5.0"
          }
        ],
        "text": {
          "status": "generated",
          "div": "<div xmlns=\"http://www.w3.org/1999/xhtml\">SYNDERAI Synthetic Generator v5.0</div>"
        },
        "status": "active\"",
        "distinctIdentifier": "synderai-generator-50",
        "manufacturer": "SYNDERAI Project"
      }
    },
    {
      "fullUrl": "urn:uuid:143e3dbe-c592-4e0e-b7ff-a4f846ac7256",
      "resource": {
        "resourceType": "Provenance",
        "id": "143e3dbe-c592-4e0e-b7ff-a4f846ac7256",
        "target": [
          {
            "reference": "Patient/01a7c577-5663-4767-9af2-b64f638470d5"
          },
          {
            "reference": "Bundle/e95f5262-8bd8-46f4-a261-04414b0f337a"
          },
          {
            "reference": "Composition/446c0b6f-25ed-44ac-99fa-005d38d912af"
          },
          {
            "reference": "PractitionerRole/4ea03015-083a-499a-80d9-cf285affe896"
          },
          {
            "reference": "Practitioner/1b8b6b81-0b18-4700-ba33-8c2a57e4c698"
          },
          {
            "reference": "PractitionerRole/aa84b35b-cc7e-4d6f-94f8-5def084cdcd7"
          },
          {
            "reference": "Organization/63c38a0b-5492-4b31-bd3b-85e7fda23792"
          }
        ],
        "activity": {
          "text": "Synthetic Example Data Generation"
        },
        "policy": [
          "https://synderai.net/synderai-synthetic-data-policy"
        ],
        "agent": [
          {
            "type": {
              "text": "author"
            },
            "who": {
              "reference": "Device/9ac8eb9b-c2ff-4fbf-9866-553837991963"
            }
          }
        ],
        "reason": [
          {
            "text": "Interoperability Testing and Training (non-clinical use)"
          }
        ],
        "text": {
          "status": "generated",
          "div": "<div xmlns=\"http://www.w3.org/1999/xhtml\">Provenance for SYNDERAI Synthetic Example Data Resource</div>"
        },
        "recorded": "2016-06-14T05:15:20Z"
      }
    },
    {
      "fullUrl": "urn:uuid:4ea03015-083a-499a-80d9-cf285affe896",
      "resource": {
        "resourceType": "PractitionerRole",
        "id": "4ea03015-083a-499a-80d9-cf285affe896",
        "meta": {
          "profile": [
            "http://hl7.eu/fhir/base/StructureDefinition/practitionerRole-eu"
          ]
        },
        "text": {
          "status": "generated",
          "div": "<div xmlns=\"http://www.w3.org/1999/xhtml\">Laboratory Role Id: 4ea03015-083a-499a-80d9-cf285affe896</div>"
        },
        "practitioner": {
          "reference": "urn:uuid:1b8b6b81-0b18-4700-ba33-8c2a57e4c698"
        }
      }
    },
    {
      "fullUrl": "urn:uuid:1b8b6b81-0b18-4700-ba33-8c2a57e4c698",
      "resource": {
        "resourceType": "Practitioner",
        "id": "1b8b6b81-0b18-4700-ba33-8c2a57e4c698",
        "meta": {
          "profile": [
            "http://hl7.eu/fhir/base/StructureDefinition/practitioner-eu"
          ]
        },
        "identifier": [
          {
            "assigner": {
              "display": "HL7 Europe"
            },
            "system": "urn:oid:2.16.840.1.113883.2.51.999",
            "value": "7a633c1b-cd34-465c-9700-717fce45a92e"
          }
        ],
        "name": [
          {
            "prefix": [
              "dr"
            ],
            "given": [
              "Ex"
            ],
            "family": "Ample"
          }
        ],
        "address": [
          {
            "line": [
              "Laboratoire Central Européenne",
              "Boulevard du Jardin Botanique 32"
            ],
            "postalCode": "1000",
            "city": "Brussels",
            "country": "Belgium"
          }
        ],
        "text": {
          "status": "generated",
          "div": "<div xmlns=\"http://www.w3.org/1999/xhtml\">Laboratory: Laboratoire Central Européenne, 1000 Brussels, Belgium</div>"
        }
      }
    }
  ],
  "type": "document",
  "timestamp": "2016-06-14T05:15:20Z"
}
