{
  "resourceType": "Bundle",
  "id": "f9b1aa85-599c-4d7f-9a57-3c212c543c0f",
  "meta": {
    "profile": [
      "http://hl7.eu/fhir/laboratory/StructureDefinition/Bundle-eu-lab"
    ]
  },
  "identifier": {
    "assigner": {
      "display": "HL7 Europe"
    },
    "system": "urn:oid:2.16.840.1.113883.2.51.999",
    "value": "5a011b6b-fa6f-4278-822b-bfc44ef0659b"
  },
  "entry": [
    {
      "fullUrl": "urn:uuid:2f75ebcc-9f1e-47ee-b4a9-965e201c6386",
      "resource": {
        "resourceType": "Composition",
        "id": "2f75ebcc-9f1e-47ee-b4a9-965e201c6386",
        "meta": {
          "profile": [
            "http://hl7.eu/fhir/laboratory/StructureDefinition/Composition-eu-lab"
          ]
        },
        "identifier": {
          "assigner": {
            "display": "HL7 Europe"
          },
          "system": "urn:oid:2.16.840.1.113883.2.51.999",
          "value": "0b524684-b9ab-4c85-b49d-1566ab6fc7e8"
        },
        "author": [
          {
            "reference": "urn:uuid:59f2fc9d-d97b-44f3-9764-4ca447e37f53"
          }
        ],
        "category": [
          {
            "coding": [
              {
                "code": "26436-6",
                "system": "http://loinc.org",
                "display": "Laboratory studies (set)"
              }
            ]
          }
        ],
        "type": {
          "coding": [
            {
              "code": "11502-2",
              "system": "http://loinc.org",
              "display": "Laboratory report"
            }
          ],
          "text": "Laboratory Report"
        },
        "section": [
          {
            "code": {
              "coding": [
                {
                  "code": "26436-6",
                  "system": "http://loinc.org",
                  "display": "Laboratory studies (set)"
                }
              ],
              "text": "Laboratory studies"
            },
            "section": [
              {
                "code": {
                  "coding": [
                    {
                      "code": "$18719-5",
                      "system": "http://loinc.org",
                      "display": "Chemistry studies (set)"
                    }
                  ],
                  "text": "Chemistry"
                },
                "entry": [
                  {
                    "reference": "urn:uuid:49d94da8-55b1-4924-8ca1-7cc64146b94b"
                  },
                  {
                    "reference": "urn:uuid:b83591f5-8464-441b-beaf-e8dbe7f047e0"
                  },
                  {
                    "reference": "urn:uuid:e49cb1e5-1572-4717-9363-352585ab0c0a"
                  },
                  {
                    "reference": "urn:uuid:513fe3a5-027b-403f-bd2b-6e8f22468260"
                  },
                  {
                    "reference": "urn:uuid:0af6f368-e7bf-4115-9eea-2e3292ee1714"
                  },
                  {
                    "reference": "urn:uuid:321541eb-0bbb-4bf2-b689-86a46bb54be5"
                  },
                  {
                    "reference": "urn:uuid:82a4a166-6e36-4942-aa02-a629e63ea427"
                  },
                  {
                    "reference": "urn:uuid:1fcd4313-103b-40da-b3c4-9682df502ffd"
                  },
                  {
                    "reference": "urn:uuid:07d262d2-4ece-44b6-9902-d44f0e727701"
                  }
                ],
                "text": {
                  "status": "generated",
                  "div": "<div xmlns=\"http://www.w3.org/1999/xhtml\"><h3>Chemistry</h3><table class=\"hl7__eu__lab__report\"><thead><tr><th>Test</th><th>15-OCT-2017</th><th>Reference&#xA0;Range</th><th>Unit</th></tr></thead><tbody><tr><td>Hemoglobin A1c/Hemoglobin.total in Blood</td><td>5.9</td><td>4.5 - 6.4</td><td>%</td></tr><tr><td>Glucose [Mass/volume] in Blood</td><td>78.6</td><td>70 - 140</td><td>mg/dL</td></tr><tr><td>Urea nitrogen [Mass/volume] in Blood</td><td>17.3</td><td>7 - 25</td><td>mg/dL</td></tr><tr><td>Creatinine [Mass/volume] in Blood</td><td>0.6</td><td>0.6 - 1.1</td><td>mg/dL</td></tr><tr><td>Calcium [Mass/volume] in Blood</td><td>10.0</td><td>8.6 - 10.4</td><td>mg/dL</td></tr><tr><td>Sodium [Moles/volume] in Blood</td><td>136.1</td><td>135 - 145</td><td>mmol/L</td></tr><tr><td>Potassium [Moles/volume] in Blood</td><td>4.3</td><td>3.5 - 5.3</td><td>mmol/L</td></tr><tr><td>Chloride [Moles/volume] in Blood</td><td>108.0</td><td>98 - 108</td><td>mmol/L</td></tr><tr><td>Carbon dioxide, total [Moles/volume] in Blood</td><td>23.0</td><td>22 - 32</td><td>mmol/L</td></tr></tbody></table></div>"
                },
                "title": "Chemistry"
              }
            ],
            "title": "Laboratory Report"
          },
          {
            "text": {
              "status": "generated",
              "div": "<div xmlns=\"http://www.w3.org/1999/xhtml\"><h3>Annotation</h3><table class=\"hl7__eu__lab__report\"><tr><th>Conclusion and Recommendations based on this report and previous findings known to us</th></tr><tr><td>All measured laboratory values are within normal limits for this patient&quot;s age and sex. There is no evidence of acute or chronic metabolic, renal, or electrolyte disturbances. Glycemic control appears adequate. No laboratory abnormalities detected at this time. Recommend continued routine monitoring as clinically indicated.</td></tr></table></div>"
            },
            "code": {
              "coding": [
                {
                  "system": "http://loinc.org",
                  "code": "48767-8",
                  "display": "Annotation comment"
                }
              ]
            },
            "title": "Annotation comment"
          }
        ],
        "status": "final",
        "subject": {
          "reference": "urn:uuid:6ca27390-971e-4562-a6e8-8d797b8d5740",
          "display": "Helene Andresen"
        },
        "date": "2017-10-15T00:53:36Z",
        "title": "Laboratory Report",
        "confidentiality": "N"
      }
    },
    {
      "fullUrl": "urn:uuid:0d9c7c30-3d31-483e-bc2a-f3b4912c0325",
      "resource": {
        "resourceType": "DiagnosticReport",
        "id": "0d9c7c30-3d31-483e-bc2a-f3b4912c0325",
        "meta": {
          "profile": [
            "http://hl7.eu/fhir/laboratory/StructureDefinition/DiagnosticReport-eu-lab"
          ]
        },
        "identifier": [
          {
            "assigner": {
              "display": "HL7 Europe"
            },
            "system": "urn:oid:2.16.840.1.113883.2.51.999",
            "value": "19c510da-40c1-44f0-ae03-e11b49ea68a7"
          }
        ],
        "extension": [
          {
            "url": "http://hl7.org/fhir/5.0/StructureDefinition/extension-DiagnosticReport.composition",
            "valueReference": {
              "reference": "urn:uuid:0b524684-b9ab-4c85-b49d-1566ab6fc7e8"
            }
          }
        ],
        "category": [
          {
            "coding": [
              {
                "code": "26436-6",
                "system": "http://loinc.org",
                "display": "Laboratory studies (set)"
              }
            ]
          }
        ],
        "specimen": [
          {
            "reference": "urn:uuid:9d15383c-6f70-422e-bf0c-b1a8f88d1e70"
          }
        ],
        "result": [
          {
            "reference": "urn:uuid:49d94da8-55b1-4924-8ca1-7cc64146b94b"
          },
          {
            "reference": "urn:uuid:b83591f5-8464-441b-beaf-e8dbe7f047e0"
          },
          {
            "reference": "urn:uuid:e49cb1e5-1572-4717-9363-352585ab0c0a"
          },
          {
            "reference": "urn:uuid:513fe3a5-027b-403f-bd2b-6e8f22468260"
          },
          {
            "reference": "urn:uuid:0af6f368-e7bf-4115-9eea-2e3292ee1714"
          },
          {
            "reference": "urn:uuid:321541eb-0bbb-4bf2-b689-86a46bb54be5"
          },
          {
            "reference": "urn:uuid:82a4a166-6e36-4942-aa02-a629e63ea427"
          },
          {
            "reference": "urn:uuid:1fcd4313-103b-40da-b3c4-9682df502ffd"
          },
          {
            "reference": "urn:uuid:07d262d2-4ece-44b6-9902-d44f0e727701"
          }
        ],
        "status": "registered",
        "code": {
          "coding": [
            {
              "code": "11502-2",
              "system": "http://loinc.org",
              "display": "Laboratory report"
            }
          ]
        },
        "subject": {
          "reference": "urn:uuid:6ca27390-971e-4562-a6e8-8d797b8d5740",
          "display": "Helene Andresen"
        }
      }
    },
    {
      "fullUrl": "urn:uuid:6ca27390-971e-4562-a6e8-8d797b8d5740",
      "resource": {
        "resourceType": "Patient",
        "id": "6ca27390-971e-4562-a6e8-8d797b8d5740",
        "meta": {
          "security": [
            {
              "system": "http://terminology.hl7.org/CodeSystem/v3-ActReason",
              "code": "HTEST"
            },
            {
              "system": "http://terminology.hl7.org/CodeSystem/v3-ActReason",
              "code": "TRAIN"
            }
          ],
          "tag": [
            {
              "system": "https://synderai.net/fhir/CodeSystem/tags",
              "code": "synthetic",
              "display": "SYNDERAI Synthetic data"
            }
          ],
          "profile": [
            "http://hl7.eu/fhir/base/StructureDefinition/patient-eu-core"
          ]
        },
        "identifier": [
          {
            "type": {
              "coding": [
                {
                  "code": "PT",
                  "system": "http://terminology.hl7.org/CodeSystem/v2-0203"
                }
              ]
            },
            "system": "http://ec.europa.eu/identifier/eci",
            "value": "3450-170343-2"
          },
          {
            "type": {
              "coding": [
                {
                  "code": "MR",
                  "system": "http://terminology.hl7.org/CodeSystem/v2-0203"
                }
              ]
            },
            "system": "http://local.setting.eu/identifier",
            "value": "72e91c9c-0b01-42b0-a6a0-6dcc70aeec49"
          }
        ],
        "name": [
          {
            "family": "Andresen"
          },
          {
            "given": [
              "Helene"
            ]
          },
          {
            "text": "Helene Andresen"
          }
        ],
        "address": [
          {
            "line": [
              "Kristiansenberget 2"
            ],
            "use": "home",
            "type": "physical",
            "postalCode": "0172",
            "city": "Sørensen",
            "country": "Norway"
          }
        ],
        "telecom": [
          {
            "system": "phone",
            "value": "53 98 86 24"
          }
        ],
        "extension": [
          {
            "url": "http://hl7.org/fhir/StructureDefinition/patient-nationality",
            "valueCodeableConcept": {
              "coding": [
                {
                  "code": "NO",
                  "system": "http://hl7.org/fhir/ValueSet/country"
                }
              ]
            }
          }
        ],
        "text": {
          "status": "generated",
          "div": "<div xmlns=\"http://www.w3.org/1999/xhtml\"><table class=\"hl7__ips\"><tr><td>Helene Andresen</td><td>female</td><td>17-Oct-1939</td></tr></table></div>"
        },
        "gender": "female",
        "birthDate": "1939-10-17"
      }
    },
    {
      "fullUrl": "urn:uuid:4a92ab6a-257d-4cd1-8d0d-32b3b186123c",
      "resource": {
        "resourceType": "ServiceRequest",
        "id": "4a92ab6a-257d-4cd1-8d0d-32b3b186123c",
        "meta": {
          "profile": [
            "http://hl7.eu/fhir/laboratory/StructureDefinition/ServiceRequest-eu-lab"
          ]
        },
        "identifier": [
          {
            "system": "http://example.org",
            "value": "62661529-d4fb-41eb-8120-420efadcee7c"
          }
        ],
        "specimen": [
          {
            "reference": "urn:uuid:9d15383c-6f70-422e-bf0c-b1a8f88d1e70"
          }
        ],
        "reasonCode": [
          {
            "coding": [
              {
                "code": "64859006",
                "system": "http://snomed.info/sct",
                "display": "Osteoporosis"
              }
            ]
          },
          {
            "coding": [
              {
                "code": "40055000",
                "system": "http://snomed.info/sct",
                "display": "Chronic sinusitis"
              }
            ]
          },
          {
            "coding": [
              {
                "code": "55822004",
                "system": "http://snomed.info/sct",
                "display": "Hyperlipidemia"
              }
            ]
          },
          {
            "coding": [
              {
                "code": "271737000",
                "system": "http://snomed.info/sct",
                "display": "Anemia"
              }
            ]
          },
          {
            "coding": [
              {
                "code": "15777000",
                "system": "http://snomed.info/sct",
                "display": "Prediabetes"
              }
            ]
          },
          {
            "coding": [
              {
                "code": "128613002",
                "system": "http://snomed.info/sct",
                "display": "Seizure disorder"
              }
            ]
          }
        ],
        "status": "active",
        "intent": "order",
        "code": {
          "coding": [
            {
              "code": "108252007",
              "system": "http://snomed.info/sct",
              "display": "Laboratory procedure"
            }
          ]
        },
        "subject": {
          "reference": "urn:uuid:6ca27390-971e-4562-a6e8-8d797b8d5740",
          "display": "Helene Andresen"
        },
        "requester": {
          "reference": "urn:uuid:3befd303-7d3a-4716-956c-86634c9185dd"
        }
      }
    },
    {
      "fullUrl": "urn:uuid:3befd303-7d3a-4716-956c-86634c9185dd",
      "resource": {
        "resourceType": "PractitionerRole",
        "id": "3befd303-7d3a-4716-956c-86634c9185dd",
        "meta": {
          "profile": [
            "http://hl7.eu/fhir/base/StructureDefinition/practitionerRole-eu"
          ]
        },
        "text": {
          "status": "generated",
          "div": "<div xmlns=\"http://www.w3.org/1999/xhtml\">Provider Role Id: 3befd303-7d3a-4716-956c-86634c9185dd</div>"
        },
        "organization": {
          "reference": "urn:uuid:006514a6-dccf-4362-b21d-18d1160c9a39"
        }
      }
    },
    {
      "fullUrl": "urn:uuid:006514a6-dccf-4362-b21d-18d1160c9a39",
      "resource": {
        "resourceType": "Organization",
        "id": "006514a6-dccf-4362-b21d-18d1160c9a39",
        "meta": {
          "profile": [
            "http://hl7.eu/fhir/base/StructureDefinition/organization-eu"
          ]
        },
        "identifier": [
          {
            "assigner": {
              "display": "HL7 Europe"
            },
            "system": "urn:oid:2.16.840.1.113883.2.51.999",
            "value": "1aacd824-e43f-4636-a48f-2645e8b893a7"
          }
        ],
        "address": [
          {
            "city": "Oslo",
            "postalCode": "0155",
            "country": "Norway"
          }
        ],
        "text": {
          "status": "generated",
          "div": "<div xmlns=\"http://www.w3.org/1999/xhtml\">Provider Organization: Oslo universitetssykehus (Ullevål)</div>"
        },
        "name": "Oslo universitetssykehus (Ullevål)"
      }
    },
    {
      "fullUrl": "urn:uuid:9d15383c-6f70-422e-bf0c-b1a8f88d1e70",
      "resource": {
        "resourceType": "Specimen",
        "id": "9d15383c-6f70-422e-bf0c-b1a8f88d1e70",
        "meta": {
          "profile": [
            "http://hl7.eu/fhir/laboratory/StructureDefinition/Specimen-eu-lab"
          ]
        },
        "collection": {
          "collectedDateTime": "2017-10-14"
        },
        "text": {
          "status": "generated",
          "div": "<div xmlns=\"http://www.w3.org/1999/xhtml\"><table class=\"hl7__eu__lab__report\"><tr><th>Specimen</th><th>Collection Date</th></tr><tr><td>Whole blood specimen (specimen)</td><td><span class=\"nb\">14-Oct-2017</span></td></tr></table></div>"
        },
        "type": {
          "coding": [
            {
              "code": "258580003",
              "system": "http://snomed.info/sct",
              "display": "Whole blood specimen (specimen)"
            }
          ]
        }
      }
    },
    {
      "fullUrl": "urn:uuid:49d94da8-55b1-4924-8ca1-7cc64146b94b",
      "resource": {
        "resourceType": "Observation",
        "id": "49d94da8-55b1-4924-8ca1-7cc64146b94b",
        "meta": {
          "profile": [
            "http://hl7.eu/fhir/laboratory/StructureDefinition/Observation-resultslab-eu-lab"
          ]
        },
        "performer": [
          {
            "display": "The Central European Lab"
          }
        ],
        "category": [
          {
            "coding": [
              {
                "system": "http://terminology.hl7.org/CodeSystem/observation-category",
                "code": "laboratory"
              }
            ]
          }
        ],
        "code": {
          "coding": [
            {
              "code": "4548-4",
              "system": "http://loinc.org",
              "display": "Hemoglobin A1c/Hemoglobin.total in Blood"
            }
          ],
          "text": "Hemoglobin A1c/Hemoglobin.total in Blood"
        },
        "valueQuantity": {
          "system": "http://unitsofmeasure.org",
          "value": 5.9,
          "unit": "%",
          "code": "%"
        },
        "referenceRange": [
          {
            "low": {
              "value": 4.5,
              "code": "%",
              "system": "http://unitsofmeasure.org"
            }
          },
          {
            "high": {
              "value": 6.4,
              "code": "%",
              "system": "http://unitsofmeasure.org"
            }
          }
        ],
        "text": {
          "status": "generated",
          "div": "<div xmlns=\"http://www.w3.org/1999/xhtml\"><table class=\"hl7__eu__lab__report\"><tr><th>Test</th><th>15-Oct-2017</th><th>Reference&#xA0;Range</th><th>Unit</th></tr><tr><td>Hemoglobin A1c/Hemoglobin.total in Blood</td><td>5.9</td><td>4.5 - 6.4</td><td></td><td>%</td></tr></table></div>"
        },
        "status": "final",
        "subject": {
          "reference": "urn:uuid:6ca27390-971e-4562-a6e8-8d797b8d5740",
          "display": "Helene Andresen"
        },
        "effectiveDateTime": "2017-10-14T22:53:36Z",
        "specimen": {
          "reference": "urn:uuid:9d15383c-6f70-422e-bf0c-b1a8f88d1e70"
        }
      }
    },
    {
      "fullUrl": "urn:uuid:b83591f5-8464-441b-beaf-e8dbe7f047e0",
      "resource": {
        "resourceType": "Observation",
        "id": "b83591f5-8464-441b-beaf-e8dbe7f047e0",
        "meta": {
          "profile": [
            "http://hl7.eu/fhir/laboratory/StructureDefinition/Observation-resultslab-eu-lab"
          ]
        },
        "performer": [
          {
            "display": "The Central European Lab"
          }
        ],
        "category": [
          {
            "coding": [
              {
                "system": "http://terminology.hl7.org/CodeSystem/observation-category",
                "code": "laboratory"
              }
            ]
          }
        ],
        "code": {
          "coding": [
            {
              "code": "2339-0",
              "system": "http://loinc.org",
              "display": "Glucose [Mass/volume] in Blood"
            }
          ],
          "text": "Glucose [Mass/volume] in Blood"
        },
        "valueQuantity": {
          "system": "http://unitsofmeasure.org",
          "value": 78.6,
          "unit": "mg/dL",
          "code": "mg/dL"
        },
        "referenceRange": [
          {
            "low": {
              "value": 70,
              "code": "mg/dL",
              "system": "http://unitsofmeasure.org"
            }
          },
          {
            "high": {
              "value": 140,
              "code": "mg/dL",
              "system": "http://unitsofmeasure.org"
            }
          }
        ],
        "text": {
          "status": "generated",
          "div": "<div xmlns=\"http://www.w3.org/1999/xhtml\"><table class=\"hl7__eu__lab__report\"><tr><th>Test</th><th>15-Oct-2017</th><th>Reference&#xA0;Range</th><th>Unit</th></tr><tr><td>Glucose [Mass/volume] in Blood</td><td>78.6</td><td>70 - 140</td><td></td><td>mg/dL</td></tr></table></div>"
        },
        "status": "final",
        "subject": {
          "reference": "urn:uuid:6ca27390-971e-4562-a6e8-8d797b8d5740",
          "display": "Helene Andresen"
        },
        "effectiveDateTime": "2017-10-14T22:53:36Z",
        "specimen": {
          "reference": "urn:uuid:9d15383c-6f70-422e-bf0c-b1a8f88d1e70"
        }
      }
    },
    {
      "fullUrl": "urn:uuid:e49cb1e5-1572-4717-9363-352585ab0c0a",
      "resource": {
        "resourceType": "Observation",
        "id": "e49cb1e5-1572-4717-9363-352585ab0c0a",
        "meta": {
          "profile": [
            "http://hl7.eu/fhir/laboratory/StructureDefinition/Observation-resultslab-eu-lab"
          ]
        },
        "performer": [
          {
            "display": "The Central European Lab"
          }
        ],
        "category": [
          {
            "coding": [
              {
                "system": "http://terminology.hl7.org/CodeSystem/observation-category",
                "code": "laboratory"
              }
            ]
          }
        ],
        "code": {
          "coding": [
            {
              "code": "6299-2",
              "system": "http://loinc.org",
              "display": "Urea nitrogen [Mass/volume] in Blood"
            }
          ],
          "text": "Urea nitrogen [Mass/volume] in Blood"
        },
        "valueQuantity": {
          "system": "http://unitsofmeasure.org",
          "value": 17.3,
          "unit": "mg/dL",
          "code": "mg/dL"
        },
        "referenceRange": [
          {
            "low": {
              "value": 7,
              "code": "mg/dL",
              "system": "http://unitsofmeasure.org"
            }
          },
          {
            "high": {
              "value": 25,
              "code": "mg/dL",
              "system": "http://unitsofmeasure.org"
            }
          }
        ],
        "text": {
          "status": "generated",
          "div": "<div xmlns=\"http://www.w3.org/1999/xhtml\"><table class=\"hl7__eu__lab__report\"><tr><th>Test</th><th>15-Oct-2017</th><th>Reference&#xA0;Range</th><th>Unit</th></tr><tr><td>Urea nitrogen [Mass/volume] in Blood</td><td>17.3</td><td>7 - 25</td><td></td><td>mg/dL</td></tr></table></div>"
        },
        "status": "final",
        "subject": {
          "reference": "urn:uuid:6ca27390-971e-4562-a6e8-8d797b8d5740",
          "display": "Helene Andresen"
        },
        "effectiveDateTime": "2017-10-14T22:53:36Z",
        "specimen": {
          "reference": "urn:uuid:9d15383c-6f70-422e-bf0c-b1a8f88d1e70"
        }
      }
    },
    {
      "fullUrl": "urn:uuid:513fe3a5-027b-403f-bd2b-6e8f22468260",
      "resource": {
        "resourceType": "Observation",
        "id": "513fe3a5-027b-403f-bd2b-6e8f22468260",
        "meta": {
          "profile": [
            "http://hl7.eu/fhir/laboratory/StructureDefinition/Observation-resultslab-eu-lab"
          ]
        },
        "performer": [
          {
            "display": "The Central European Lab"
          }
        ],
        "category": [
          {
            "coding": [
              {
                "system": "http://terminology.hl7.org/CodeSystem/observation-category",
                "code": "laboratory"
              }
            ]
          }
        ],
        "code": {
          "coding": [
            {
              "code": "38483-4",
              "system": "http://loinc.org",
              "display": "Creatinine [Mass/volume] in Blood"
            }
          ],
          "text": "Creatinine [Mass/volume] in Blood"
        },
        "valueQuantity": {
          "system": "http://unitsofmeasure.org",
          "value": 0.6,
          "unit": "mg/dL",
          "code": "mg/dL"
        },
        "referenceRange": [
          {
            "low": {
              "value": 0.6,
              "code": "mg/dL",
              "system": "http://unitsofmeasure.org"
            }
          },
          {
            "high": {
              "value": 1.1,
              "code": "mg/dL",
              "system": "http://unitsofmeasure.org"
            }
          }
        ],
        "text": {
          "status": "generated",
          "div": "<div xmlns=\"http://www.w3.org/1999/xhtml\"><table class=\"hl7__eu__lab__report\"><tr><th>Test</th><th>15-Oct-2017</th><th>Reference&#xA0;Range</th><th>Unit</th></tr><tr><td>Creatinine [Mass/volume] in Blood</td><td>0.6</td><td>0.6 - 1.1</td><td></td><td>mg/dL</td></tr></table></div>"
        },
        "status": "final",
        "subject": {
          "reference": "urn:uuid:6ca27390-971e-4562-a6e8-8d797b8d5740",
          "display": "Helene Andresen"
        },
        "effectiveDateTime": "2017-10-14T22:53:36Z",
        "specimen": {
          "reference": "urn:uuid:9d15383c-6f70-422e-bf0c-b1a8f88d1e70"
        }
      }
    },
    {
      "fullUrl": "urn:uuid:0af6f368-e7bf-4115-9eea-2e3292ee1714",
      "resource": {
        "resourceType": "Observation",
        "id": "0af6f368-e7bf-4115-9eea-2e3292ee1714",
        "meta": {
          "profile": [
            "http://hl7.eu/fhir/laboratory/StructureDefinition/Observation-resultslab-eu-lab"
          ]
        },
        "performer": [
          {
            "display": "The Central European Lab"
          }
        ],
        "category": [
          {
            "coding": [
              {
                "system": "http://terminology.hl7.org/CodeSystem/observation-category",
                "code": "laboratory"
              }
            ]
          }
        ],
        "code": {
          "coding": [
            {
              "code": "49765-1",
              "system": "http://loinc.org",
              "display": "Calcium [Mass/volume] in Blood"
            }
          ],
          "text": "Calcium [Mass/volume] in Blood"
        },
        "valueQuantity": {
          "system": "http://unitsofmeasure.org",
          "value": 10,
          "unit": "mg/dL",
          "code": "mg/dL"
        },
        "referenceRange": [
          {
            "low": {
              "value": 8.6,
              "code": "mg/dL",
              "system": "http://unitsofmeasure.org"
            }
          },
          {
            "high": {
              "value": 10.4,
              "code": "mg/dL",
              "system": "http://unitsofmeasure.org"
            }
          }
        ],
        "text": {
          "status": "generated",
          "div": "<div xmlns=\"http://www.w3.org/1999/xhtml\"><table class=\"hl7__eu__lab__report\"><tr><th>Test</th><th>15-Oct-2017</th><th>Reference&#xA0;Range</th><th>Unit</th></tr><tr><td>Calcium [Mass/volume] in Blood</td><td>10.0</td><td>8.6 - 10.4</td><td></td><td>mg/dL</td></tr></table></div>"
        },
        "status": "final",
        "subject": {
          "reference": "urn:uuid:6ca27390-971e-4562-a6e8-8d797b8d5740",
          "display": "Helene Andresen"
        },
        "effectiveDateTime": "2017-10-14T22:53:36Z",
        "specimen": {
          "reference": "urn:uuid:9d15383c-6f70-422e-bf0c-b1a8f88d1e70"
        }
      }
    },
    {
      "fullUrl": "urn:uuid:321541eb-0bbb-4bf2-b689-86a46bb54be5",
      "resource": {
        "resourceType": "Observation",
        "id": "321541eb-0bbb-4bf2-b689-86a46bb54be5",
        "meta": {
          "profile": [
            "http://hl7.eu/fhir/laboratory/StructureDefinition/Observation-resultslab-eu-lab"
          ]
        },
        "performer": [
          {
            "display": "The Central European Lab"
          }
        ],
        "category": [
          {
            "coding": [
              {
                "system": "http://terminology.hl7.org/CodeSystem/observation-category",
                "code": "laboratory"
              }
            ]
          }
        ],
        "code": {
          "coding": [
            {
              "code": "2947-0",
              "system": "http://loinc.org",
              "display": "Sodium [Moles/volume] in Blood"
            }
          ],
          "text": "Sodium [Moles/volume] in Blood"
        },
        "valueQuantity": {
          "system": "http://unitsofmeasure.org",
          "value": 136.1,
          "unit": "mmol/L",
          "code": "mmol/L"
        },
        "referenceRange": [
          {
            "low": {
              "value": 135,
              "code": "mmol/L",
              "system": "http://unitsofmeasure.org"
            }
          },
          {
            "high": {
              "value": 145,
              "code": "mmol/L",
              "system": "http://unitsofmeasure.org"
            }
          }
        ],
        "text": {
          "status": "generated",
          "div": "<div xmlns=\"http://www.w3.org/1999/xhtml\"><table class=\"hl7__eu__lab__report\"><tr><th>Test</th><th>15-Oct-2017</th><th>Reference&#xA0;Range</th><th>Unit</th></tr><tr><td>Sodium [Moles/volume] in Blood</td><td>136.1</td><td>135 - 145</td><td></td><td>mmol/L</td></tr></table></div>"
        },
        "status": "final",
        "subject": {
          "reference": "urn:uuid:6ca27390-971e-4562-a6e8-8d797b8d5740",
          "display": "Helene Andresen"
        },
        "effectiveDateTime": "2017-10-14T22:53:36Z",
        "specimen": {
          "reference": "urn:uuid:9d15383c-6f70-422e-bf0c-b1a8f88d1e70"
        }
      }
    },
    {
      "fullUrl": "urn:uuid:82a4a166-6e36-4942-aa02-a629e63ea427",
      "resource": {
        "resourceType": "Observation",
        "id": "82a4a166-6e36-4942-aa02-a629e63ea427",
        "meta": {
          "profile": [
            "http://hl7.eu/fhir/laboratory/StructureDefinition/Observation-resultslab-eu-lab"
          ]
        },
        "performer": [
          {
            "display": "The Central European Lab"
          }
        ],
        "category": [
          {
            "coding": [
              {
                "system": "http://terminology.hl7.org/CodeSystem/observation-category",
                "code": "laboratory"
              }
            ]
          }
        ],
        "code": {
          "coding": [
            {
              "code": "6298-4",
              "system": "http://loinc.org",
              "display": "Potassium [Moles/volume] in Blood"
            }
          ],
          "text": "Potassium [Moles/volume] in Blood"
        },
        "valueQuantity": {
          "system": "http://unitsofmeasure.org",
          "value": 4.3,
          "unit": "mmol/L",
          "code": "mmol/L"
        },
        "referenceRange": [
          {
            "low": {
              "value": 3.5,
              "code": "mmol/L",
              "system": "http://unitsofmeasure.org"
            }
          },
          {
            "high": {
              "value": 5.3,
              "code": "mmol/L",
              "system": "http://unitsofmeasure.org"
            }
          }
        ],
        "text": {
          "status": "generated",
          "div": "<div xmlns=\"http://www.w3.org/1999/xhtml\"><table class=\"hl7__eu__lab__report\"><tr><th>Test</th><th>15-Oct-2017</th><th>Reference&#xA0;Range</th><th>Unit</th></tr><tr><td>Potassium [Moles/volume] in Blood</td><td>4.3</td><td>3.5 - 5.3</td><td></td><td>mmol/L</td></tr></table></div>"
        },
        "status": "final",
        "subject": {
          "reference": "urn:uuid:6ca27390-971e-4562-a6e8-8d797b8d5740",
          "display": "Helene Andresen"
        },
        "effectiveDateTime": "2017-10-14T22:53:36Z",
        "specimen": {
          "reference": "urn:uuid:9d15383c-6f70-422e-bf0c-b1a8f88d1e70"
        }
      }
    },
    {
      "fullUrl": "urn:uuid:1fcd4313-103b-40da-b3c4-9682df502ffd",
      "resource": {
        "resourceType": "Observation",
        "id": "1fcd4313-103b-40da-b3c4-9682df502ffd",
        "meta": {
          "profile": [
            "http://hl7.eu/fhir/laboratory/StructureDefinition/Observation-resultslab-eu-lab"
          ]
        },
        "performer": [
          {
            "display": "The Central European Lab"
          }
        ],
        "category": [
          {
            "coding": [
              {
                "system": "http://terminology.hl7.org/CodeSystem/observation-category",
                "code": "laboratory"
              }
            ]
          }
        ],
        "code": {
          "coding": [
            {
              "code": "2069-3",
              "system": "http://loinc.org",
              "display": "Chloride [Moles/volume] in Blood"
            }
          ],
          "text": "Chloride [Moles/volume] in Blood"
        },
        "valueQuantity": {
          "system": "http://unitsofmeasure.org",
          "value": 108,
          "unit": "mmol/L",
          "code": "mmol/L"
        },
        "referenceRange": [
          {
            "low": {
              "value": 98,
              "code": "mmol/L",
              "system": "http://unitsofmeasure.org"
            }
          },
          {
            "high": {
              "value": 108,
              "code": "mmol/L",
              "system": "http://unitsofmeasure.org"
            }
          }
        ],
        "text": {
          "status": "generated",
          "div": "<div xmlns=\"http://www.w3.org/1999/xhtml\"><table class=\"hl7__eu__lab__report\"><tr><th>Test</th><th>15-Oct-2017</th><th>Reference&#xA0;Range</th><th>Unit</th></tr><tr><td>Chloride [Moles/volume] in Blood</td><td>108.0</td><td>98 - 108</td><td></td><td>mmol/L</td></tr></table></div>"
        },
        "status": "final",
        "subject": {
          "reference": "urn:uuid:6ca27390-971e-4562-a6e8-8d797b8d5740",
          "display": "Helene Andresen"
        },
        "effectiveDateTime": "2017-10-14T22:53:36Z",
        "specimen": {
          "reference": "urn:uuid:9d15383c-6f70-422e-bf0c-b1a8f88d1e70"
        }
      }
    },
    {
      "fullUrl": "urn:uuid:07d262d2-4ece-44b6-9902-d44f0e727701",
      "resource": {
        "resourceType": "Observation",
        "id": "07d262d2-4ece-44b6-9902-d44f0e727701",
        "meta": {
          "profile": [
            "http://hl7.eu/fhir/laboratory/StructureDefinition/Observation-resultslab-eu-lab"
          ]
        },
        "performer": [
          {
            "display": "The Central European Lab"
          }
        ],
        "category": [
          {
            "coding": [
              {
                "system": "http://terminology.hl7.org/CodeSystem/observation-category",
                "code": "laboratory"
              }
            ]
          }
        ],
        "code": {
          "coding": [
            {
              "code": "20565-8",
              "system": "http://loinc.org",
              "display": "Carbon dioxide, total [Moles/volume] in Blood"
            }
          ],
          "text": "Carbon dioxide, total [Moles/volume] in Blood"
        },
        "valueQuantity": {
          "system": "http://unitsofmeasure.org",
          "value": 23,
          "unit": "mmol/L",
          "code": "mmol/L"
        },
        "referenceRange": [
          {
            "low": {
              "value": 22,
              "code": "mmol/L",
              "system": "http://unitsofmeasure.org"
            }
          },
          {
            "high": {
              "value": 32,
              "code": "mmol/L",
              "system": "http://unitsofmeasure.org"
            }
          }
        ],
        "text": {
          "status": "generated",
          "div": "<div xmlns=\"http://www.w3.org/1999/xhtml\"><table class=\"hl7__eu__lab__report\"><tr><th>Test</th><th>15-Oct-2017</th><th>Reference&#xA0;Range</th><th>Unit</th></tr><tr><td>Carbon dioxide, total [Moles/volume] in Blood</td><td>23.0</td><td>22 - 32</td><td></td><td>mmol/L</td></tr></table></div>"
        },
        "status": "final",
        "subject": {
          "reference": "urn:uuid:6ca27390-971e-4562-a6e8-8d797b8d5740",
          "display": "Helene Andresen"
        },
        "effectiveDateTime": "2017-10-14T22:53:36Z",
        "specimen": {
          "reference": "urn:uuid:9d15383c-6f70-422e-bf0c-b1a8f88d1e70"
        }
      }
    },
    {
      "fullUrl": "urn:uuid:3884759e-1f7f-43b3-ae0e-36820995b41a",
      "resource": {
        "resourceType": "Device",
        "id": "3884759e-1f7f-43b3-ae0e-36820995b41a",
        "deviceName": [
          {
            "name": "SYNDERAI Synthetic Generator",
            "type": "manufacturer-name"
          }
        ],
        "version": [
          {
            "value": "5.0"
          }
        ],
        "text": {
          "status": "generated",
          "div": "<div xmlns=\"http://www.w3.org/1999/xhtml\">SYNDERAI Synthetic Generator v5.0</div>"
        },
        "status": "active\"",
        "distinctIdentifier": "synderai-generator-50",
        "manufacturer": "SYNDERAI Project"
      }
    },
    {
      "fullUrl": "urn:uuid:96ac23f3-f45a-4e6d-9a5f-9ceee5615803",
      "resource": {
        "resourceType": "Provenance",
        "id": "96ac23f3-f45a-4e6d-9a5f-9ceee5615803",
        "target": [
          {
            "reference": "Patient/6ca27390-971e-4562-a6e8-8d797b8d5740"
          },
          {
            "reference": "Bundle/f9b1aa85-599c-4d7f-9a57-3c212c543c0f"
          },
          {
            "reference": "Composition/2f75ebcc-9f1e-47ee-b4a9-965e201c6386"
          },
          {
            "reference": "PractitionerRole/59f2fc9d-d97b-44f3-9764-4ca447e37f53"
          },
          {
            "reference": "Practitioner/a36e9f94-3e19-40b3-bfbe-06e561bb5a49"
          },
          {
            "reference": "PractitionerRole/3befd303-7d3a-4716-956c-86634c9185dd"
          },
          {
            "reference": "Organization/006514a6-dccf-4362-b21d-18d1160c9a39"
          }
        ],
        "activity": {
          "text": "Synthetic Example Data Generation"
        },
        "policy": [
          "https://synderai.net/synderai-synthetic-data-policy"
        ],
        "agent": [
          {
            "type": {
              "text": "author"
            },
            "who": {
              "reference": "Device/3884759e-1f7f-43b3-ae0e-36820995b41a"
            }
          }
        ],
        "reason": [
          {
            "text": "Interoperability Testing and Training (non-clinical use)"
          }
        ],
        "text": {
          "status": "generated",
          "div": "<div xmlns=\"http://www.w3.org/1999/xhtml\">Provenance for SYNDERAI Synthetic Example Data Resource</div>"
        },
        "recorded": "2017-10-15T00:53:36Z"
      }
    },
    {
      "fullUrl": "urn:uuid:59f2fc9d-d97b-44f3-9764-4ca447e37f53",
      "resource": {
        "resourceType": "PractitionerRole",
        "id": "59f2fc9d-d97b-44f3-9764-4ca447e37f53",
        "meta": {
          "profile": [
            "http://hl7.eu/fhir/base/StructureDefinition/practitionerRole-eu"
          ]
        },
        "text": {
          "status": "generated",
          "div": "<div xmlns=\"http://www.w3.org/1999/xhtml\">Laboratory Role Id: 59f2fc9d-d97b-44f3-9764-4ca447e37f53</div>"
        },
        "practitioner": {
          "reference": "urn:uuid:a36e9f94-3e19-40b3-bfbe-06e561bb5a49"
        }
      }
    },
    {
      "fullUrl": "urn:uuid:a36e9f94-3e19-40b3-bfbe-06e561bb5a49",
      "resource": {
        "resourceType": "Practitioner",
        "id": "a36e9f94-3e19-40b3-bfbe-06e561bb5a49",
        "meta": {
          "profile": [
            "http://hl7.eu/fhir/base/StructureDefinition/practitioner-eu"
          ]
        },
        "identifier": [
          {
            "assigner": {
              "display": "HL7 Europe"
            },
            "system": "urn:oid:2.16.840.1.113883.2.51.999",
            "value": "281c4ce7-d329-4eee-8486-5c35a28bf6c8"
          }
        ],
        "name": [
          {
            "prefix": [
              "dr"
            ],
            "given": [
              "Ex"
            ],
            "family": "Ample"
          }
        ],
        "address": [
          {
            "line": [
              "Laboratoire Central Européenne",
              "Boulevard du Jardin Botanique 32"
            ],
            "postalCode": "1000",
            "city": "Brussels",
            "country": "Belgium"
          }
        ],
        "text": {
          "status": "generated",
          "div": "<div xmlns=\"http://www.w3.org/1999/xhtml\">Laboratory: Laboratoire Central Européenne, 1000 Brussels, Belgium</div>"
        }
      }
    }
  ],
  "type": "document",
  "timestamp": "2017-10-15T00:53:36Z"
}
