{
  "resourceType": "Bundle",
  "id": "461817ba-d6d4-4016-9bb2-6a0c0c8dfc1a",
  "meta": {
    "profile": [
      "http://hl7.eu/fhir/laboratory/StructureDefinition/Bundle-eu-lab"
    ]
  },
  "identifier": {
    "assigner": {
      "display": "HL7 Europe"
    },
    "system": "urn:oid:2.16.840.1.113883.2.51.999",
    "value": "a4058b96-2188-4c5f-b5ac-deafcb656c43"
  },
  "entry": [
    {
      "fullUrl": "urn:uuid:647d5486-4372-4bc1-965f-c81263d01d0e",
      "resource": {
        "resourceType": "Composition",
        "id": "647d5486-4372-4bc1-965f-c81263d01d0e",
        "meta": {
          "profile": [
            "http://hl7.eu/fhir/laboratory/StructureDefinition/Composition-eu-lab"
          ]
        },
        "identifier": {
          "assigner": {
            "display": "HL7 Europe"
          },
          "system": "urn:oid:2.16.840.1.113883.2.51.999",
          "value": "f4c7cdb5-f130-4c6d-8284-f3a60c02b68b"
        },
        "author": [
          {
            "reference": "urn:uuid:8fc5ad63-5f09-4d7d-a179-060d641f2b3a"
          }
        ],
        "category": [
          {
            "coding": [
              {
                "code": "26436-6",
                "system": "http://loinc.org",
                "display": "Laboratory studies (set)"
              }
            ]
          }
        ],
        "type": {
          "coding": [
            {
              "code": "11502-2",
              "system": "http://loinc.org",
              "display": "Laboratory report"
            }
          ],
          "text": "Laboratory Report"
        },
        "section": [
          {
            "code": {
              "coding": [
                {
                  "code": "26436-6",
                  "system": "http://loinc.org",
                  "display": "Laboratory studies (set)"
                }
              ],
              "text": "Laboratory studies"
            },
            "section": [
              {
                "code": {
                  "coding": [
                    {
                      "code": "$18719-5",
                      "system": "http://loinc.org",
                      "display": "Chemistry studies (set)"
                    }
                  ],
                  "text": "Chemistry"
                },
                "entry": [
                  {
                    "reference": "urn:uuid:c3a6284f-8bde-404a-9453-537030390a32"
                  },
                  {
                    "reference": "urn:uuid:7c1b2338-938b-423b-9d1e-4c3a9647234a"
                  },
                  {
                    "reference": "urn:uuid:22eaeb33-6597-4450-8dff-12ac0a4f04f8"
                  },
                  {
                    "reference": "urn:uuid:d6399ab2-8fd1-45ad-a9ce-e37ed7a84a61"
                  },
                  {
                    "reference": "urn:uuid:9dc24b38-75df-44fa-9575-e69e057b3640"
                  },
                  {
                    "reference": "urn:uuid:176552b8-a31e-4ac4-84a9-c01b3e4ef851"
                  },
                  {
                    "reference": "urn:uuid:a8e9be11-5619-4feb-8188-825321e170f7"
                  },
                  {
                    "reference": "urn:uuid:8b8e79e3-7b3c-4603-9733-ed3fd5a28d90"
                  },
                  {
                    "reference": "urn:uuid:551b9118-c722-4ca1-ac41-6799849b3162"
                  },
                  {
                    "reference": "urn:uuid:316d1c25-9ce8-47b9-a447-cad211e48c04"
                  },
                  {
                    "reference": "urn:uuid:6907296f-2f43-4188-812b-66fed63e9d41"
                  },
                  {
                    "reference": "urn:uuid:c5da98dd-3804-48b7-abb6-e4f4aafbc47d"
                  },
                  {
                    "reference": "urn:uuid:70b30656-c0dc-415e-9af4-d8868c022a1d"
                  },
                  {
                    "reference": "urn:uuid:7fda80fe-8fa9-425b-8eed-05d0341d8d0b"
                  },
                  {
                    "reference": "urn:uuid:74562f7d-c87e-4fda-a58e-1f922788a320"
                  },
                  {
                    "reference": "urn:uuid:8f8ea56e-b3e6-4a36-9968-7da68fd20af6"
                  },
                  {
                    "reference": "urn:uuid:95102e63-1833-4602-99ba-62e34ed98f0b"
                  },
                  {
                    "reference": "urn:uuid:69beaf52-8971-4a43-a606-4467591f18c9"
                  }
                ],
                "text": {
                  "status": "generated",
                  "div": "<div xmlns=\"http://www.w3.org/1999/xhtml\"><h3>Chemistry</h3><table class=\"hl7__eu__lab__report\"><thead><tr><th>Test</th><th>17-SEP-2024</th><th>Reference&#xA0;Range</th><th>Unit</th></tr></thead><tbody><tr><td>Glucose [Mass/volume] in Serum or Plasma</td><td>71.5</td><td>70 - 99</td><td>mg/dL</td></tr><tr><td>Urea nitrogen [Mass/volume] in Serum or Plasma</td><td>16.6</td><td>7 - 50</td><td>mg/dL</td></tr><tr><td>Creatinine [Mass/volume] in Serum or Plasma</td><td><strong>2.1 H</strong></td><td>0.6 - 1.1</td><td>mg/dL</td></tr><tr><td>Calcium [Mass/volume] in Serum or Plasma</td><td>8.7</td><td>8.6 - 10.4</td><td>mg/dL</td></tr><tr><td>Sodium [Moles/volume] in Serum or Plasma</td><td>137.0</td><td>135 - 145</td><td>mmol/L</td></tr><tr><td>Potassium [Moles/volume] in Serum or Plasma</td><td>4.7</td><td>3.5 - 5.1</td><td>mmol/L</td></tr><tr><td>Chloride [Moles/volume] in Serum or Plasma</td><td><strong>110.0 H</strong></td><td>98 - 108</td><td>mmol/L</td></tr><tr><td>Carbon dioxide, total [Moles/volume] in Serum or Plasma</td><td>24.6</td><td>22 - 32</td><td>mmol/L</td></tr><tr><td>Ketones [Presence] in Urine by Test strip</td><td>Urine ketone test = ++</td><td></td><td></td></tr><tr><td>Hemoglobin A1c/Hemoglobin.total in Blood</td><td>4.0</td><td>4 - 6.4</td><td>%</td></tr><tr><td>Glucose [Mass/volume] in Blood</td><td>71.5</td><td>70 - 100</td><td>mg/dL</td></tr><tr><td>Urea nitrogen [Mass/volume] in Blood</td><td>16.6</td><td>7 - 43</td><td>mg/dL</td></tr><tr><td>Creatinine [Mass/volume] in Blood</td><td><strong>3.0 H</strong></td><td>0.6 - 1.1</td><td>mg/dL</td></tr><tr><td>Calcium [Mass/volume] in Blood</td><td>8.7</td><td>8.5 - 10.5</td><td>mg/dL</td></tr><tr><td>Sodium [Moles/volume] in Blood</td><td>137.0</td><td>135 - 145</td><td>mmol/L</td></tr><tr><td>Potassium [Moles/volume] in Blood</td><td>4.7</td><td>3.5 - 5.1</td><td>mmol/L</td></tr><tr><td>Chloride [Moles/volume] in Blood</td><td><strong>110.0 H</strong></td><td>98 - 108</td><td>mmol/L</td></tr><tr><td>Carbon dioxide, total [Moles/volume] in Blood</td><td>24.6</td><td>22 - 29</td><td>mmol/L</td></tr></tbody></table></div>"
                },
                "title": "Chemistry"
              },
              {
                "code": {
                  "coding": [
                    {
                      "code": "$18729-4",
                      "system": "http://loinc.org",
                      "display": "Urinalysis studies (set)"
                    }
                  ],
                  "text": "Urinalysis"
                },
                "entry": [
                  {
                    "reference": "urn:uuid:e84814d7-5399-45a3-a08d-8598cfc6737f"
                  },
                  {
                    "reference": "urn:uuid:ca6696e9-a799-4e40-b8d7-76b137c3e758"
                  },
                  {
                    "reference": "urn:uuid:8394dd10-90b4-4f6c-ba75-1fa987b42b47"
                  },
                  {
                    "reference": "urn:uuid:f359d480-2abb-4095-8e48-74940c26151b"
                  },
                  {
                    "reference": "urn:uuid:d34a5112-bb34-4aeb-ad39-fd8adc41230b"
                  },
                  {
                    "reference": "urn:uuid:1d802618-6f56-4276-84d3-bd44b5a7a817"
                  },
                  {
                    "reference": "urn:uuid:6b2a9ebd-26b2-41fd-9862-501b3dc18de1"
                  },
                  {
                    "reference": "urn:uuid:d8108055-8653-4e5f-93ab-9b8ca059d62b"
                  },
                  {
                    "reference": "urn:uuid:687f68df-e623-4bf3-82a2-1e08e1810896"
                  },
                  {
                    "reference": "urn:uuid:156395dd-9c6a-48c2-8dfb-a0ec036c6ef4"
                  },
                  {
                    "reference": "urn:uuid:30ce30a7-3f58-435d-a6e8-732bfe717829"
                  },
                  {
                    "reference": "urn:uuid:91cdd058-57cd-4025-bff4-cd258ba2afb2"
                  }
                ],
                "text": {
                  "status": "generated",
                  "div": "<div xmlns=\"http://www.w3.org/1999/xhtml\"><h3>Urinalysis</h3><table class=\"hl7__eu__lab__report\"><thead><tr><th>Test</th><th>17-SEP-2024</th><th>Reference&#xA0;Range</th><th>Unit</th></tr></thead><tbody><tr><td>Glucose [Mass/volume] in Urine by Test strip</td><td><strong>0.8 H</strong></td><td>0.8 - 0</td><td>mg/dL</td></tr><tr><td>Glucose [Presence] in Urine by Test strip</td><td>++</td><td></td><td></td></tr><tr><td>Bilirubin.total [Mass/volume] in Urine by Test strip</td><td>0.3</td><td>0 - 1</td><td>mg/dL</td></tr><tr><td>Bilirubin.total [Presence] in Urine by Test strip</td><td>Finding of bilirubin in urine</td><td></td><td></td></tr><tr><td>Ketones [Mass/volume] in Urine by Test strip</td><td><strong>5.9 H</strong></td><td>0 - 4</td><td>mg/dL</td></tr><tr><td>Specific gravity of Urine by Test strip</td><td><strong>1.0 L</strong></td><td>1.005 - 1.03</td><td>{nominal}</td></tr><tr><td>pH of Urine by Test strip</td><td>5.2</td><td>4.6 - 7</td><td>pH</td></tr><tr><td>Protein [Mass/volume] in Urine by Test strip</td><td><strong>339.2 H</strong></td><td>0 - 14</td><td>mg/dL</td></tr><tr><td>Protein [Presence] in Urine by Test strip</td><td>Urine protein test = ++</td><td></td><td></td></tr><tr><td>Nitrite [Presence] in Urine by Test strip</td><td>Urine nitrite negative</td><td></td><td></td></tr><tr><td>Hemoglobin [Presence] in Urine by Test strip</td><td>Urine blood test = negative</td><td></td><td></td></tr><tr><td>Leukocyte esterase [Presence] in Urine by Test strip</td><td>Urine leukocyte test negative</td><td></td><td></td></tr></tbody></table></div>"
                },
                "title": "Urinalysis"
              },
              {
                "code": {
                  "coding": [
                    {
                      "code": "$LP7846-1",
                      "system": "http://loinc.org",
                      "display": "Specimen information"
                    }
                  ],
                  "text": "Specimen information"
                },
                "entry": [
                  {
                    "reference": "urn:uuid:996e2e55-75d9-4103-94c7-7310c6f98ffd"
                  },
                  {
                    "reference": "urn:uuid:56ae533f-7ce7-4be5-9de2-89ca14b4cf46"
                  },
                  {
                    "reference": "urn:uuid:af4ac146-a4c9-41e6-b1d9-1e0695b6329b"
                  },
                  {
                    "reference": "urn:uuid:c5d63e0d-2844-4e7c-90a4-a60cec5778b9"
                  }
                ],
                "text": {
                  "status": "generated",
                  "div": "<div xmlns=\"http://www.w3.org/1999/xhtml\"><h3>Specimen information</h3><table class=\"hl7__eu__lab__report\"><thead><tr><th>Test</th><th>17-SEP-2024</th><th>Specimen</th><th></th></tr></thead><tbody><tr><td>Appearance of Urine</td><td>Cloudy urine</td><td>Urine</td><td></td></tr><tr><td>Odor of Urine</td><td>Urine smell ammoniacal</td><td>Urine</td><td></td></tr><tr><td>Clarity of Urine</td><td>Translucent</td><td>Urine</td><td></td></tr><tr><td>Color of Urine</td><td>Brown color</td><td>Urine</td><td></td></tr></tbody></table></div>"
                },
                "title": "Specimen information"
              }
            ],
            "title": "Laboratory Report"
          },
          {
            "text": {
              "status": "generated",
              "div": "<div xmlns=\"http://www.w3.org/1999/xhtml\"><h3>Annotation</h3><table class=\"hl7__eu__lab__report\"><tr><th>Conclusion and Recommendations based on this report and previous findings known to us</th></tr><tr><td>The patient shows markedly elevated creatinine, proteinuria, glucosuria, ketonuria, and low urine specific gravity, suggesting significant renal dysfunction, possibly acute or chronic kidney disease with impaired concentrating ability. Urine findings (cloudy, brown, ammoniacal) may indicate underlying infection or tubular injury, though no leukocytes or nitrites are detected. Blood glucose and HbA1c are not elevated, so diabetes is unlikely. Recommend urgent nephrology evaluation and further workup for renal pathology.</td></tr></table></div>"
            },
            "code": {
              "coding": [
                {
                  "system": "http://loinc.org",
                  "code": "48767-8",
                  "display": "Annotation comment"
                }
              ]
            },
            "title": "Annotation comment"
          }
        ],
        "status": "final",
        "subject": {
          "reference": "urn:uuid:4e40301a-b4e8-4d09-92b7-3110f04b4032",
          "display": "Meaghan Neary"
        },
        "date": "2024-09-17T00:11:04Z",
        "title": "Laboratory Report",
        "confidentiality": "N"
      }
    },
    {
      "fullUrl": "urn:uuid:941ecf32-71bb-4403-99a4-09022c013f51",
      "resource": {
        "resourceType": "DiagnosticReport",
        "id": "941ecf32-71bb-4403-99a4-09022c013f51",
        "meta": {
          "profile": [
            "http://hl7.eu/fhir/laboratory/StructureDefinition/DiagnosticReport-eu-lab"
          ]
        },
        "identifier": [
          {
            "assigner": {
              "display": "HL7 Europe"
            },
            "system": "urn:oid:2.16.840.1.113883.2.51.999",
            "value": "d805e876-bdab-4c80-9b23-2c4301242044"
          }
        ],
        "extension": [
          {
            "url": "http://hl7.org/fhir/5.0/StructureDefinition/extension-DiagnosticReport.composition",
            "valueReference": {
              "reference": "urn:uuid:f4c7cdb5-f130-4c6d-8284-f3a60c02b68b"
            }
          }
        ],
        "category": [
          {
            "coding": [
              {
                "code": "26436-6",
                "system": "http://loinc.org",
                "display": "Laboratory studies (set)"
              }
            ]
          }
        ],
        "specimen": [
          {
            "reference": "urn:uuid:a25e8591-150d-4e0d-9037-0f17445dfa83"
          },
          {
            "reference": "urn:uuid:9fb3ad7f-a94b-46ad-a7be-c4eddb49cb3d"
          },
          {
            "reference": "urn:uuid:b83fcc6e-a1c5-4a12-94a1-fe4f36ba774e"
          }
        ],
        "result": [
          {
            "reference": "urn:uuid:c3a6284f-8bde-404a-9453-537030390a32"
          },
          {
            "reference": "urn:uuid:7c1b2338-938b-423b-9d1e-4c3a9647234a"
          },
          {
            "reference": "urn:uuid:22eaeb33-6597-4450-8dff-12ac0a4f04f8"
          },
          {
            "reference": "urn:uuid:d6399ab2-8fd1-45ad-a9ce-e37ed7a84a61"
          },
          {
            "reference": "urn:uuid:9dc24b38-75df-44fa-9575-e69e057b3640"
          },
          {
            "reference": "urn:uuid:176552b8-a31e-4ac4-84a9-c01b3e4ef851"
          },
          {
            "reference": "urn:uuid:a8e9be11-5619-4feb-8188-825321e170f7"
          },
          {
            "reference": "urn:uuid:8b8e79e3-7b3c-4603-9733-ed3fd5a28d90"
          },
          {
            "reference": "urn:uuid:996e2e55-75d9-4103-94c7-7310c6f98ffd"
          },
          {
            "reference": "urn:uuid:56ae533f-7ce7-4be5-9de2-89ca14b4cf46"
          },
          {
            "reference": "urn:uuid:af4ac146-a4c9-41e6-b1d9-1e0695b6329b"
          },
          {
            "reference": "urn:uuid:c5d63e0d-2844-4e7c-90a4-a60cec5778b9"
          },
          {
            "reference": "urn:uuid:e84814d7-5399-45a3-a08d-8598cfc6737f"
          },
          {
            "reference": "urn:uuid:ca6696e9-a799-4e40-b8d7-76b137c3e758"
          },
          {
            "reference": "urn:uuid:8394dd10-90b4-4f6c-ba75-1fa987b42b47"
          },
          {
            "reference": "urn:uuid:f359d480-2abb-4095-8e48-74940c26151b"
          },
          {
            "reference": "urn:uuid:d34a5112-bb34-4aeb-ad39-fd8adc41230b"
          },
          {
            "reference": "urn:uuid:551b9118-c722-4ca1-ac41-6799849b3162"
          },
          {
            "reference": "urn:uuid:1d802618-6f56-4276-84d3-bd44b5a7a817"
          },
          {
            "reference": "urn:uuid:6b2a9ebd-26b2-41fd-9862-501b3dc18de1"
          },
          {
            "reference": "urn:uuid:d8108055-8653-4e5f-93ab-9b8ca059d62b"
          },
          {
            "reference": "urn:uuid:687f68df-e623-4bf3-82a2-1e08e1810896"
          },
          {
            "reference": "urn:uuid:156395dd-9c6a-48c2-8dfb-a0ec036c6ef4"
          },
          {
            "reference": "urn:uuid:30ce30a7-3f58-435d-a6e8-732bfe717829"
          },
          {
            "reference": "urn:uuid:91cdd058-57cd-4025-bff4-cd258ba2afb2"
          },
          {
            "reference": "urn:uuid:316d1c25-9ce8-47b9-a447-cad211e48c04"
          },
          {
            "reference": "urn:uuid:6907296f-2f43-4188-812b-66fed63e9d41"
          },
          {
            "reference": "urn:uuid:c5da98dd-3804-48b7-abb6-e4f4aafbc47d"
          },
          {
            "reference": "urn:uuid:70b30656-c0dc-415e-9af4-d8868c022a1d"
          },
          {
            "reference": "urn:uuid:7fda80fe-8fa9-425b-8eed-05d0341d8d0b"
          },
          {
            "reference": "urn:uuid:74562f7d-c87e-4fda-a58e-1f922788a320"
          },
          {
            "reference": "urn:uuid:8f8ea56e-b3e6-4a36-9968-7da68fd20af6"
          },
          {
            "reference": "urn:uuid:95102e63-1833-4602-99ba-62e34ed98f0b"
          },
          {
            "reference": "urn:uuid:69beaf52-8971-4a43-a606-4467591f18c9"
          }
        ],
        "status": "registered",
        "code": {
          "coding": [
            {
              "code": "11502-2",
              "system": "http://loinc.org",
              "display": "Laboratory report"
            }
          ]
        },
        "subject": {
          "reference": "urn:uuid:4e40301a-b4e8-4d09-92b7-3110f04b4032",
          "display": "Meaghan Neary"
        }
      }
    },
    {
      "fullUrl": "urn:uuid:4e40301a-b4e8-4d09-92b7-3110f04b4032",
      "resource": {
        "resourceType": "Patient",
        "id": "4e40301a-b4e8-4d09-92b7-3110f04b4032",
        "meta": {
          "security": [
            {
              "system": "http://terminology.hl7.org/CodeSystem/v3-ActReason",
              "code": "HTEST"
            },
            {
              "system": "http://terminology.hl7.org/CodeSystem/v3-ActReason",
              "code": "TRAIN"
            }
          ],
          "tag": [
            {
              "system": "https://synderai.net/fhir/CodeSystem/tags",
              "code": "synthetic",
              "display": "SYNDERAI Synthetic data"
            }
          ],
          "profile": [
            "http://hl7.eu/fhir/base/StructureDefinition/patient-eu-core"
          ]
        },
        "identifier": [
          {
            "type": {
              "coding": [
                {
                  "code": "PT",
                  "system": "http://terminology.hl7.org/CodeSystem/v2-0203"
                }
              ]
            },
            "system": "http://ec.europa.eu/identifier/eci",
            "value": "1586-567257-8"
          },
          {
            "type": {
              "coding": [
                {
                  "code": "MR",
                  "system": "http://terminology.hl7.org/CodeSystem/v2-0203"
                }
              ]
            },
            "system": "http://local.setting.eu/identifier",
            "value": "443e6379-f231-b364-3ccb-644740a1aa2a"
          }
        ],
        "name": [
          {
            "family": "Neary"
          },
          {
            "given": [
              "Meaghan"
            ]
          },
          {
            "text": "Meaghan Neary"
          }
        ],
        "address": [
          {
            "line": [
              "64 Linskey Street"
            ],
            "use": "home",
            "type": "physical",
            "postalCode": "D02",
            "city": "Dublin",
            "country": "Ireland"
          }
        ],
        "telecom": [
          {
            "system": "phone",
            "value": "001-967-573-0911x465"
          }
        ],
        "extension": [
          {
            "url": "http://hl7.org/fhir/StructureDefinition/patient-nationality",
            "valueCodeableConcept": {
              "coding": [
                {
                  "code": "IE",
                  "system": "http://hl7.org/fhir/ValueSet/country"
                }
              ]
            }
          }
        ],
        "text": {
          "status": "generated",
          "div": "<div xmlns=\"http://www.w3.org/1999/xhtml\"><table class=\"hl7__ips\"><tr><td>Meaghan Neary</td><td>female</td><td>19-Dec-1960</td></tr></table></div>"
        },
        "gender": "female",
        "birthDate": "1960-12-19"
      }
    },
    {
      "fullUrl": "urn:uuid:68206d52-5ead-4c83-b438-da81010908c5",
      "resource": {
        "resourceType": "ServiceRequest",
        "id": "68206d52-5ead-4c83-b438-da81010908c5",
        "meta": {
          "profile": [
            "http://hl7.eu/fhir/laboratory/StructureDefinition/ServiceRequest-eu-lab"
          ]
        },
        "identifier": [
          {
            "system": "http://example.org",
            "value": "d68e55f8-f8da-4aa2-981c-8229c3083800"
          }
        ],
        "specimen": [
          {
            "reference": "urn:uuid:a25e8591-150d-4e0d-9037-0f17445dfa83"
          },
          {
            "reference": "urn:uuid:9fb3ad7f-a94b-46ad-a7be-c4eddb49cb3d"
          },
          {
            "reference": "urn:uuid:b83fcc6e-a1c5-4a12-94a1-fe4f36ba774e"
          }
        ],
        "reasonCode": [
          {
            "coding": [
              {
                "code": "55822004",
                "system": "http://snomed.info/sct",
                "display": "Hyperlipidemia"
              }
            ]
          },
          {
            "coding": [
              {
                "code": "433144002",
                "system": "http://snomed.info/sct",
                "display": "Chronic kidney disease stage 3"
              }
            ]
          },
          {
            "coding": [
              {
                "code": "157141000119108",
                "system": "http://snomed.info/sct",
                "display": "Proteinuria due to type 2 diabetes mellitus"
              }
            ]
          },
          {
            "coding": [
              {
                "code": "431856006",
                "system": "http://snomed.info/sct",
                "display": "Chronic kidney disease stage 2"
              }
            ]
          },
          {
            "coding": [
              {
                "code": "90781000119102",
                "system": "http://snomed.info/sct",
                "display": "Microalbuminuria due to type 2 diabetes mellitus"
              }
            ]
          },
          {
            "coding": [
              {
                "code": "127013003",
                "system": "http://snomed.info/sct",
                "display": "Disorder of kidney due to diabetes mellitus"
              }
            ]
          },
          {
            "coding": [
              {
                "code": "431855005",
                "system": "http://snomed.info/sct",
                "display": "Chronic kidney disease stage 1"
              }
            ]
          },
          {
            "coding": [
              {
                "code": "237602007",
                "system": "http://snomed.info/sct",
                "display": "Metabolic syndrome X"
              }
            ]
          },
          {
            "coding": [
              {
                "code": "271737000",
                "system": "http://snomed.info/sct",
                "display": "Anemia"
              }
            ]
          },
          {
            "coding": [
              {
                "code": "15777000",
                "system": "http://snomed.info/sct",
                "display": "Prediabetes"
              }
            ]
          },
          {
            "coding": [
              {
                "code": "59621000",
                "system": "http://snomed.info/sct",
                "display": "Essential hypertension"
              }
            ]
          }
        ],
        "status": "active",
        "intent": "order",
        "code": {
          "coding": [
            {
              "code": "108252007",
              "system": "http://snomed.info/sct",
              "display": "Laboratory procedure"
            }
          ]
        },
        "subject": {
          "reference": "urn:uuid:4e40301a-b4e8-4d09-92b7-3110f04b4032",
          "display": "Meaghan Neary"
        },
        "requester": {
          "reference": "urn:uuid:823f75ac-89b4-4b5d-ad34-1e1ae7a9ec54"
        }
      }
    },
    {
      "fullUrl": "urn:uuid:823f75ac-89b4-4b5d-ad34-1e1ae7a9ec54",
      "resource": {
        "resourceType": "PractitionerRole",
        "id": "823f75ac-89b4-4b5d-ad34-1e1ae7a9ec54",
        "meta": {
          "profile": [
            "http://hl7.eu/fhir/base/StructureDefinition/practitionerRole-eu"
          ]
        },
        "text": {
          "status": "generated",
          "div": "<div xmlns=\"http://www.w3.org/1999/xhtml\">Provider Role Id: 823f75ac-89b4-4b5d-ad34-1e1ae7a9ec54</div>"
        },
        "organization": {
          "reference": "urn:uuid:704faa92-a1eb-48db-902b-d169b5f0d171"
        }
      }
    },
    {
      "fullUrl": "urn:uuid:704faa92-a1eb-48db-902b-d169b5f0d171",
      "resource": {
        "resourceType": "Organization",
        "id": "704faa92-a1eb-48db-902b-d169b5f0d171",
        "meta": {
          "profile": [
            "http://hl7.eu/fhir/base/StructureDefinition/organization-eu"
          ]
        },
        "identifier": [
          {
            "assigner": {
              "display": "HL7 Europe"
            },
            "system": "urn:oid:2.16.840.1.113883.2.51.999",
            "value": "ed2cec49-1f22-44cc-bca5-e1df4957de8d"
          }
        ],
        "address": [
          {
            "line": [
              "Parnell Square West nan"
            ],
            "city": "Dublin",
            "postalCode": "D01",
            "country": "Ireland"
          }
        ],
        "text": {
          "status": "generated",
          "div": "<div xmlns=\"http://www.w3.org/1999/xhtml\">Provider Organization: Rotunda Hospital</div>"
        },
        "name": "Rotunda Hospital"
      }
    },
    {
      "fullUrl": "urn:uuid:a25e8591-150d-4e0d-9037-0f17445dfa83",
      "resource": {
        "resourceType": "Specimen",
        "id": "a25e8591-150d-4e0d-9037-0f17445dfa83",
        "meta": {
          "profile": [
            "http://hl7.eu/fhir/laboratory/StructureDefinition/Specimen-eu-lab"
          ]
        },
        "collection": {
          "collectedDateTime": "2024-09-16"
        },
        "text": {
          "status": "generated",
          "div": "<div xmlns=\"http://www.w3.org/1999/xhtml\"><table class=\"hl7__eu__lab__report\"><tr><th>Specimen</th><th>Collection Date</th></tr><tr><td>Acellular blood (serum or plasma) specimen</td><td><span class=\"nb\">16-Sep-2024</span></td></tr></table></div>"
        },
        "type": {
          "coding": [
            {
              "code": "122592007",
              "system": "http://snomed.info/sct",
              "display": "Acellular blood (serum or plasma) specimen"
            }
          ]
        }
      }
    },
    {
      "fullUrl": "urn:uuid:9fb3ad7f-a94b-46ad-a7be-c4eddb49cb3d",
      "resource": {
        "resourceType": "Specimen",
        "id": "9fb3ad7f-a94b-46ad-a7be-c4eddb49cb3d",
        "meta": {
          "profile": [
            "http://hl7.eu/fhir/laboratory/StructureDefinition/Specimen-eu-lab"
          ]
        },
        "collection": {
          "collectedDateTime": "2024-09-16"
        },
        "text": {
          "status": "generated",
          "div": "<div xmlns=\"http://www.w3.org/1999/xhtml\"><table class=\"hl7__eu__lab__report\"><tr><th>Specimen</th><th>Collection Date</th></tr><tr><td>Urine specimen</td><td><span class=\"nb\">16-Sep-2024</span></td></tr></table></div>"
        },
        "type": {
          "coding": [
            {
              "code": "122575003",
              "system": "http://snomed.info/sct",
              "display": "Urine specimen"
            }
          ]
        }
      }
    },
    {
      "fullUrl": "urn:uuid:b83fcc6e-a1c5-4a12-94a1-fe4f36ba774e",
      "resource": {
        "resourceType": "Specimen",
        "id": "b83fcc6e-a1c5-4a12-94a1-fe4f36ba774e",
        "meta": {
          "profile": [
            "http://hl7.eu/fhir/laboratory/StructureDefinition/Specimen-eu-lab"
          ]
        },
        "collection": {
          "collectedDateTime": "2024-09-16"
        },
        "text": {
          "status": "generated",
          "div": "<div xmlns=\"http://www.w3.org/1999/xhtml\"><table class=\"hl7__eu__lab__report\"><tr><th>Specimen</th><th>Collection Date</th></tr><tr><td>Whole blood specimen (specimen)</td><td><span class=\"nb\">16-Sep-2024</span></td></tr></table></div>"
        },
        "type": {
          "coding": [
            {
              "code": "258580003",
              "system": "http://snomed.info/sct",
              "display": "Whole blood specimen (specimen)"
            }
          ]
        }
      }
    },
    {
      "fullUrl": "urn:uuid:c3a6284f-8bde-404a-9453-537030390a32",
      "resource": {
        "resourceType": "Observation",
        "id": "c3a6284f-8bde-404a-9453-537030390a32",
        "meta": {
          "profile": [
            "http://hl7.eu/fhir/laboratory/StructureDefinition/Observation-resultslab-eu-lab"
          ]
        },
        "performer": [
          {
            "display": "The Central European Lab"
          }
        ],
        "category": [
          {
            "coding": [
              {
                "system": "http://terminology.hl7.org/CodeSystem/observation-category",
                "code": "laboratory"
              }
            ]
          }
        ],
        "code": {
          "coding": [
            {
              "code": "2345-7",
              "system": "http://loinc.org",
              "display": "Glucose [Mass/volume] in Serum or Plasma"
            }
          ],
          "text": "Glucose [Mass/volume] in Serum or Plasma"
        },
        "valueQuantity": {
          "system": "http://unitsofmeasure.org",
          "value": 71.5,
          "unit": "mg/dL",
          "code": "mg/dL"
        },
        "referenceRange": [
          {
            "low": {
              "value": 70,
              "code": "mg/dL",
              "system": "http://unitsofmeasure.org"
            }
          },
          {
            "high": {
              "value": 99,
              "code": "mg/dL",
              "system": "http://unitsofmeasure.org"
            }
          }
        ],
        "text": {
          "status": "generated",
          "div": "<div xmlns=\"http://www.w3.org/1999/xhtml\"><table class=\"hl7__eu__lab__report\"><tr><th>Test</th><th>17-Sep-2024</th><th>Reference&#xA0;Range</th><th>Unit</th></tr><tr><td>Glucose [Mass/volume] in Serum or Plasma</td><td>71.5</td><td>70 - 99</td><td></td><td>mg/dL</td></tr></table></div>"
        },
        "status": "final",
        "subject": {
          "reference": "urn:uuid:4e40301a-b4e8-4d09-92b7-3110f04b4032",
          "display": "Meaghan Neary"
        },
        "effectiveDateTime": "2024-09-16T22:11:04Z",
        "specimen": {
          "reference": "urn:uuid:a25e8591-150d-4e0d-9037-0f17445dfa83"
        }
      }
    },
    {
      "fullUrl": "urn:uuid:7c1b2338-938b-423b-9d1e-4c3a9647234a",
      "resource": {
        "resourceType": "Observation",
        "id": "7c1b2338-938b-423b-9d1e-4c3a9647234a",
        "meta": {
          "profile": [
            "http://hl7.eu/fhir/laboratory/StructureDefinition/Observation-resultslab-eu-lab"
          ]
        },
        "performer": [
          {
            "display": "The Central European Lab"
          }
        ],
        "category": [
          {
            "coding": [
              {
                "system": "http://terminology.hl7.org/CodeSystem/observation-category",
                "code": "laboratory"
              }
            ]
          }
        ],
        "code": {
          "coding": [
            {
              "code": "3094-0",
              "system": "http://loinc.org",
              "display": "Urea nitrogen [Mass/volume] in Serum or Plasma"
            }
          ],
          "text": "Urea nitrogen [Mass/volume] in Serum or Plasma"
        },
        "valueQuantity": {
          "system": "http://unitsofmeasure.org",
          "value": 16.6,
          "unit": "mg/dL",
          "code": "mg/dL"
        },
        "referenceRange": [
          {
            "low": {
              "value": 7,
              "code": "mg/dL",
              "system": "http://unitsofmeasure.org"
            }
          },
          {
            "high": {
              "value": 50,
              "code": "mg/dL",
              "system": "http://unitsofmeasure.org"
            }
          }
        ],
        "text": {
          "status": "generated",
          "div": "<div xmlns=\"http://www.w3.org/1999/xhtml\"><table class=\"hl7__eu__lab__report\"><tr><th>Test</th><th>17-Sep-2024</th><th>Reference&#xA0;Range</th><th>Unit</th></tr><tr><td>Urea nitrogen [Mass/volume] in Serum or Plasma</td><td>16.6</td><td>7 - 50</td><td></td><td>mg/dL</td></tr></table></div>"
        },
        "status": "final",
        "subject": {
          "reference": "urn:uuid:4e40301a-b4e8-4d09-92b7-3110f04b4032",
          "display": "Meaghan Neary"
        },
        "effectiveDateTime": "2024-09-16T22:11:04Z",
        "specimen": {
          "reference": "urn:uuid:a25e8591-150d-4e0d-9037-0f17445dfa83"
        }
      }
    },
    {
      "fullUrl": "urn:uuid:22eaeb33-6597-4450-8dff-12ac0a4f04f8",
      "resource": {
        "resourceType": "Observation",
        "id": "22eaeb33-6597-4450-8dff-12ac0a4f04f8",
        "meta": {
          "profile": [
            "http://hl7.eu/fhir/laboratory/StructureDefinition/Observation-resultslab-eu-lab"
          ]
        },
        "performer": [
          {
            "display": "The Central European Lab"
          }
        ],
        "category": [
          {
            "coding": [
              {
                "system": "http://terminology.hl7.org/CodeSystem/observation-category",
                "code": "laboratory"
              }
            ]
          }
        ],
        "code": {
          "coding": [
            {
              "code": "2160-0",
              "system": "http://loinc.org",
              "display": "Creatinine [Mass/volume] in Serum or Plasma"
            }
          ],
          "text": "Creatinine [Mass/volume] in Serum or Plasma"
        },
        "valueQuantity": {
          "system": "http://unitsofmeasure.org",
          "value": 2.1,
          "unit": "mg/dL",
          "code": "mg/dL"
        },
        "referenceRange": [
          {
            "low": {
              "value": 0.6,
              "code": "mg/dL",
              "system": "http://unitsofmeasure.org"
            }
          },
          {
            "high": {
              "value": 1.1,
              "code": "mg/dL",
              "system": "http://unitsofmeasure.org"
            }
          }
        ],
        "interpretation": [
          {
            "coding": [
              {
                "code": "H",
                "system": "http://terminology.hl7.org/CodeSystem/v3-ObservationInterpretation",
                "display": "High"
              }
            ]
          }
        ],
        "text": {
          "status": "generated",
          "div": "<div xmlns=\"http://www.w3.org/1999/xhtml\"><table class=\"hl7__eu__lab__report\"><tr><th>Test</th><th>17-Sep-2024</th><th>Reference&#xA0;Range</th><th>Unit</th></tr><tr><td>Creatinine [Mass/volume] in Serum or Plasma</td><td>2.1</td><td>0.6 - 1.1</td><td>H</td><td>mg/dL</td></tr></table></div>"
        },
        "status": "final",
        "subject": {
          "reference": "urn:uuid:4e40301a-b4e8-4d09-92b7-3110f04b4032",
          "display": "Meaghan Neary"
        },
        "effectiveDateTime": "2024-09-16T22:11:04Z",
        "specimen": {
          "reference": "urn:uuid:a25e8591-150d-4e0d-9037-0f17445dfa83"
        }
      }
    },
    {
      "fullUrl": "urn:uuid:d6399ab2-8fd1-45ad-a9ce-e37ed7a84a61",
      "resource": {
        "resourceType": "Observation",
        "id": "d6399ab2-8fd1-45ad-a9ce-e37ed7a84a61",
        "meta": {
          "profile": [
            "http://hl7.eu/fhir/laboratory/StructureDefinition/Observation-resultslab-eu-lab"
          ]
        },
        "performer": [
          {
            "display": "The Central European Lab"
          }
        ],
        "category": [
          {
            "coding": [
              {
                "system": "http://terminology.hl7.org/CodeSystem/observation-category",
                "code": "laboratory"
              }
            ]
          }
        ],
        "code": {
          "coding": [
            {
              "code": "17861-6",
              "system": "http://loinc.org",
              "display": "Calcium [Mass/volume] in Serum or Plasma"
            }
          ],
          "text": "Calcium [Mass/volume] in Serum or Plasma"
        },
        "valueQuantity": {
          "system": "http://unitsofmeasure.org",
          "value": 8.7,
          "unit": "mg/dL",
          "code": "mg/dL"
        },
        "referenceRange": [
          {
            "low": {
              "value": 8.6,
              "code": "mg/dL",
              "system": "http://unitsofmeasure.org"
            }
          },
          {
            "high": {
              "value": 10.4,
              "code": "mg/dL",
              "system": "http://unitsofmeasure.org"
            }
          }
        ],
        "text": {
          "status": "generated",
          "div": "<div xmlns=\"http://www.w3.org/1999/xhtml\"><table class=\"hl7__eu__lab__report\"><tr><th>Test</th><th>17-Sep-2024</th><th>Reference&#xA0;Range</th><th>Unit</th></tr><tr><td>Calcium [Mass/volume] in Serum or Plasma</td><td>8.7</td><td>8.6 - 10.4</td><td></td><td>mg/dL</td></tr></table></div>"
        },
        "status": "final",
        "subject": {
          "reference": "urn:uuid:4e40301a-b4e8-4d09-92b7-3110f04b4032",
          "display": "Meaghan Neary"
        },
        "effectiveDateTime": "2024-09-16T22:11:04Z",
        "specimen": {
          "reference": "urn:uuid:a25e8591-150d-4e0d-9037-0f17445dfa83"
        }
      }
    },
    {
      "fullUrl": "urn:uuid:9dc24b38-75df-44fa-9575-e69e057b3640",
      "resource": {
        "resourceType": "Observation",
        "id": "9dc24b38-75df-44fa-9575-e69e057b3640",
        "meta": {
          "profile": [
            "http://hl7.eu/fhir/laboratory/StructureDefinition/Observation-resultslab-eu-lab"
          ]
        },
        "performer": [
          {
            "display": "The Central European Lab"
          }
        ],
        "category": [
          {
            "coding": [
              {
                "system": "http://terminology.hl7.org/CodeSystem/observation-category",
                "code": "laboratory"
              }
            ]
          }
        ],
        "code": {
          "coding": [
            {
              "code": "2951-2",
              "system": "http://loinc.org",
              "display": "Sodium [Moles/volume] in Serum or Plasma"
            }
          ],
          "text": "Sodium [Moles/volume] in Serum or Plasma"
        },
        "valueQuantity": {
          "system": "http://unitsofmeasure.org",
          "value": 137,
          "unit": "mmol/L",
          "code": "mmol/L"
        },
        "referenceRange": [
          {
            "low": {
              "value": 135,
              "code": "mmol/L",
              "system": "http://unitsofmeasure.org"
            }
          },
          {
            "high": {
              "value": 145,
              "code": "mmol/L",
              "system": "http://unitsofmeasure.org"
            }
          }
        ],
        "text": {
          "status": "generated",
          "div": "<div xmlns=\"http://www.w3.org/1999/xhtml\"><table class=\"hl7__eu__lab__report\"><tr><th>Test</th><th>17-Sep-2024</th><th>Reference&#xA0;Range</th><th>Unit</th></tr><tr><td>Sodium [Moles/volume] in Serum or Plasma</td><td>137.0</td><td>135 - 145</td><td></td><td>mmol/L</td></tr></table></div>"
        },
        "status": "final",
        "subject": {
          "reference": "urn:uuid:4e40301a-b4e8-4d09-92b7-3110f04b4032",
          "display": "Meaghan Neary"
        },
        "effectiveDateTime": "2024-09-16T22:11:04Z",
        "specimen": {
          "reference": "urn:uuid:a25e8591-150d-4e0d-9037-0f17445dfa83"
        }
      }
    },
    {
      "fullUrl": "urn:uuid:176552b8-a31e-4ac4-84a9-c01b3e4ef851",
      "resource": {
        "resourceType": "Observation",
        "id": "176552b8-a31e-4ac4-84a9-c01b3e4ef851",
        "meta": {
          "profile": [
            "http://hl7.eu/fhir/laboratory/StructureDefinition/Observation-resultslab-eu-lab"
          ]
        },
        "performer": [
          {
            "display": "The Central European Lab"
          }
        ],
        "category": [
          {
            "coding": [
              {
                "system": "http://terminology.hl7.org/CodeSystem/observation-category",
                "code": "laboratory"
              }
            ]
          }
        ],
        "code": {
          "coding": [
            {
              "code": "2823-3",
              "system": "http://loinc.org",
              "display": "Potassium [Moles/volume] in Serum or Plasma"
            }
          ],
          "text": "Potassium [Moles/volume] in Serum or Plasma"
        },
        "valueQuantity": {
          "system": "http://unitsofmeasure.org",
          "value": 4.7,
          "unit": "mmol/L",
          "code": "mmol/L"
        },
        "referenceRange": [
          {
            "low": {
              "value": 3.5,
              "code": "mmol/L",
              "system": "http://unitsofmeasure.org"
            }
          },
          {
            "high": {
              "value": 5.1,
              "code": "mmol/L",
              "system": "http://unitsofmeasure.org"
            }
          }
        ],
        "text": {
          "status": "generated",
          "div": "<div xmlns=\"http://www.w3.org/1999/xhtml\"><table class=\"hl7__eu__lab__report\"><tr><th>Test</th><th>17-Sep-2024</th><th>Reference&#xA0;Range</th><th>Unit</th></tr><tr><td>Potassium [Moles/volume] in Serum or Plasma</td><td>4.7</td><td>3.5 - 5.1</td><td></td><td>mmol/L</td></tr></table></div>"
        },
        "status": "final",
        "subject": {
          "reference": "urn:uuid:4e40301a-b4e8-4d09-92b7-3110f04b4032",
          "display": "Meaghan Neary"
        },
        "effectiveDateTime": "2024-09-16T22:11:04Z",
        "specimen": {
          "reference": "urn:uuid:a25e8591-150d-4e0d-9037-0f17445dfa83"
        }
      }
    },
    {
      "fullUrl": "urn:uuid:a8e9be11-5619-4feb-8188-825321e170f7",
      "resource": {
        "resourceType": "Observation",
        "id": "a8e9be11-5619-4feb-8188-825321e170f7",
        "meta": {
          "profile": [
            "http://hl7.eu/fhir/laboratory/StructureDefinition/Observation-resultslab-eu-lab"
          ]
        },
        "performer": [
          {
            "display": "The Central European Lab"
          }
        ],
        "category": [
          {
            "coding": [
              {
                "system": "http://terminology.hl7.org/CodeSystem/observation-category",
                "code": "laboratory"
              }
            ]
          }
        ],
        "code": {
          "coding": [
            {
              "code": "2075-0",
              "system": "http://loinc.org",
              "display": "Chloride [Moles/volume] in Serum or Plasma"
            }
          ],
          "text": "Chloride [Moles/volume] in Serum or Plasma"
        },
        "valueQuantity": {
          "system": "http://unitsofmeasure.org",
          "value": 110,
          "unit": "mmol/L",
          "code": "mmol/L"
        },
        "referenceRange": [
          {
            "low": {
              "value": 98,
              "code": "mmol/L",
              "system": "http://unitsofmeasure.org"
            }
          },
          {
            "high": {
              "value": 108,
              "code": "mmol/L",
              "system": "http://unitsofmeasure.org"
            }
          }
        ],
        "interpretation": [
          {
            "coding": [
              {
                "code": "H",
                "system": "http://terminology.hl7.org/CodeSystem/v3-ObservationInterpretation",
                "display": "High"
              }
            ]
          }
        ],
        "text": {
          "status": "generated",
          "div": "<div xmlns=\"http://www.w3.org/1999/xhtml\"><table class=\"hl7__eu__lab__report\"><tr><th>Test</th><th>17-Sep-2024</th><th>Reference&#xA0;Range</th><th>Unit</th></tr><tr><td>Chloride [Moles/volume] in Serum or Plasma</td><td>110.0</td><td>98 - 108</td><td>H</td><td>mmol/L</td></tr></table></div>"
        },
        "status": "final",
        "subject": {
          "reference": "urn:uuid:4e40301a-b4e8-4d09-92b7-3110f04b4032",
          "display": "Meaghan Neary"
        },
        "effectiveDateTime": "2024-09-16T22:11:04Z",
        "specimen": {
          "reference": "urn:uuid:a25e8591-150d-4e0d-9037-0f17445dfa83"
        }
      }
    },
    {
      "fullUrl": "urn:uuid:8b8e79e3-7b3c-4603-9733-ed3fd5a28d90",
      "resource": {
        "resourceType": "Observation",
        "id": "8b8e79e3-7b3c-4603-9733-ed3fd5a28d90",
        "meta": {
          "profile": [
            "http://hl7.eu/fhir/laboratory/StructureDefinition/Observation-resultslab-eu-lab"
          ]
        },
        "performer": [
          {
            "display": "The Central European Lab"
          }
        ],
        "category": [
          {
            "coding": [
              {
                "system": "http://terminology.hl7.org/CodeSystem/observation-category",
                "code": "laboratory"
              }
            ]
          }
        ],
        "code": {
          "coding": [
            {
              "code": "2028-9",
              "system": "http://loinc.org",
              "display": "Carbon dioxide, total [Moles/volume] in Serum or Plasma"
            }
          ],
          "text": "Carbon dioxide, total [Moles/volume] in Serum or Plasma"
        },
        "valueQuantity": {
          "system": "http://unitsofmeasure.org",
          "value": 24.6,
          "unit": "mmol/L",
          "code": "mmol/L"
        },
        "referenceRange": [
          {
            "low": {
              "value": 22,
              "code": "mmol/L",
              "system": "http://unitsofmeasure.org"
            }
          },
          {
            "high": {
              "value": 32,
              "code": "mmol/L",
              "system": "http://unitsofmeasure.org"
            }
          }
        ],
        "text": {
          "status": "generated",
          "div": "<div xmlns=\"http://www.w3.org/1999/xhtml\"><table class=\"hl7__eu__lab__report\"><tr><th>Test</th><th>17-Sep-2024</th><th>Reference&#xA0;Range</th><th>Unit</th></tr><tr><td>Carbon dioxide, total [Moles/volume] in Serum or Plasma</td><td>24.6</td><td>22 - 32</td><td></td><td>mmol/L</td></tr></table></div>"
        },
        "status": "final",
        "subject": {
          "reference": "urn:uuid:4e40301a-b4e8-4d09-92b7-3110f04b4032",
          "display": "Meaghan Neary"
        },
        "effectiveDateTime": "2024-09-16T22:11:04Z",
        "specimen": {
          "reference": "urn:uuid:a25e8591-150d-4e0d-9037-0f17445dfa83"
        }
      }
    },
    {
      "fullUrl": "urn:uuid:996e2e55-75d9-4103-94c7-7310c6f98ffd",
      "resource": {
        "resourceType": "Observation",
        "id": "996e2e55-75d9-4103-94c7-7310c6f98ffd",
        "meta": {
          "profile": [
            "http://hl7.eu/fhir/laboratory/StructureDefinition/Observation-resultslab-eu-lab"
          ]
        },
        "performer": [
          {
            "display": "The Central European Lab"
          }
        ],
        "category": [
          {
            "coding": [
              {
                "system": "http://terminology.hl7.org/CodeSystem/observation-category",
                "code": "laboratory"
              }
            ]
          }
        ],
        "code": {
          "coding": [
            {
              "code": "5767-9",
              "system": "http://loinc.org",
              "display": "Appearance of Urine"
            }
          ],
          "text": "Appearance of Urine"
        },
        "text": {
          "status": "generated",
          "div": "<div xmlns=\"http://www.w3.org/1999/xhtml\"><table class=\"hl7__eu__lab__report\"><tr><th>Test</th><th>17-Sep-2024</th><th>Reference&#xA0;Range</th><th>Unit</th></tr><tr><td>Appearance of Urine</td></tr></table></div>"
        },
        "status": "final",
        "subject": {
          "reference": "urn:uuid:4e40301a-b4e8-4d09-92b7-3110f04b4032",
          "display": "Meaghan Neary"
        },
        "effectiveDateTime": "2024-09-16T22:11:04Z",
        "specimen": {
          "reference": "urn:uuid:9fb3ad7f-a94b-46ad-a7be-c4eddb49cb3d"
        }
      }
    },
    {
      "fullUrl": "urn:uuid:56ae533f-7ce7-4be5-9de2-89ca14b4cf46",
      "resource": {
        "resourceType": "Observation",
        "id": "56ae533f-7ce7-4be5-9de2-89ca14b4cf46",
        "meta": {
          "profile": [
            "http://hl7.eu/fhir/laboratory/StructureDefinition/Observation-resultslab-eu-lab"
          ]
        },
        "performer": [
          {
            "display": "The Central European Lab"
          }
        ],
        "category": [
          {
            "coding": [
              {
                "system": "http://terminology.hl7.org/CodeSystem/observation-category",
                "code": "laboratory"
              }
            ]
          }
        ],
        "code": {
          "coding": [
            {
              "code": "34533-0",
              "system": "http://loinc.org",
              "display": "Odor of Urine"
            }
          ],
          "text": "Odor of Urine"
        },
        "text": {
          "status": "generated",
          "div": "<div xmlns=\"http://www.w3.org/1999/xhtml\"><table class=\"hl7__eu__lab__report\"><tr><th>Test</th><th>17-Sep-2024</th><th>Reference&#xA0;Range</th><th>Unit</th></tr><tr><td>Odor of Urine</td></tr></table></div>"
        },
        "status": "final",
        "subject": {
          "reference": "urn:uuid:4e40301a-b4e8-4d09-92b7-3110f04b4032",
          "display": "Meaghan Neary"
        },
        "effectiveDateTime": "2024-09-16T22:11:04Z",
        "specimen": {
          "reference": "urn:uuid:9fb3ad7f-a94b-46ad-a7be-c4eddb49cb3d"
        }
      }
    },
    {
      "fullUrl": "urn:uuid:af4ac146-a4c9-41e6-b1d9-1e0695b6329b",
      "resource": {
        "resourceType": "Observation",
        "id": "af4ac146-a4c9-41e6-b1d9-1e0695b6329b",
        "meta": {
          "profile": [
            "http://hl7.eu/fhir/laboratory/StructureDefinition/Observation-resultslab-eu-lab"
          ]
        },
        "performer": [
          {
            "display": "The Central European Lab"
          }
        ],
        "category": [
          {
            "coding": [
              {
                "system": "http://terminology.hl7.org/CodeSystem/observation-category",
                "code": "laboratory"
              }
            ]
          }
        ],
        "code": {
          "coding": [
            {
              "code": "32167-9",
              "system": "http://loinc.org",
              "display": "Clarity of Urine"
            }
          ],
          "text": "Clarity of Urine"
        },
        "text": {
          "status": "generated",
          "div": "<div xmlns=\"http://www.w3.org/1999/xhtml\"><table class=\"hl7__eu__lab__report\"><tr><th>Test</th><th>17-Sep-2024</th><th>Reference&#xA0;Range</th><th>Unit</th></tr><tr><td>Clarity of Urine</td></tr></table></div>"
        },
        "status": "final",
        "subject": {
          "reference": "urn:uuid:4e40301a-b4e8-4d09-92b7-3110f04b4032",
          "display": "Meaghan Neary"
        },
        "effectiveDateTime": "2024-09-16T22:11:04Z",
        "specimen": {
          "reference": "urn:uuid:9fb3ad7f-a94b-46ad-a7be-c4eddb49cb3d"
        }
      }
    },
    {
      "fullUrl": "urn:uuid:c5d63e0d-2844-4e7c-90a4-a60cec5778b9",
      "resource": {
        "resourceType": "Observation",
        "id": "c5d63e0d-2844-4e7c-90a4-a60cec5778b9",
        "meta": {
          "profile": [
            "http://hl7.eu/fhir/laboratory/StructureDefinition/Observation-resultslab-eu-lab"
          ]
        },
        "performer": [
          {
            "display": "The Central European Lab"
          }
        ],
        "category": [
          {
            "coding": [
              {
                "system": "http://terminology.hl7.org/CodeSystem/observation-category",
                "code": "laboratory"
              }
            ]
          }
        ],
        "code": {
          "coding": [
            {
              "code": "5778-6",
              "system": "http://loinc.org",
              "display": "Color of Urine"
            }
          ],
          "text": "Color of Urine"
        },
        "text": {
          "status": "generated",
          "div": "<div xmlns=\"http://www.w3.org/1999/xhtml\"><table class=\"hl7__eu__lab__report\"><tr><th>Test</th><th>17-Sep-2024</th><th>Reference&#xA0;Range</th><th>Unit</th></tr><tr><td>Color of Urine</td></tr></table></div>"
        },
        "status": "final",
        "subject": {
          "reference": "urn:uuid:4e40301a-b4e8-4d09-92b7-3110f04b4032",
          "display": "Meaghan Neary"
        },
        "effectiveDateTime": "2024-09-16T22:11:04Z",
        "specimen": {
          "reference": "urn:uuid:9fb3ad7f-a94b-46ad-a7be-c4eddb49cb3d"
        }
      }
    },
    {
      "fullUrl": "urn:uuid:e84814d7-5399-45a3-a08d-8598cfc6737f",
      "resource": {
        "resourceType": "Observation",
        "id": "e84814d7-5399-45a3-a08d-8598cfc6737f",
        "meta": {
          "profile": [
            "http://hl7.eu/fhir/laboratory/StructureDefinition/Observation-resultslab-eu-lab"
          ]
        },
        "performer": [
          {
            "display": "The Central European Lab"
          }
        ],
        "category": [
          {
            "coding": [
              {
                "system": "http://terminology.hl7.org/CodeSystem/observation-category",
                "code": "laboratory"
              }
            ]
          }
        ],
        "code": {
          "coding": [
            {
              "code": "5792-7",
              "system": "http://loinc.org",
              "display": "Glucose [Mass/volume] in Urine by Test strip"
            }
          ],
          "text": "Glucose [Mass/volume] in Urine by Test strip"
        },
        "valueQuantity": {
          "system": "http://unitsofmeasure.org",
          "value": 0.8,
          "unit": "mg/dL",
          "code": "mg/dL"
        },
        "referenceRange": [
          {
            "low": {
              "value": 0.8,
              "code": "mg/dL",
              "system": "http://unitsofmeasure.org"
            }
          },
          {
            "high": {
              "value": 0,
              "code": "mg/dL",
              "system": "http://unitsofmeasure.org"
            }
          }
        ],
        "interpretation": [
          {
            "coding": [
              {
                "code": "H",
                "system": "http://terminology.hl7.org/CodeSystem/v3-ObservationInterpretation",
                "display": "High"
              }
            ]
          }
        ],
        "text": {
          "status": "generated",
          "div": "<div xmlns=\"http://www.w3.org/1999/xhtml\"><table class=\"hl7__eu__lab__report\"><tr><th>Test</th><th>17-Sep-2024</th><th>Reference&#xA0;Range</th><th>Unit</th></tr><tr><td>Glucose [Mass/volume] in Urine by Test strip</td><td>0.8</td><td>0.8 - 0</td><td>H</td><td>mg/dL</td></tr></table></div>"
        },
        "status": "final",
        "subject": {
          "reference": "urn:uuid:4e40301a-b4e8-4d09-92b7-3110f04b4032",
          "display": "Meaghan Neary"
        },
        "effectiveDateTime": "2024-09-16T22:11:04Z",
        "specimen": {
          "reference": "urn:uuid:9fb3ad7f-a94b-46ad-a7be-c4eddb49cb3d"
        }
      }
    },
    {
      "fullUrl": "urn:uuid:ca6696e9-a799-4e40-b8d7-76b137c3e758",
      "resource": {
        "resourceType": "Observation",
        "id": "ca6696e9-a799-4e40-b8d7-76b137c3e758",
        "meta": {
          "profile": [
            "http://hl7.eu/fhir/laboratory/StructureDefinition/Observation-resultslab-eu-lab"
          ]
        },
        "performer": [
          {
            "display": "The Central European Lab"
          }
        ],
        "category": [
          {
            "coding": [
              {
                "system": "http://terminology.hl7.org/CodeSystem/observation-category",
                "code": "laboratory"
              }
            ]
          }
        ],
        "code": {
          "coding": [
            {
              "code": "25428-4",
              "system": "http://loinc.org",
              "display": "Glucose [Presence] in Urine by Test strip"
            }
          ],
          "text": "Glucose [Presence] in Urine by Test strip"
        },
        "text": {
          "status": "generated",
          "div": "<div xmlns=\"http://www.w3.org/1999/xhtml\"><table class=\"hl7__eu__lab__report\"><tr><th>Test</th><th>17-Sep-2024</th><th>Reference&#xA0;Range</th><th>Unit</th></tr><tr><td>Glucose [Presence] in Urine by Test strip</td></tr></table></div>"
        },
        "status": "final",
        "subject": {
          "reference": "urn:uuid:4e40301a-b4e8-4d09-92b7-3110f04b4032",
          "display": "Meaghan Neary"
        },
        "effectiveDateTime": "2024-09-16T22:11:04Z",
        "specimen": {
          "reference": "urn:uuid:9fb3ad7f-a94b-46ad-a7be-c4eddb49cb3d"
        }
      }
    },
    {
      "fullUrl": "urn:uuid:8394dd10-90b4-4f6c-ba75-1fa987b42b47",
      "resource": {
        "resourceType": "Observation",
        "id": "8394dd10-90b4-4f6c-ba75-1fa987b42b47",
        "meta": {
          "profile": [
            "http://hl7.eu/fhir/laboratory/StructureDefinition/Observation-resultslab-eu-lab"
          ]
        },
        "performer": [
          {
            "display": "The Central European Lab"
          }
        ],
        "category": [
          {
            "coding": [
              {
                "system": "http://terminology.hl7.org/CodeSystem/observation-category",
                "code": "laboratory"
              }
            ]
          }
        ],
        "code": {
          "coding": [
            {
              "code": "20505-4",
              "system": "http://loinc.org",
              "display": "Bilirubin.total [Mass/volume] in Urine by Test strip"
            }
          ],
          "text": "Bilirubin.total [Mass/volume] in Urine by Test strip"
        },
        "valueQuantity": {
          "system": "http://unitsofmeasure.org",
          "value": 0.3,
          "unit": "mg/dL",
          "code": "mg/dL"
        },
        "referenceRange": [
          {
            "low": {
              "value": 0,
              "code": "mg/dL",
              "system": "http://unitsofmeasure.org"
            }
          },
          {
            "high": {
              "value": 1,
              "code": "mg/dL",
              "system": "http://unitsofmeasure.org"
            }
          }
        ],
        "text": {
          "status": "generated",
          "div": "<div xmlns=\"http://www.w3.org/1999/xhtml\"><table class=\"hl7__eu__lab__report\"><tr><th>Test</th><th>17-Sep-2024</th><th>Reference&#xA0;Range</th><th>Unit</th></tr><tr><td>Bilirubin.total [Mass/volume] in Urine by Test strip</td><td>0.3</td><td>0 - 1</td><td></td><td>mg/dL</td></tr></table></div>"
        },
        "status": "final",
        "subject": {
          "reference": "urn:uuid:4e40301a-b4e8-4d09-92b7-3110f04b4032",
          "display": "Meaghan Neary"
        },
        "effectiveDateTime": "2024-09-16T22:11:04Z",
        "specimen": {
          "reference": "urn:uuid:9fb3ad7f-a94b-46ad-a7be-c4eddb49cb3d"
        }
      }
    },
    {
      "fullUrl": "urn:uuid:f359d480-2abb-4095-8e48-74940c26151b",
      "resource": {
        "resourceType": "Observation",
        "id": "f359d480-2abb-4095-8e48-74940c26151b",
        "meta": {
          "profile": [
            "http://hl7.eu/fhir/laboratory/StructureDefinition/Observation-resultslab-eu-lab"
          ]
        },
        "performer": [
          {
            "display": "The Central European Lab"
          }
        ],
        "category": [
          {
            "coding": [
              {
                "system": "http://terminology.hl7.org/CodeSystem/observation-category",
                "code": "laboratory"
              }
            ]
          }
        ],
        "code": {
          "coding": [
            {
              "code": "5770-3",
              "system": "http://loinc.org",
              "display": "Bilirubin.total [Presence] in Urine by Test strip"
            }
          ],
          "text": "Bilirubin.total [Presence] in Urine by Test strip"
        },
        "text": {
          "status": "generated",
          "div": "<div xmlns=\"http://www.w3.org/1999/xhtml\"><table class=\"hl7__eu__lab__report\"><tr><th>Test</th><th>17-Sep-2024</th><th>Reference&#xA0;Range</th><th>Unit</th></tr><tr><td>Bilirubin.total [Presence] in Urine by Test strip</td></tr></table></div>"
        },
        "status": "final",
        "subject": {
          "reference": "urn:uuid:4e40301a-b4e8-4d09-92b7-3110f04b4032",
          "display": "Meaghan Neary"
        },
        "effectiveDateTime": "2024-09-16T22:11:04Z",
        "specimen": {
          "reference": "urn:uuid:9fb3ad7f-a94b-46ad-a7be-c4eddb49cb3d"
        }
      }
    },
    {
      "fullUrl": "urn:uuid:d34a5112-bb34-4aeb-ad39-fd8adc41230b",
      "resource": {
        "resourceType": "Observation",
        "id": "d34a5112-bb34-4aeb-ad39-fd8adc41230b",
        "meta": {
          "profile": [
            "http://hl7.eu/fhir/laboratory/StructureDefinition/Observation-resultslab-eu-lab"
          ]
        },
        "performer": [
          {
            "display": "The Central European Lab"
          }
        ],
        "category": [
          {
            "coding": [
              {
                "system": "http://terminology.hl7.org/CodeSystem/observation-category",
                "code": "laboratory"
              }
            ]
          }
        ],
        "code": {
          "coding": [
            {
              "code": "5797-6",
              "system": "http://loinc.org",
              "display": "Ketones [Mass/volume] in Urine by Test strip"
            }
          ],
          "text": "Ketones [Mass/volume] in Urine by Test strip"
        },
        "valueQuantity": {
          "system": "http://unitsofmeasure.org",
          "value": 5.9,
          "unit": "mg/dL",
          "code": "mg/dL"
        },
        "referenceRange": [
          {
            "low": {
              "value": 0,
              "code": "mg/dL",
              "system": "http://unitsofmeasure.org"
            }
          },
          {
            "high": {
              "value": 4,
              "code": "mg/dL",
              "system": "http://unitsofmeasure.org"
            }
          }
        ],
        "interpretation": [
          {
            "coding": [
              {
                "code": "H",
                "system": "http://terminology.hl7.org/CodeSystem/v3-ObservationInterpretation",
                "display": "High"
              }
            ]
          }
        ],
        "text": {
          "status": "generated",
          "div": "<div xmlns=\"http://www.w3.org/1999/xhtml\"><table class=\"hl7__eu__lab__report\"><tr><th>Test</th><th>17-Sep-2024</th><th>Reference&#xA0;Range</th><th>Unit</th></tr><tr><td>Ketones [Mass/volume] in Urine by Test strip</td><td>5.9</td><td>0 - 4</td><td>H</td><td>mg/dL</td></tr></table></div>"
        },
        "status": "final",
        "subject": {
          "reference": "urn:uuid:4e40301a-b4e8-4d09-92b7-3110f04b4032",
          "display": "Meaghan Neary"
        },
        "effectiveDateTime": "2024-09-16T22:11:04Z",
        "specimen": {
          "reference": "urn:uuid:9fb3ad7f-a94b-46ad-a7be-c4eddb49cb3d"
        }
      }
    },
    {
      "fullUrl": "urn:uuid:551b9118-c722-4ca1-ac41-6799849b3162",
      "resource": {
        "resourceType": "Observation",
        "id": "551b9118-c722-4ca1-ac41-6799849b3162",
        "meta": {
          "profile": [
            "http://hl7.eu/fhir/laboratory/StructureDefinition/Observation-resultslab-eu-lab"
          ]
        },
        "performer": [
          {
            "display": "The Central European Lab"
          }
        ],
        "category": [
          {
            "coding": [
              {
                "system": "http://terminology.hl7.org/CodeSystem/observation-category",
                "code": "laboratory"
              }
            ]
          }
        ],
        "code": {
          "coding": [
            {
              "code": "2514-8",
              "system": "http://loinc.org",
              "display": "Ketones [Presence] in Urine by Test strip"
            }
          ],
          "text": "Ketones [Presence] in Urine by Test strip"
        },
        "text": {
          "status": "generated",
          "div": "<div xmlns=\"http://www.w3.org/1999/xhtml\"><table class=\"hl7__eu__lab__report\"><tr><th>Test</th><th>17-Sep-2024</th><th>Reference&#xA0;Range</th><th>Unit</th></tr><tr><td>Ketones [Presence] in Urine by Test strip</td></tr></table></div>"
        },
        "status": "final",
        "subject": {
          "reference": "urn:uuid:4e40301a-b4e8-4d09-92b7-3110f04b4032",
          "display": "Meaghan Neary"
        },
        "effectiveDateTime": "2024-09-16T22:11:04Z",
        "specimen": {
          "reference": "urn:uuid:9fb3ad7f-a94b-46ad-a7be-c4eddb49cb3d"
        }
      }
    },
    {
      "fullUrl": "urn:uuid:1d802618-6f56-4276-84d3-bd44b5a7a817",
      "resource": {
        "resourceType": "Observation",
        "id": "1d802618-6f56-4276-84d3-bd44b5a7a817",
        "meta": {
          "profile": [
            "http://hl7.eu/fhir/laboratory/StructureDefinition/Observation-resultslab-eu-lab"
          ]
        },
        "performer": [
          {
            "display": "The Central European Lab"
          }
        ],
        "category": [
          {
            "coding": [
              {
                "system": "http://terminology.hl7.org/CodeSystem/observation-category",
                "code": "laboratory"
              }
            ]
          }
        ],
        "code": {
          "coding": [
            {
              "code": "5811-5",
              "system": "http://loinc.org",
              "display": "Specific gravity of Urine by Test strip"
            }
          ],
          "text": "Specific gravity of Urine by Test strip"
        },
        "valueQuantity": {
          "system": "http://unitsofmeasure.org",
          "value": 1,
          "unit": "{nominal}",
          "code": "{nominal}"
        },
        "referenceRange": [
          {
            "low": {
              "value": 1.005,
              "code": "g/mL",
              "system": "http://unitsofmeasure.org"
            }
          },
          {
            "high": {
              "value": 1.03,
              "code": "g/mL",
              "system": "http://unitsofmeasure.org"
            }
          }
        ],
        "interpretation": [
          {
            "coding": [
              {
                "code": "L",
                "system": "http://terminology.hl7.org/CodeSystem/v3-ObservationInterpretation",
                "display": "Low"
              }
            ]
          }
        ],
        "text": {
          "status": "generated",
          "div": "<div xmlns=\"http://www.w3.org/1999/xhtml\"><table class=\"hl7__eu__lab__report\"><tr><th>Test</th><th>17-Sep-2024</th><th>Reference&#xA0;Range</th><th>Unit</th></tr><tr><td>Specific gravity of Urine by Test strip</td><td>1.0</td><td>1.005 - 1.03</td><td>L</td><td>{nominal}</td></tr></table></div>"
        },
        "status": "final",
        "subject": {
          "reference": "urn:uuid:4e40301a-b4e8-4d09-92b7-3110f04b4032",
          "display": "Meaghan Neary"
        },
        "effectiveDateTime": "2024-09-16T22:11:04Z",
        "specimen": {
          "reference": "urn:uuid:9fb3ad7f-a94b-46ad-a7be-c4eddb49cb3d"
        }
      }
    },
    {
      "fullUrl": "urn:uuid:6b2a9ebd-26b2-41fd-9862-501b3dc18de1",
      "resource": {
        "resourceType": "Observation",
        "id": "6b2a9ebd-26b2-41fd-9862-501b3dc18de1",
        "meta": {
          "profile": [
            "http://hl7.eu/fhir/laboratory/StructureDefinition/Observation-resultslab-eu-lab"
          ]
        },
        "performer": [
          {
            "display": "The Central European Lab"
          }
        ],
        "category": [
          {
            "coding": [
              {
                "system": "http://terminology.hl7.org/CodeSystem/observation-category",
                "code": "laboratory"
              }
            ]
          }
        ],
        "code": {
          "coding": [
            {
              "code": "5803-2",
              "system": "http://loinc.org",
              "display": "pH of Urine by Test strip"
            }
          ],
          "text": "pH of Urine by Test strip"
        },
        "valueQuantity": {
          "system": "http://unitsofmeasure.org",
          "value": 5.2,
          "unit": "pH",
          "code": "pH"
        },
        "referenceRange": [
          {
            "low": {
              "value": 4.6,
              "code": "pH",
              "system": "http://unitsofmeasure.org"
            }
          },
          {
            "high": {
              "value": 7,
              "code": "pH",
              "system": "http://unitsofmeasure.org"
            }
          }
        ],
        "text": {
          "status": "generated",
          "div": "<div xmlns=\"http://www.w3.org/1999/xhtml\"><table class=\"hl7__eu__lab__report\"><tr><th>Test</th><th>17-Sep-2024</th><th>Reference&#xA0;Range</th><th>Unit</th></tr><tr><td>pH of Urine by Test strip</td><td>5.2</td><td>4.6 - 7</td><td></td><td>pH</td></tr></table></div>"
        },
        "status": "final",
        "subject": {
          "reference": "urn:uuid:4e40301a-b4e8-4d09-92b7-3110f04b4032",
          "display": "Meaghan Neary"
        },
        "effectiveDateTime": "2024-09-16T22:11:04Z",
        "specimen": {
          "reference": "urn:uuid:9fb3ad7f-a94b-46ad-a7be-c4eddb49cb3d"
        }
      }
    },
    {
      "fullUrl": "urn:uuid:d8108055-8653-4e5f-93ab-9b8ca059d62b",
      "resource": {
        "resourceType": "Observation",
        "id": "d8108055-8653-4e5f-93ab-9b8ca059d62b",
        "meta": {
          "profile": [
            "http://hl7.eu/fhir/laboratory/StructureDefinition/Observation-resultslab-eu-lab"
          ]
        },
        "performer": [
          {
            "display": "The Central European Lab"
          }
        ],
        "category": [
          {
            "coding": [
              {
                "system": "http://terminology.hl7.org/CodeSystem/observation-category",
                "code": "laboratory"
              }
            ]
          }
        ],
        "code": {
          "coding": [
            {
              "code": "5804-0",
              "system": "http://loinc.org",
              "display": "Protein [Mass/volume] in Urine by Test strip"
            }
          ],
          "text": "Protein [Mass/volume] in Urine by Test strip"
        },
        "valueQuantity": {
          "system": "http://unitsofmeasure.org",
          "value": 339.2,
          "unit": "mg/dL",
          "code": "mg/dL"
        },
        "referenceRange": [
          {
            "low": {
              "value": 0,
              "code": "mg/dL",
              "system": "http://unitsofmeasure.org"
            }
          },
          {
            "high": {
              "value": 14,
              "code": "mg/dL",
              "system": "http://unitsofmeasure.org"
            }
          }
        ],
        "interpretation": [
          {
            "coding": [
              {
                "code": "H",
                "system": "http://terminology.hl7.org/CodeSystem/v3-ObservationInterpretation",
                "display": "High"
              }
            ]
          }
        ],
        "text": {
          "status": "generated",
          "div": "<div xmlns=\"http://www.w3.org/1999/xhtml\"><table class=\"hl7__eu__lab__report\"><tr><th>Test</th><th>17-Sep-2024</th><th>Reference&#xA0;Range</th><th>Unit</th></tr><tr><td>Protein [Mass/volume] in Urine by Test strip</td><td>339.2</td><td>0 - 14</td><td>H</td><td>mg/dL</td></tr></table></div>"
        },
        "status": "final",
        "subject": {
          "reference": "urn:uuid:4e40301a-b4e8-4d09-92b7-3110f04b4032",
          "display": "Meaghan Neary"
        },
        "effectiveDateTime": "2024-09-16T22:11:04Z",
        "specimen": {
          "reference": "urn:uuid:9fb3ad7f-a94b-46ad-a7be-c4eddb49cb3d"
        }
      }
    },
    {
      "fullUrl": "urn:uuid:687f68df-e623-4bf3-82a2-1e08e1810896",
      "resource": {
        "resourceType": "Observation",
        "id": "687f68df-e623-4bf3-82a2-1e08e1810896",
        "meta": {
          "profile": [
            "http://hl7.eu/fhir/laboratory/StructureDefinition/Observation-resultslab-eu-lab"
          ]
        },
        "performer": [
          {
            "display": "The Central European Lab"
          }
        ],
        "category": [
          {
            "coding": [
              {
                "system": "http://terminology.hl7.org/CodeSystem/observation-category",
                "code": "laboratory"
              }
            ]
          }
        ],
        "code": {
          "coding": [
            {
              "code": "20454-5",
              "system": "http://loinc.org",
              "display": "Protein [Presence] in Urine by Test strip"
            }
          ],
          "text": "Protein [Presence] in Urine by Test strip"
        },
        "text": {
          "status": "generated",
          "div": "<div xmlns=\"http://www.w3.org/1999/xhtml\"><table class=\"hl7__eu__lab__report\"><tr><th>Test</th><th>17-Sep-2024</th><th>Reference&#xA0;Range</th><th>Unit</th></tr><tr><td>Protein [Presence] in Urine by Test strip</td></tr></table></div>"
        },
        "status": "final",
        "subject": {
          "reference": "urn:uuid:4e40301a-b4e8-4d09-92b7-3110f04b4032",
          "display": "Meaghan Neary"
        },
        "effectiveDateTime": "2024-09-16T22:11:04Z",
        "specimen": {
          "reference": "urn:uuid:9fb3ad7f-a94b-46ad-a7be-c4eddb49cb3d"
        }
      }
    },
    {
      "fullUrl": "urn:uuid:156395dd-9c6a-48c2-8dfb-a0ec036c6ef4",
      "resource": {
        "resourceType": "Observation",
        "id": "156395dd-9c6a-48c2-8dfb-a0ec036c6ef4",
        "meta": {
          "profile": [
            "http://hl7.eu/fhir/laboratory/StructureDefinition/Observation-resultslab-eu-lab"
          ]
        },
        "performer": [
          {
            "display": "The Central European Lab"
          }
        ],
        "category": [
          {
            "coding": [
              {
                "system": "http://terminology.hl7.org/CodeSystem/observation-category",
                "code": "laboratory"
              }
            ]
          }
        ],
        "code": {
          "coding": [
            {
              "code": "5802-4",
              "system": "http://loinc.org",
              "display": "Nitrite [Presence] in Urine by Test strip"
            }
          ],
          "text": "Nitrite [Presence] in Urine by Test strip"
        },
        "text": {
          "status": "generated",
          "div": "<div xmlns=\"http://www.w3.org/1999/xhtml\"><table class=\"hl7__eu__lab__report\"><tr><th>Test</th><th>17-Sep-2024</th><th>Reference&#xA0;Range</th><th>Unit</th></tr><tr><td>Nitrite [Presence] in Urine by Test strip</td></tr></table></div>"
        },
        "status": "final",
        "subject": {
          "reference": "urn:uuid:4e40301a-b4e8-4d09-92b7-3110f04b4032",
          "display": "Meaghan Neary"
        },
        "effectiveDateTime": "2024-09-16T22:11:04Z",
        "specimen": {
          "reference": "urn:uuid:9fb3ad7f-a94b-46ad-a7be-c4eddb49cb3d"
        }
      }
    },
    {
      "fullUrl": "urn:uuid:30ce30a7-3f58-435d-a6e8-732bfe717829",
      "resource": {
        "resourceType": "Observation",
        "id": "30ce30a7-3f58-435d-a6e8-732bfe717829",
        "meta": {
          "profile": [
            "http://hl7.eu/fhir/laboratory/StructureDefinition/Observation-resultslab-eu-lab"
          ]
        },
        "performer": [
          {
            "display": "The Central European Lab"
          }
        ],
        "category": [
          {
            "coding": [
              {
                "system": "http://terminology.hl7.org/CodeSystem/observation-category",
                "code": "laboratory"
              }
            ]
          }
        ],
        "code": {
          "coding": [
            {
              "code": "5794-3",
              "system": "http://loinc.org",
              "display": "Hemoglobin [Presence] in Urine by Test strip"
            }
          ],
          "text": "Hemoglobin [Presence] in Urine by Test strip"
        },
        "text": {
          "status": "generated",
          "div": "<div xmlns=\"http://www.w3.org/1999/xhtml\"><table class=\"hl7__eu__lab__report\"><tr><th>Test</th><th>17-Sep-2024</th><th>Reference&#xA0;Range</th><th>Unit</th></tr><tr><td>Hemoglobin [Presence] in Urine by Test strip</td></tr></table></div>"
        },
        "status": "final",
        "subject": {
          "reference": "urn:uuid:4e40301a-b4e8-4d09-92b7-3110f04b4032",
          "display": "Meaghan Neary"
        },
        "effectiveDateTime": "2024-09-16T22:11:04Z",
        "specimen": {
          "reference": "urn:uuid:9fb3ad7f-a94b-46ad-a7be-c4eddb49cb3d"
        }
      }
    },
    {
      "fullUrl": "urn:uuid:91cdd058-57cd-4025-bff4-cd258ba2afb2",
      "resource": {
        "resourceType": "Observation",
        "id": "91cdd058-57cd-4025-bff4-cd258ba2afb2",
        "meta": {
          "profile": [
            "http://hl7.eu/fhir/laboratory/StructureDefinition/Observation-resultslab-eu-lab"
          ]
        },
        "performer": [
          {
            "display": "The Central European Lab"
          }
        ],
        "category": [
          {
            "coding": [
              {
                "system": "http://terminology.hl7.org/CodeSystem/observation-category",
                "code": "laboratory"
              }
            ]
          }
        ],
        "code": {
          "coding": [
            {
              "code": "5799-2",
              "system": "http://loinc.org",
              "display": "Leukocyte esterase [Presence] in Urine by Test strip"
            }
          ],
          "text": "Leukocyte esterase [Presence] in Urine by Test strip"
        },
        "text": {
          "status": "generated",
          "div": "<div xmlns=\"http://www.w3.org/1999/xhtml\"><table class=\"hl7__eu__lab__report\"><tr><th>Test</th><th>17-Sep-2024</th><th>Reference&#xA0;Range</th><th>Unit</th></tr><tr><td>Leukocyte esterase [Presence] in Urine by Test strip</td></tr></table></div>"
        },
        "status": "final",
        "subject": {
          "reference": "urn:uuid:4e40301a-b4e8-4d09-92b7-3110f04b4032",
          "display": "Meaghan Neary"
        },
        "effectiveDateTime": "2024-09-16T22:11:04Z",
        "specimen": {
          "reference": "urn:uuid:9fb3ad7f-a94b-46ad-a7be-c4eddb49cb3d"
        }
      }
    },
    {
      "fullUrl": "urn:uuid:316d1c25-9ce8-47b9-a447-cad211e48c04",
      "resource": {
        "resourceType": "Observation",
        "id": "316d1c25-9ce8-47b9-a447-cad211e48c04",
        "meta": {
          "profile": [
            "http://hl7.eu/fhir/laboratory/StructureDefinition/Observation-resultslab-eu-lab"
          ]
        },
        "performer": [
          {
            "display": "The Central European Lab"
          }
        ],
        "category": [
          {
            "coding": [
              {
                "system": "http://terminology.hl7.org/CodeSystem/observation-category",
                "code": "laboratory"
              }
            ]
          }
        ],
        "code": {
          "coding": [
            {
              "code": "4548-4",
              "system": "http://loinc.org",
              "display": "Hemoglobin A1c/Hemoglobin.total in Blood"
            }
          ],
          "text": "Hemoglobin A1c/Hemoglobin.total in Blood"
        },
        "valueQuantity": {
          "system": "http://unitsofmeasure.org",
          "value": 4,
          "unit": "%",
          "code": "%"
        },
        "referenceRange": [
          {
            "low": {
              "value": 4,
              "code": "%",
              "system": "http://unitsofmeasure.org"
            }
          },
          {
            "high": {
              "value": 6.4,
              "code": "%",
              "system": "http://unitsofmeasure.org"
            }
          }
        ],
        "text": {
          "status": "generated",
          "div": "<div xmlns=\"http://www.w3.org/1999/xhtml\"><table class=\"hl7__eu__lab__report\"><tr><th>Test</th><th>17-Sep-2024</th><th>Reference&#xA0;Range</th><th>Unit</th></tr><tr><td>Hemoglobin A1c/Hemoglobin.total in Blood</td><td>4.0</td><td>4 - 6.4</td><td></td><td>%</td></tr></table></div>"
        },
        "status": "final",
        "subject": {
          "reference": "urn:uuid:4e40301a-b4e8-4d09-92b7-3110f04b4032",
          "display": "Meaghan Neary"
        },
        "effectiveDateTime": "2024-09-16T22:11:04Z",
        "specimen": {
          "reference": "urn:uuid:b83fcc6e-a1c5-4a12-94a1-fe4f36ba774e"
        }
      }
    },
    {
      "fullUrl": "urn:uuid:6907296f-2f43-4188-812b-66fed63e9d41",
      "resource": {
        "resourceType": "Observation",
        "id": "6907296f-2f43-4188-812b-66fed63e9d41",
        "meta": {
          "profile": [
            "http://hl7.eu/fhir/laboratory/StructureDefinition/Observation-resultslab-eu-lab"
          ]
        },
        "performer": [
          {
            "display": "The Central European Lab"
          }
        ],
        "category": [
          {
            "coding": [
              {
                "system": "http://terminology.hl7.org/CodeSystem/observation-category",
                "code": "laboratory"
              }
            ]
          }
        ],
        "code": {
          "coding": [
            {
              "code": "2339-0",
              "system": "http://loinc.org",
              "display": "Glucose [Mass/volume] in Blood"
            }
          ],
          "text": "Glucose [Mass/volume] in Blood"
        },
        "valueQuantity": {
          "system": "http://unitsofmeasure.org",
          "value": 71.5,
          "unit": "mg/dL",
          "code": "mg/dL"
        },
        "referenceRange": [
          {
            "low": {
              "value": 70,
              "code": "mg/dL",
              "system": "http://unitsofmeasure.org"
            }
          },
          {
            "high": {
              "value": 100,
              "code": "mg/dL",
              "system": "http://unitsofmeasure.org"
            }
          }
        ],
        "text": {
          "status": "generated",
          "div": "<div xmlns=\"http://www.w3.org/1999/xhtml\"><table class=\"hl7__eu__lab__report\"><tr><th>Test</th><th>17-Sep-2024</th><th>Reference&#xA0;Range</th><th>Unit</th></tr><tr><td>Glucose [Mass/volume] in Blood</td><td>71.5</td><td>70 - 100</td><td></td><td>mg/dL</td></tr></table></div>"
        },
        "status": "final",
        "subject": {
          "reference": "urn:uuid:4e40301a-b4e8-4d09-92b7-3110f04b4032",
          "display": "Meaghan Neary"
        },
        "effectiveDateTime": "2024-09-16T22:11:04Z",
        "specimen": {
          "reference": "urn:uuid:b83fcc6e-a1c5-4a12-94a1-fe4f36ba774e"
        }
      }
    },
    {
      "fullUrl": "urn:uuid:c5da98dd-3804-48b7-abb6-e4f4aafbc47d",
      "resource": {
        "resourceType": "Observation",
        "id": "c5da98dd-3804-48b7-abb6-e4f4aafbc47d",
        "meta": {
          "profile": [
            "http://hl7.eu/fhir/laboratory/StructureDefinition/Observation-resultslab-eu-lab"
          ]
        },
        "performer": [
          {
            "display": "The Central European Lab"
          }
        ],
        "category": [
          {
            "coding": [
              {
                "system": "http://terminology.hl7.org/CodeSystem/observation-category",
                "code": "laboratory"
              }
            ]
          }
        ],
        "code": {
          "coding": [
            {
              "code": "6299-2",
              "system": "http://loinc.org",
              "display": "Urea nitrogen [Mass/volume] in Blood"
            }
          ],
          "text": "Urea nitrogen [Mass/volume] in Blood"
        },
        "valueQuantity": {
          "system": "http://unitsofmeasure.org",
          "value": 16.6,
          "unit": "mg/dL",
          "code": "mg/dL"
        },
        "referenceRange": [
          {
            "low": {
              "value": 7,
              "code": "mg/dL",
              "system": "http://unitsofmeasure.org"
            }
          },
          {
            "high": {
              "value": 43,
              "code": "mg/dL",
              "system": "http://unitsofmeasure.org"
            }
          }
        ],
        "text": {
          "status": "generated",
          "div": "<div xmlns=\"http://www.w3.org/1999/xhtml\"><table class=\"hl7__eu__lab__report\"><tr><th>Test</th><th>17-Sep-2024</th><th>Reference&#xA0;Range</th><th>Unit</th></tr><tr><td>Urea nitrogen [Mass/volume] in Blood</td><td>16.6</td><td>7 - 43</td><td></td><td>mg/dL</td></tr></table></div>"
        },
        "status": "final",
        "subject": {
          "reference": "urn:uuid:4e40301a-b4e8-4d09-92b7-3110f04b4032",
          "display": "Meaghan Neary"
        },
        "effectiveDateTime": "2024-09-16T22:11:04Z",
        "specimen": {
          "reference": "urn:uuid:b83fcc6e-a1c5-4a12-94a1-fe4f36ba774e"
        }
      }
    },
    {
      "fullUrl": "urn:uuid:70b30656-c0dc-415e-9af4-d8868c022a1d",
      "resource": {
        "resourceType": "Observation",
        "id": "70b30656-c0dc-415e-9af4-d8868c022a1d",
        "meta": {
          "profile": [
            "http://hl7.eu/fhir/laboratory/StructureDefinition/Observation-resultslab-eu-lab"
          ]
        },
        "performer": [
          {
            "display": "The Central European Lab"
          }
        ],
        "category": [
          {
            "coding": [
              {
                "system": "http://terminology.hl7.org/CodeSystem/observation-category",
                "code": "laboratory"
              }
            ]
          }
        ],
        "code": {
          "coding": [
            {
              "code": "38483-4",
              "system": "http://loinc.org",
              "display": "Creatinine [Mass/volume] in Blood"
            }
          ],
          "text": "Creatinine [Mass/volume] in Blood"
        },
        "valueQuantity": {
          "system": "http://unitsofmeasure.org",
          "value": 3,
          "unit": "mg/dL",
          "code": "mg/dL"
        },
        "referenceRange": [
          {
            "low": {
              "value": 0.6,
              "code": "mg/dL",
              "system": "http://unitsofmeasure.org"
            }
          },
          {
            "high": {
              "value": 1.1,
              "code": "mg/dL",
              "system": "http://unitsofmeasure.org"
            }
          }
        ],
        "interpretation": [
          {
            "coding": [
              {
                "code": "H",
                "system": "http://terminology.hl7.org/CodeSystem/v3-ObservationInterpretation",
                "display": "High"
              }
            ]
          }
        ],
        "text": {
          "status": "generated",
          "div": "<div xmlns=\"http://www.w3.org/1999/xhtml\"><table class=\"hl7__eu__lab__report\"><tr><th>Test</th><th>17-Sep-2024</th><th>Reference&#xA0;Range</th><th>Unit</th></tr><tr><td>Creatinine [Mass/volume] in Blood</td><td>3.0</td><td>0.6 - 1.1</td><td>H</td><td>mg/dL</td></tr></table></div>"
        },
        "status": "final",
        "subject": {
          "reference": "urn:uuid:4e40301a-b4e8-4d09-92b7-3110f04b4032",
          "display": "Meaghan Neary"
        },
        "effectiveDateTime": "2024-09-16T22:11:04Z",
        "specimen": {
          "reference": "urn:uuid:b83fcc6e-a1c5-4a12-94a1-fe4f36ba774e"
        }
      }
    },
    {
      "fullUrl": "urn:uuid:7fda80fe-8fa9-425b-8eed-05d0341d8d0b",
      "resource": {
        "resourceType": "Observation",
        "id": "7fda80fe-8fa9-425b-8eed-05d0341d8d0b",
        "meta": {
          "profile": [
            "http://hl7.eu/fhir/laboratory/StructureDefinition/Observation-resultslab-eu-lab"
          ]
        },
        "performer": [
          {
            "display": "The Central European Lab"
          }
        ],
        "category": [
          {
            "coding": [
              {
                "system": "http://terminology.hl7.org/CodeSystem/observation-category",
                "code": "laboratory"
              }
            ]
          }
        ],
        "code": {
          "coding": [
            {
              "code": "49765-1",
              "system": "http://loinc.org",
              "display": "Calcium [Mass/volume] in Blood"
            }
          ],
          "text": "Calcium [Mass/volume] in Blood"
        },
        "valueQuantity": {
          "system": "http://unitsofmeasure.org",
          "value": 8.7,
          "unit": "mg/dL",
          "code": "mg/dL"
        },
        "referenceRange": [
          {
            "low": {
              "value": 8.5,
              "code": "mg/dL",
              "system": "http://unitsofmeasure.org"
            }
          },
          {
            "high": {
              "value": 10.5,
              "code": "mg/dL",
              "system": "http://unitsofmeasure.org"
            }
          }
        ],
        "text": {
          "status": "generated",
          "div": "<div xmlns=\"http://www.w3.org/1999/xhtml\"><table class=\"hl7__eu__lab__report\"><tr><th>Test</th><th>17-Sep-2024</th><th>Reference&#xA0;Range</th><th>Unit</th></tr><tr><td>Calcium [Mass/volume] in Blood</td><td>8.7</td><td>8.5 - 10.5</td><td></td><td>mg/dL</td></tr></table></div>"
        },
        "status": "final",
        "subject": {
          "reference": "urn:uuid:4e40301a-b4e8-4d09-92b7-3110f04b4032",
          "display": "Meaghan Neary"
        },
        "effectiveDateTime": "2024-09-16T22:11:04Z",
        "specimen": {
          "reference": "urn:uuid:b83fcc6e-a1c5-4a12-94a1-fe4f36ba774e"
        }
      }
    },
    {
      "fullUrl": "urn:uuid:74562f7d-c87e-4fda-a58e-1f922788a320",
      "resource": {
        "resourceType": "Observation",
        "id": "74562f7d-c87e-4fda-a58e-1f922788a320",
        "meta": {
          "profile": [
            "http://hl7.eu/fhir/laboratory/StructureDefinition/Observation-resultslab-eu-lab"
          ]
        },
        "performer": [
          {
            "display": "The Central European Lab"
          }
        ],
        "category": [
          {
            "coding": [
              {
                "system": "http://terminology.hl7.org/CodeSystem/observation-category",
                "code": "laboratory"
              }
            ]
          }
        ],
        "code": {
          "coding": [
            {
              "code": "2947-0",
              "system": "http://loinc.org",
              "display": "Sodium [Moles/volume] in Blood"
            }
          ],
          "text": "Sodium [Moles/volume] in Blood"
        },
        "valueQuantity": {
          "system": "http://unitsofmeasure.org",
          "value": 137,
          "unit": "mmol/L",
          "code": "mmol/L"
        },
        "referenceRange": [
          {
            "low": {
              "value": 135,
              "code": "mmol/L",
              "system": "http://unitsofmeasure.org"
            }
          },
          {
            "high": {
              "value": 145,
              "code": "mmol/L",
              "system": "http://unitsofmeasure.org"
            }
          }
        ],
        "text": {
          "status": "generated",
          "div": "<div xmlns=\"http://www.w3.org/1999/xhtml\"><table class=\"hl7__eu__lab__report\"><tr><th>Test</th><th>17-Sep-2024</th><th>Reference&#xA0;Range</th><th>Unit</th></tr><tr><td>Sodium [Moles/volume] in Blood</td><td>137.0</td><td>135 - 145</td><td></td><td>mmol/L</td></tr></table></div>"
        },
        "status": "final",
        "subject": {
          "reference": "urn:uuid:4e40301a-b4e8-4d09-92b7-3110f04b4032",
          "display": "Meaghan Neary"
        },
        "effectiveDateTime": "2024-09-16T22:11:04Z",
        "specimen": {
          "reference": "urn:uuid:b83fcc6e-a1c5-4a12-94a1-fe4f36ba774e"
        }
      }
    },
    {
      "fullUrl": "urn:uuid:8f8ea56e-b3e6-4a36-9968-7da68fd20af6",
      "resource": {
        "resourceType": "Observation",
        "id": "8f8ea56e-b3e6-4a36-9968-7da68fd20af6",
        "meta": {
          "profile": [
            "http://hl7.eu/fhir/laboratory/StructureDefinition/Observation-resultslab-eu-lab"
          ]
        },
        "performer": [
          {
            "display": "The Central European Lab"
          }
        ],
        "category": [
          {
            "coding": [
              {
                "system": "http://terminology.hl7.org/CodeSystem/observation-category",
                "code": "laboratory"
              }
            ]
          }
        ],
        "code": {
          "coding": [
            {
              "code": "6298-4",
              "system": "http://loinc.org",
              "display": "Potassium [Moles/volume] in Blood"
            }
          ],
          "text": "Potassium [Moles/volume] in Blood"
        },
        "valueQuantity": {
          "system": "http://unitsofmeasure.org",
          "value": 4.7,
          "unit": "mmol/L",
          "code": "mmol/L"
        },
        "referenceRange": [
          {
            "low": {
              "value": 3.5,
              "code": "mmol/L",
              "system": "http://unitsofmeasure.org"
            }
          },
          {
            "high": {
              "value": 5.1,
              "code": "mmol/L",
              "system": "http://unitsofmeasure.org"
            }
          }
        ],
        "text": {
          "status": "generated",
          "div": "<div xmlns=\"http://www.w3.org/1999/xhtml\"><table class=\"hl7__eu__lab__report\"><tr><th>Test</th><th>17-Sep-2024</th><th>Reference&#xA0;Range</th><th>Unit</th></tr><tr><td>Potassium [Moles/volume] in Blood</td><td>4.7</td><td>3.5 - 5.1</td><td></td><td>mmol/L</td></tr></table></div>"
        },
        "status": "final",
        "subject": {
          "reference": "urn:uuid:4e40301a-b4e8-4d09-92b7-3110f04b4032",
          "display": "Meaghan Neary"
        },
        "effectiveDateTime": "2024-09-16T22:11:04Z",
        "specimen": {
          "reference": "urn:uuid:b83fcc6e-a1c5-4a12-94a1-fe4f36ba774e"
        }
      }
    },
    {
      "fullUrl": "urn:uuid:95102e63-1833-4602-99ba-62e34ed98f0b",
      "resource": {
        "resourceType": "Observation",
        "id": "95102e63-1833-4602-99ba-62e34ed98f0b",
        "meta": {
          "profile": [
            "http://hl7.eu/fhir/laboratory/StructureDefinition/Observation-resultslab-eu-lab"
          ]
        },
        "performer": [
          {
            "display": "The Central European Lab"
          }
        ],
        "category": [
          {
            "coding": [
              {
                "system": "http://terminology.hl7.org/CodeSystem/observation-category",
                "code": "laboratory"
              }
            ]
          }
        ],
        "code": {
          "coding": [
            {
              "code": "2069-3",
              "system": "http://loinc.org",
              "display": "Chloride [Moles/volume] in Blood"
            }
          ],
          "text": "Chloride [Moles/volume] in Blood"
        },
        "valueQuantity": {
          "system": "http://unitsofmeasure.org",
          "value": 110,
          "unit": "mmol/L",
          "code": "mmol/L"
        },
        "referenceRange": [
          {
            "low": {
              "value": 98,
              "code": "mmol/L",
              "system": "http://unitsofmeasure.org"
            }
          },
          {
            "high": {
              "value": 108,
              "code": "mmol/L",
              "system": "http://unitsofmeasure.org"
            }
          }
        ],
        "interpretation": [
          {
            "coding": [
              {
                "code": "H",
                "system": "http://terminology.hl7.org/CodeSystem/v3-ObservationInterpretation",
                "display": "High"
              }
            ]
          }
        ],
        "text": {
          "status": "generated",
          "div": "<div xmlns=\"http://www.w3.org/1999/xhtml\"><table class=\"hl7__eu__lab__report\"><tr><th>Test</th><th>17-Sep-2024</th><th>Reference&#xA0;Range</th><th>Unit</th></tr><tr><td>Chloride [Moles/volume] in Blood</td><td>110.0</td><td>98 - 108</td><td>H</td><td>mmol/L</td></tr></table></div>"
        },
        "status": "final",
        "subject": {
          "reference": "urn:uuid:4e40301a-b4e8-4d09-92b7-3110f04b4032",
          "display": "Meaghan Neary"
        },
        "effectiveDateTime": "2024-09-16T22:11:04Z",
        "specimen": {
          "reference": "urn:uuid:b83fcc6e-a1c5-4a12-94a1-fe4f36ba774e"
        }
      }
    },
    {
      "fullUrl": "urn:uuid:69beaf52-8971-4a43-a606-4467591f18c9",
      "resource": {
        "resourceType": "Observation",
        "id": "69beaf52-8971-4a43-a606-4467591f18c9",
        "meta": {
          "profile": [
            "http://hl7.eu/fhir/laboratory/StructureDefinition/Observation-resultslab-eu-lab"
          ]
        },
        "performer": [
          {
            "display": "The Central European Lab"
          }
        ],
        "category": [
          {
            "coding": [
              {
                "system": "http://terminology.hl7.org/CodeSystem/observation-category",
                "code": "laboratory"
              }
            ]
          }
        ],
        "code": {
          "coding": [
            {
              "code": "20565-8",
              "system": "http://loinc.org",
              "display": "Carbon dioxide, total [Moles/volume] in Blood"
            }
          ],
          "text": "Carbon dioxide, total [Moles/volume] in Blood"
        },
        "valueQuantity": {
          "system": "http://unitsofmeasure.org",
          "value": 24.6,
          "unit": "mmol/L",
          "code": "mmol/L"
        },
        "referenceRange": [
          {
            "low": {
              "value": 22,
              "code": "mmol/L",
              "system": "http://unitsofmeasure.org"
            }
          },
          {
            "high": {
              "value": 29,
              "code": "mmol/L",
              "system": "http://unitsofmeasure.org"
            }
          }
        ],
        "text": {
          "status": "generated",
          "div": "<div xmlns=\"http://www.w3.org/1999/xhtml\"><table class=\"hl7__eu__lab__report\"><tr><th>Test</th><th>17-Sep-2024</th><th>Reference&#xA0;Range</th><th>Unit</th></tr><tr><td>Carbon dioxide, total [Moles/volume] in Blood</td><td>24.6</td><td>22 - 29</td><td></td><td>mmol/L</td></tr></table></div>"
        },
        "status": "final",
        "subject": {
          "reference": "urn:uuid:4e40301a-b4e8-4d09-92b7-3110f04b4032",
          "display": "Meaghan Neary"
        },
        "effectiveDateTime": "2024-09-16T22:11:04Z",
        "specimen": {
          "reference": "urn:uuid:b83fcc6e-a1c5-4a12-94a1-fe4f36ba774e"
        }
      }
    },
    {
      "fullUrl": "urn:uuid:3f21f8ea-5424-4275-8e87-b27c279bd093",
      "resource": {
        "resourceType": "Device",
        "id": "3f21f8ea-5424-4275-8e87-b27c279bd093",
        "deviceName": [
          {
            "name": "SYNDERAI Synthetic Generator",
            "type": "manufacturer-name"
          }
        ],
        "version": [
          {
            "value": "5.0"
          }
        ],
        "text": {
          "status": "generated",
          "div": "<div xmlns=\"http://www.w3.org/1999/xhtml\">SYNDERAI Synthetic Generator v5.0</div>"
        },
        "status": "active\"",
        "distinctIdentifier": "synderai-generator-50",
        "manufacturer": "SYNDERAI Project"
      }
    },
    {
      "fullUrl": "urn:uuid:05a0b22f-ed11-47cf-a907-536b1b9b99d8",
      "resource": {
        "resourceType": "Provenance",
        "id": "05a0b22f-ed11-47cf-a907-536b1b9b99d8",
        "target": [
          {
            "reference": "Patient/4e40301a-b4e8-4d09-92b7-3110f04b4032"
          },
          {
            "reference": "Bundle/461817ba-d6d4-4016-9bb2-6a0c0c8dfc1a"
          },
          {
            "reference": "Composition/647d5486-4372-4bc1-965f-c81263d01d0e"
          },
          {
            "reference": "PractitionerRole/8fc5ad63-5f09-4d7d-a179-060d641f2b3a"
          },
          {
            "reference": "Practitioner/271529da-f7a6-4290-8f75-6a7fa69d70da"
          },
          {
            "reference": "PractitionerRole/823f75ac-89b4-4b5d-ad34-1e1ae7a9ec54"
          },
          {
            "reference": "Organization/704faa92-a1eb-48db-902b-d169b5f0d171"
          }
        ],
        "activity": {
          "text": "Synthetic Example Data Generation"
        },
        "policy": [
          "https://synderai.net/synderai-synthetic-data-policy"
        ],
        "agent": [
          {
            "type": {
              "text": "author"
            },
            "who": {
              "reference": "Device/3f21f8ea-5424-4275-8e87-b27c279bd093"
            }
          }
        ],
        "reason": [
          {
            "text": "Interoperability Testing and Training (non-clinical use)"
          }
        ],
        "text": {
          "status": "generated",
          "div": "<div xmlns=\"http://www.w3.org/1999/xhtml\">Provenance for SYNDERAI Synthetic Example Data Resource</div>"
        },
        "recorded": "2024-09-17T00:11:04Z"
      }
    },
    {
      "fullUrl": "urn:uuid:8fc5ad63-5f09-4d7d-a179-060d641f2b3a",
      "resource": {
        "resourceType": "PractitionerRole",
        "id": "8fc5ad63-5f09-4d7d-a179-060d641f2b3a",
        "meta": {
          "profile": [
            "http://hl7.eu/fhir/base/StructureDefinition/practitionerRole-eu"
          ]
        },
        "text": {
          "status": "generated",
          "div": "<div xmlns=\"http://www.w3.org/1999/xhtml\">Laboratory Role Id: 8fc5ad63-5f09-4d7d-a179-060d641f2b3a</div>"
        },
        "practitioner": {
          "reference": "urn:uuid:271529da-f7a6-4290-8f75-6a7fa69d70da"
        }
      }
    },
    {
      "fullUrl": "urn:uuid:271529da-f7a6-4290-8f75-6a7fa69d70da",
      "resource": {
        "resourceType": "Practitioner",
        "id": "271529da-f7a6-4290-8f75-6a7fa69d70da",
        "meta": {
          "profile": [
            "http://hl7.eu/fhir/base/StructureDefinition/practitioner-eu"
          ]
        },
        "identifier": [
          {
            "assigner": {
              "display": "HL7 Europe"
            },
            "system": "urn:oid:2.16.840.1.113883.2.51.999",
            "value": "67c0c1cc-f650-415f-be28-d4d86ebd1886"
          }
        ],
        "name": [
          {
            "prefix": [
              "dr"
            ],
            "given": [
              "Ex"
            ],
            "family": "Ample"
          }
        ],
        "address": [
          {
            "line": [
              "Laboratoire Central Européenne",
              "Boulevard du Jardin Botanique 32"
            ],
            "postalCode": "1000",
            "city": "Brussels",
            "country": "Belgium"
          }
        ],
        "text": {
          "status": "generated",
          "div": "<div xmlns=\"http://www.w3.org/1999/xhtml\">Laboratory: Laboratoire Central Européenne, 1000 Brussels, Belgium</div>"
        }
      }
    }
  ],
  "type": "document",
  "timestamp": "2024-09-17T00:11:04Z"
}
