{
  "resourceType": "Bundle",
  "id": "e1ed6f37-b357-4f12-b0a8-146943328b4e",
  "meta": {
    "profile": [
      "http://hl7.eu/fhir/laboratory/StructureDefinition/Bundle-eu-lab"
    ]
  },
  "identifier": {
    "assigner": {
      "display": "HL7 Europe"
    },
    "system": "urn:oid:2.16.840.1.113883.2.51.999",
    "value": "db91ba87-3068-4822-af21-5d3ae683e041"
  },
  "entry": [
    {
      "fullUrl": "urn:uuid:23dd3516-1363-4213-981c-98c95068cc81",
      "resource": {
        "resourceType": "Composition",
        "id": "23dd3516-1363-4213-981c-98c95068cc81",
        "meta": {
          "profile": [
            "http://hl7.eu/fhir/laboratory/StructureDefinition/Composition-eu-lab"
          ]
        },
        "identifier": {
          "assigner": {
            "display": "HL7 Europe"
          },
          "system": "urn:oid:2.16.840.1.113883.2.51.999",
          "value": "52c6dd5b-0bbb-4c64-be3f-63c8651e1f12"
        },
        "author": [
          {
            "reference": "urn:uuid:f3013e0a-47d7-46d8-8d2d-690a410f8108"
          }
        ],
        "category": [
          {
            "coding": [
              {
                "code": "26436-6",
                "system": "http://loinc.org",
                "display": "Laboratory studies (set)"
              }
            ]
          }
        ],
        "type": {
          "coding": [
            {
              "code": "11502-2",
              "system": "http://loinc.org",
              "display": "Laboratory report"
            }
          ],
          "text": "Laboratory Report"
        },
        "section": [
          {
            "code": {
              "coding": [
                {
                  "code": "26436-6",
                  "system": "http://loinc.org",
                  "display": "Laboratory studies (set)"
                }
              ],
              "text": "Laboratory studies"
            },
            "section": [
              {
                "code": {
                  "coding": [
                    {
                      "code": "$18719-5",
                      "system": "http://loinc.org",
                      "display": "Chemistry studies (set)"
                    }
                  ],
                  "text": "Chemistry"
                },
                "entry": [
                  {
                    "reference": "urn:uuid:7043b6db-9c50-4068-a019-79a633e67f37"
                  }
                ],
                "text": {
                  "status": "generated",
                  "div": "<div xmlns=\"http://www.w3.org/1999/xhtml\"><h3>Chemistry</h3><table class=\"hl7__eu__lab__report\"><thead><tr><th>Test</th><th>31-JAN-2022</th><th>Reference&#xA0;Range</th><th>Unit</th></tr></thead><tbody><tr><td>Hemoglobin A1c/Hemoglobin.total in Blood</td><td>6.0</td><td>4 - 6</td><td>%</td></tr></tbody></table></div>"
                },
                "title": "Chemistry"
              }
            ],
            "title": "Laboratory Report"
          },
          {
            "text": {
              "status": "generated",
              "div": "<div xmlns=\"http://www.w3.org/1999/xhtml\"><h3>Annotation</h3><table class=\"hl7__eu__lab__report\"><tr><th>Conclusion and Recommendations based on this report and previous findings known to us</th></tr><tr><td>Hemoglobin A1c is at the upper limit of normal, indicating good but borderline glycemic control. Continued monitoring and lifestyle management are recommended to prevent progression to diabetes. No other abnormalities detected.</td></tr></table></div>"
            },
            "code": {
              "coding": [
                {
                  "system": "http://loinc.org",
                  "code": "48767-8",
                  "display": "Annotation comment"
                }
              ]
            },
            "title": "Annotation comment"
          }
        ],
        "status": "final",
        "subject": {
          "reference": "urn:uuid:b55128cf-2030-49ac-988b-7d74abb6a5b2",
          "display": "Alessio Fanucci"
        },
        "date": "2022-01-31T08:49:06Z",
        "title": "Laboratory Report",
        "confidentiality": "N"
      }
    },
    {
      "fullUrl": "urn:uuid:b3613f28-fe21-43a7-bc35-d396332024a2",
      "resource": {
        "resourceType": "DiagnosticReport",
        "id": "b3613f28-fe21-43a7-bc35-d396332024a2",
        "meta": {
          "profile": [
            "http://hl7.eu/fhir/laboratory/StructureDefinition/DiagnosticReport-eu-lab"
          ]
        },
        "identifier": [
          {
            "assigner": {
              "display": "HL7 Europe"
            },
            "system": "urn:oid:2.16.840.1.113883.2.51.999",
            "value": "e88a00e1-d0f3-42ca-a1c0-de5d7adc8a12"
          }
        ],
        "extension": [
          {
            "url": "http://hl7.org/fhir/5.0/StructureDefinition/extension-DiagnosticReport.composition",
            "valueReference": {
              "reference": "urn:uuid:52c6dd5b-0bbb-4c64-be3f-63c8651e1f12"
            }
          }
        ],
        "category": [
          {
            "coding": [
              {
                "code": "26436-6",
                "system": "http://loinc.org",
                "display": "Laboratory studies (set)"
              }
            ]
          }
        ],
        "specimen": [
          {
            "reference": "urn:uuid:98b7a3cf-f3cb-46b9-a088-73fa4b642e04"
          }
        ],
        "result": [
          {
            "reference": "urn:uuid:7043b6db-9c50-4068-a019-79a633e67f37"
          }
        ],
        "status": "registered",
        "code": {
          "coding": [
            {
              "code": "11502-2",
              "system": "http://loinc.org",
              "display": "Laboratory report"
            }
          ]
        },
        "subject": {
          "reference": "urn:uuid:b55128cf-2030-49ac-988b-7d74abb6a5b2",
          "display": "Alessio Fanucci"
        }
      }
    },
    {
      "fullUrl": "urn:uuid:b55128cf-2030-49ac-988b-7d74abb6a5b2",
      "resource": {
        "resourceType": "Patient",
        "id": "b55128cf-2030-49ac-988b-7d74abb6a5b2",
        "meta": {
          "security": [
            {
              "system": "http://terminology.hl7.org/CodeSystem/v3-ActReason",
              "code": "HTEST"
            },
            {
              "system": "http://terminology.hl7.org/CodeSystem/v3-ActReason",
              "code": "TRAIN"
            }
          ],
          "tag": [
            {
              "system": "https://synderai.net/fhir/CodeSystem/tags",
              "code": "synthetic",
              "display": "SYNDERAI Synthetic data"
            }
          ],
          "profile": [
            "http://hl7.eu/fhir/base/StructureDefinition/patient-eu-core"
          ]
        },
        "identifier": [
          {
            "type": {
              "coding": [
                {
                  "code": "PT",
                  "system": "http://terminology.hl7.org/CodeSystem/v2-0203"
                }
              ]
            },
            "system": "http://ec.europa.eu/identifier/eci",
            "value": "4754-874768-3"
          },
          {
            "type": {
              "coding": [
                {
                  "code": "MR",
                  "system": "http://terminology.hl7.org/CodeSystem/v2-0203"
                }
              ]
            },
            "system": "http://local.setting.eu/identifier",
            "value": "4b888823-bdd8-59a3-b785-e7ba28e6a7b5"
          }
        ],
        "name": [
          {
            "family": "Fanucci"
          },
          {
            "given": [
              "Alessio"
            ]
          },
          {
            "text": "Alessio Fanucci"
          }
        ],
        "address": [
          {
            "line": [
              "Incrocio Combi, 822"
            ],
            "use": "home",
            "type": "physical",
            "postalCode": "33015",
            "city": "Moggio Udinese",
            "country": "Italy"
          }
        ],
        "telecom": [
          {
            "system": "phone",
            "value": "0125684636"
          }
        ],
        "extension": [
          {
            "url": "http://hl7.org/fhir/StructureDefinition/patient-nationality",
            "valueCodeableConcept": {
              "coding": [
                {
                  "code": "IT",
                  "system": "http://hl7.org/fhir/ValueSet/country"
                }
              ]
            }
          }
        ],
        "text": {
          "status": "generated",
          "div": "<div xmlns=\"http://www.w3.org/1999/xhtml\"><table class=\"hl7__ips\"><tr><td>Alessio Fanucci</td><td>male</td><td>12-Sep-1964</td></tr></table></div>"
        },
        "gender": "male",
        "birthDate": "1964-09-12"
      }
    },
    {
      "fullUrl": "urn:uuid:665ff630-9639-46c7-8cea-2de1428784e3",
      "resource": {
        "resourceType": "ServiceRequest",
        "id": "665ff630-9639-46c7-8cea-2de1428784e3",
        "meta": {
          "profile": [
            "http://hl7.eu/fhir/laboratory/StructureDefinition/ServiceRequest-eu-lab"
          ]
        },
        "identifier": [
          {
            "system": "http://example.org",
            "value": "209c4eb0-f4f9-44c5-b3da-38f7e95b3368"
          }
        ],
        "specimen": [
          {
            "reference": "urn:uuid:98b7a3cf-f3cb-46b9-a088-73fa4b642e04"
          }
        ],
        "reasonCode": [
          {
            "coding": [
              {
                "code": "15777000",
                "system": "http://snomed.info/sct",
                "display": "Prediabetes"
              }
            ]
          },
          {
            "coding": [
              {
                "code": "271737000",
                "system": "http://snomed.info/sct",
                "display": "Anemia"
              }
            ]
          },
          {
            "coding": [
              {
                "code": "40055000",
                "system": "http://snomed.info/sct",
                "display": "Chronic sinusitis"
              }
            ]
          }
        ],
        "status": "active",
        "intent": "order",
        "code": {
          "coding": [
            {
              "code": "108252007",
              "system": "http://snomed.info/sct",
              "display": "Laboratory procedure"
            }
          ]
        },
        "subject": {
          "reference": "urn:uuid:b55128cf-2030-49ac-988b-7d74abb6a5b2",
          "display": "Alessio Fanucci"
        },
        "requester": {
          "reference": "urn:uuid:de126a54-6fa2-4c7b-b359-b1cf52c35a53"
        }
      }
    },
    {
      "fullUrl": "urn:uuid:de126a54-6fa2-4c7b-b359-b1cf52c35a53",
      "resource": {
        "resourceType": "PractitionerRole",
        "id": "de126a54-6fa2-4c7b-b359-b1cf52c35a53",
        "meta": {
          "profile": [
            "http://hl7.eu/fhir/base/StructureDefinition/practitionerRole-eu"
          ]
        },
        "text": {
          "status": "generated",
          "div": "<div xmlns=\"http://www.w3.org/1999/xhtml\">Provider Role Id: de126a54-6fa2-4c7b-b359-b1cf52c35a53</div>"
        },
        "organization": {
          "reference": "urn:uuid:980df7f6-5703-43df-9fd8-d026f2d07315"
        }
      }
    },
    {
      "fullUrl": "urn:uuid:980df7f6-5703-43df-9fd8-d026f2d07315",
      "resource": {
        "resourceType": "Organization",
        "id": "980df7f6-5703-43df-9fd8-d026f2d07315",
        "meta": {
          "profile": [
            "http://hl7.eu/fhir/base/StructureDefinition/organization-eu"
          ]
        },
        "identifier": [
          {
            "assigner": {
              "display": "HL7 Europe"
            },
            "system": "urn:oid:2.16.840.1.113883.2.51.999",
            "value": "222b8040-f94d-44ad-aba3-b1e0af80d35e"
          }
        ],
        "address": [
          {
            "city": "Artegna",
            "postalCode": "33011",
            "country": "Italy"
          }
        ],
        "text": {
          "status": "generated",
          "div": "<div xmlns=\"http://www.w3.org/1999/xhtml\">Provider Organization: Ambulatori</div>"
        },
        "name": "Ambulatori"
      }
    },
    {
      "fullUrl": "urn:uuid:98b7a3cf-f3cb-46b9-a088-73fa4b642e04",
      "resource": {
        "resourceType": "Specimen",
        "id": "98b7a3cf-f3cb-46b9-a088-73fa4b642e04",
        "meta": {
          "profile": [
            "http://hl7.eu/fhir/laboratory/StructureDefinition/Specimen-eu-lab"
          ]
        },
        "collection": {
          "collectedDateTime": "2022-01-31"
        },
        "text": {
          "status": "generated",
          "div": "<div xmlns=\"http://www.w3.org/1999/xhtml\"><table class=\"hl7__eu__lab__report\"><tr><th>Specimen</th><th>Collection Date</th></tr><tr><td>Whole blood specimen (specimen)</td><td><span class=\"nb\">31-Jan-2022</span></td></tr></table></div>"
        },
        "type": {
          "coding": [
            {
              "code": "258580003",
              "system": "http://snomed.info/sct",
              "display": "Whole blood specimen (specimen)"
            }
          ]
        }
      }
    },
    {
      "fullUrl": "urn:uuid:7043b6db-9c50-4068-a019-79a633e67f37",
      "resource": {
        "resourceType": "Observation",
        "id": "7043b6db-9c50-4068-a019-79a633e67f37",
        "meta": {
          "profile": [
            "http://hl7.eu/fhir/laboratory/StructureDefinition/Observation-resultslab-eu-lab"
          ]
        },
        "performer": [
          {
            "display": "The Central European Lab"
          }
        ],
        "category": [
          {
            "coding": [
              {
                "system": "http://terminology.hl7.org/CodeSystem/observation-category",
                "code": "laboratory"
              }
            ]
          }
        ],
        "code": {
          "coding": [
            {
              "code": "4548-4",
              "system": "http://loinc.org",
              "display": "Hemoglobin A1c/Hemoglobin.total in Blood"
            }
          ],
          "text": "Hemoglobin A1c/Hemoglobin.total in Blood"
        },
        "valueQuantity": {
          "system": "http://unitsofmeasure.org",
          "value": 6,
          "unit": "%",
          "code": "%"
        },
        "referenceRange": [
          {
            "low": {
              "value": 4,
              "code": "%",
              "system": "http://unitsofmeasure.org"
            }
          },
          {
            "high": {
              "value": 6,
              "code": "%",
              "system": "http://unitsofmeasure.org"
            }
          }
        ],
        "text": {
          "status": "generated",
          "div": "<div xmlns=\"http://www.w3.org/1999/xhtml\"><table class=\"hl7__eu__lab__report\"><tr><th>Test</th><th>31-Jan-2022</th><th>Reference&#xA0;Range</th><th>Unit</th></tr><tr><td>Hemoglobin A1c/Hemoglobin.total in Blood</td><td>6.0</td><td>4 - 6</td><td></td><td>%</td></tr></table></div>"
        },
        "status": "final",
        "subject": {
          "reference": "urn:uuid:b55128cf-2030-49ac-988b-7d74abb6a5b2",
          "display": "Alessio Fanucci"
        },
        "effectiveDateTime": "2022-01-31T07:49:06Z",
        "specimen": {
          "reference": "urn:uuid:98b7a3cf-f3cb-46b9-a088-73fa4b642e04"
        }
      }
    },
    {
      "fullUrl": "urn:uuid:51d412e8-b9eb-401a-81ae-b4770bef21d4",
      "resource": {
        "resourceType": "Device",
        "id": "51d412e8-b9eb-401a-81ae-b4770bef21d4",
        "deviceName": [
          {
            "name": "SYNDERAI Synthetic Generator",
            "type": "manufacturer-name"
          }
        ],
        "version": [
          {
            "value": "5.0"
          }
        ],
        "text": {
          "status": "generated",
          "div": "<div xmlns=\"http://www.w3.org/1999/xhtml\">SYNDERAI Synthetic Generator v5.0</div>"
        },
        "status": "active\"",
        "distinctIdentifier": "synderai-generator-50",
        "manufacturer": "SYNDERAI Project"
      }
    },
    {
      "fullUrl": "urn:uuid:0dd0bcb8-9b3f-487e-ab3e-475c53f60f6a",
      "resource": {
        "resourceType": "Provenance",
        "id": "0dd0bcb8-9b3f-487e-ab3e-475c53f60f6a",
        "target": [
          {
            "reference": "Patient/b55128cf-2030-49ac-988b-7d74abb6a5b2"
          },
          {
            "reference": "Bundle/e1ed6f37-b357-4f12-b0a8-146943328b4e"
          },
          {
            "reference": "Composition/23dd3516-1363-4213-981c-98c95068cc81"
          },
          {
            "reference": "PractitionerRole/f3013e0a-47d7-46d8-8d2d-690a410f8108"
          },
          {
            "reference": "Practitioner/135a955e-1dea-4dda-bf6f-44519ace2a67"
          },
          {
            "reference": "PractitionerRole/de126a54-6fa2-4c7b-b359-b1cf52c35a53"
          },
          {
            "reference": "Organization/980df7f6-5703-43df-9fd8-d026f2d07315"
          }
        ],
        "activity": {
          "text": "Synthetic Example Data Generation"
        },
        "policy": [
          "https://synderai.net/synderai-synthetic-data-policy"
        ],
        "agent": [
          {
            "type": {
              "text": "author"
            },
            "who": {
              "reference": "Device/51d412e8-b9eb-401a-81ae-b4770bef21d4"
            }
          }
        ],
        "reason": [
          {
            "text": "Interoperability Testing and Training (non-clinical use)"
          }
        ],
        "text": {
          "status": "generated",
          "div": "<div xmlns=\"http://www.w3.org/1999/xhtml\">Provenance for SYNDERAI Synthetic Example Data Resource</div>"
        },
        "recorded": "2022-01-31T08:49:06Z"
      }
    },
    {
      "fullUrl": "urn:uuid:f3013e0a-47d7-46d8-8d2d-690a410f8108",
      "resource": {
        "resourceType": "PractitionerRole",
        "id": "f3013e0a-47d7-46d8-8d2d-690a410f8108",
        "meta": {
          "profile": [
            "http://hl7.eu/fhir/base/StructureDefinition/practitionerRole-eu"
          ]
        },
        "text": {
          "status": "generated",
          "div": "<div xmlns=\"http://www.w3.org/1999/xhtml\">Laboratory Role Id: f3013e0a-47d7-46d8-8d2d-690a410f8108</div>"
        },
        "practitioner": {
          "reference": "urn:uuid:135a955e-1dea-4dda-bf6f-44519ace2a67"
        }
      }
    },
    {
      "fullUrl": "urn:uuid:135a955e-1dea-4dda-bf6f-44519ace2a67",
      "resource": {
        "resourceType": "Practitioner",
        "id": "135a955e-1dea-4dda-bf6f-44519ace2a67",
        "meta": {
          "profile": [
            "http://hl7.eu/fhir/base/StructureDefinition/practitioner-eu"
          ]
        },
        "identifier": [
          {
            "assigner": {
              "display": "HL7 Europe"
            },
            "system": "urn:oid:2.16.840.1.113883.2.51.999",
            "value": "1082cf2c-368f-4612-ad73-ef6da5e763b4"
          }
        ],
        "name": [
          {
            "prefix": [
              "dr"
            ],
            "given": [
              "Ex"
            ],
            "family": "Ample"
          }
        ],
        "address": [
          {
            "line": [
              "Laboratoire Central Européenne",
              "Boulevard du Jardin Botanique 32"
            ],
            "postalCode": "1000",
            "city": "Brussels",
            "country": "Belgium"
          }
        ],
        "text": {
          "status": "generated",
          "div": "<div xmlns=\"http://www.w3.org/1999/xhtml\">Laboratory: Laboratoire Central Européenne, 1000 Brussels, Belgium</div>"
        }
      }
    }
  ],
  "type": "document",
  "timestamp": "2022-01-31T08:49:06Z"
}
