{
  "resourceType": "Bundle",
  "id": "d318a505-cb0d-4f14-96f2-3dcdab7b4154",
  "meta": {
    "profile": [
      "http://hl7.eu/fhir/laboratory/StructureDefinition/Bundle-eu-lab"
    ]
  },
  "identifier": {
    "assigner": {
      "display": "HL7 Europe"
    },
    "system": "urn:oid:2.16.840.1.113883.2.51.999",
    "value": "55e30fd1-3217-413b-970f-20bcd949ea37"
  },
  "entry": [
    {
      "fullUrl": "urn:uuid:885a4a29-c923-44da-a46c-6edf5a51b0b7",
      "resource": {
        "resourceType": "Composition",
        "id": "885a4a29-c923-44da-a46c-6edf5a51b0b7",
        "meta": {
          "profile": [
            "http://hl7.eu/fhir/laboratory/StructureDefinition/Composition-eu-lab"
          ]
        },
        "identifier": {
          "assigner": {
            "display": "HL7 Europe"
          },
          "system": "urn:oid:2.16.840.1.113883.2.51.999",
          "value": "4392ead0-6446-4c30-a5e4-08721a5b9a60"
        },
        "author": [
          {
            "reference": "urn:uuid:686dfc8d-c4ff-4fc6-9908-4c9007c4a7d0"
          }
        ],
        "category": [
          {
            "coding": [
              {
                "code": "26436-6",
                "system": "http://loinc.org",
                "display": "Laboratory studies (set)"
              }
            ]
          }
        ],
        "type": {
          "coding": [
            {
              "code": "11502-2",
              "system": "http://loinc.org",
              "display": "Laboratory report"
            }
          ],
          "text": "Laboratory Report"
        },
        "section": [
          {
            "code": {
              "coding": [
                {
                  "code": "26436-6",
                  "system": "http://loinc.org",
                  "display": "Laboratory studies (set)"
                }
              ],
              "text": "Laboratory studies"
            },
            "section": [
              {
                "code": {
                  "coding": [
                    {
                      "code": "$18723-7",
                      "system": "http://loinc.org",
                      "display": "Hematology studies (set)"
                    }
                  ],
                  "text": "Hematology"
                },
                "entry": [
                  {
                    "reference": "urn:uuid:352a95a3-9f72-4db8-b55a-c84d687883cf"
                  },
                  {
                    "reference": "urn:uuid:2bb23cf1-a456-422d-9e64-67406540bb02"
                  },
                  {
                    "reference": "urn:uuid:24e49ae2-33c9-4462-95bb-0e97ab68a83e"
                  },
                  {
                    "reference": "urn:uuid:328a72c0-5ced-4667-b6b7-d55308e195d3"
                  },
                  {
                    "reference": "urn:uuid:62a592a6-01bb-4d63-8a7e-ba170ad5b78f"
                  },
                  {
                    "reference": "urn:uuid:28586bba-70d1-4cda-8c79-43ee99d3fc4b"
                  },
                  {
                    "reference": "urn:uuid:dbed3b05-9667-4403-83ca-42209e881f27"
                  },
                  {
                    "reference": "urn:uuid:7648a3f6-f71f-475d-9603-6bff64531c73"
                  },
                  {
                    "reference": "urn:uuid:b8ffbe13-96a1-40ad-94f9-0f732f373b64"
                  },
                  {
                    "reference": "urn:uuid:2da4808d-192c-42d0-ab54-d4f674403733"
                  },
                  {
                    "reference": "urn:uuid:7c56b5f2-3864-4130-aabe-f54d6f3a18d3"
                  }
                ],
                "text": {
                  "status": "generated",
                  "div": "<div xmlns=\"http://www.w3.org/1999/xhtml\"><h3>Hematology</h3><table class=\"hl7__eu__lab__report\"><thead><tr><th>Test</th><th>17-MAR-2024</th><th>Reference&#xA0;Range</th><th>Unit</th></tr></thead><tbody><tr><td>Leukocytes [#/volume] in Blood by Automated count</td><td>6.4</td><td>3.4 - 10.6</td><td>10*3/uL</td></tr><tr><td>Erythrocytes [#/volume] in Blood by Automated count</td><td>4.5</td><td>4.2 - 5.2</td><td>10*6/uL</td></tr><tr><td>Hemoglobin [Mass/volume] in Blood</td><td>12.5</td><td>12 - 16</td><td>g/dL</td></tr><tr><td>Hematocrit [Volume Fraction] of Blood by Automated count</td><td>41.4</td><td>36 - 48</td><td>%</td></tr><tr><td>MCV [Entitic volume] by Automated count</td><td>94.4</td><td>82 - 98</td><td>fL</td></tr><tr><td>MCH [Entitic mass] by Automated count</td><td>30.1</td><td>27 - 33</td><td>pg</td></tr><tr><td>MCHC [Mass/volume] by Automated count</td><td>33.6</td><td>32 - 37</td><td>g/dL</td></tr><tr><td>Erythrocyte distribution width [Entitic volume] by Automated count</td><td>43.7</td><td>36 - 46</td><td>fL</td></tr><tr><td>Platelets [#/volume] in Blood by Automated count</td><td>426.2</td><td>150 - 450</td><td>10*3/uL</td></tr><tr><td>Platelet distribution width [Entitic volume] in Blood by Automated count</td><td><strong>300.0 H</strong></td><td>11.6 - 17.4</td><td>fL</td></tr><tr><td>Platelet mean volume [Entitic volume] in Blood by Automated count</td><td>9.4</td><td>7.4 - 12</td><td>fL</td></tr></tbody></table></div>"
                },
                "title": "Hematology"
              },
              {
                "code": {
                  "coding": [
                    {
                      "code": "$18719-5",
                      "system": "http://loinc.org",
                      "display": "Chemistry studies (set)"
                    }
                  ],
                  "text": "Chemistry"
                },
                "entry": [
                  {
                    "reference": "urn:uuid:a07312db-8a6e-4638-9663-5ab6c039c2f7"
                  },
                  {
                    "reference": "urn:uuid:6bcf4d62-c494-456e-9496-3f0b38f6077f"
                  },
                  {
                    "reference": "urn:uuid:51f8acfe-b882-4878-b310-7007af357754"
                  },
                  {
                    "reference": "urn:uuid:9e35bda0-c688-4251-bad0-e7be06212e4f"
                  },
                  {
                    "reference": "urn:uuid:72cdb26f-ee09-4591-8401-60f389cdff89"
                  },
                  {
                    "reference": "urn:uuid:af2075f0-5129-4c28-a540-fa02bf06d6ed"
                  },
                  {
                    "reference": "urn:uuid:9027a209-b599-4007-8624-a6e45bafbdb1"
                  },
                  {
                    "reference": "urn:uuid:0d69f0e6-6ab8-46fe-878c-2f36a0f51e74"
                  },
                  {
                    "reference": "urn:uuid:96aff4ce-a9e4-43b7-b658-d72bb371129f"
                  },
                  {
                    "reference": "urn:uuid:4081e4d8-9f8f-4683-8da4-6c87cf4356ef"
                  },
                  {
                    "reference": "urn:uuid:6e15a7f9-e7e6-453c-b327-7173a2a173ba"
                  },
                  {
                    "reference": "urn:uuid:ebd40ac6-3da2-4a7b-b918-5d578db9a756"
                  },
                  {
                    "reference": "urn:uuid:908b97f7-cce8-4c6b-b365-29e41cda85aa"
                  },
                  {
                    "reference": "urn:uuid:4af22093-94fa-402c-a8bf-7e34cac07bd9"
                  },
                  {
                    "reference": "urn:uuid:d03df768-4739-4d82-9e46-27d9ad07fb5a"
                  },
                  {
                    "reference": "urn:uuid:0b09919c-9687-4f4f-a00f-1ae02d11dc53"
                  },
                  {
                    "reference": "urn:uuid:ad530cd9-36a0-4ee3-b8f7-ee9068d606e9"
                  },
                  {
                    "reference": "urn:uuid:2bd80d44-541c-4067-995b-d8c634d1b517"
                  }
                ],
                "text": {
                  "status": "generated",
                  "div": "<div xmlns=\"http://www.w3.org/1999/xhtml\"><h3>Chemistry</h3><table class=\"hl7__eu__lab__report\"><thead><tr><th>Test</th><th>17-MAR-2024</th><th>Reference&#xA0;Range</th><th>Unit</th></tr></thead><tbody><tr><td>Glucose [Mass/volume] in Serum or Plasma</td><td>98.6</td><td>70 - 99</td><td>mg/dL</td></tr><tr><td>Urea nitrogen [Mass/volume] in Serum or Plasma</td><td>8.9</td><td>7 - 20</td><td>mg/dL</td></tr><tr><td>Creatinine [Mass/volume] in Serum or Plasma</td><td><strong>2.0 H</strong></td><td>0.6 - 1.3</td><td>mg/dL</td></tr><tr><td>Calcium [Mass/volume] in Serum or Plasma</td><td>8.9</td><td>8.6 - 10.4</td><td>mg/dL</td></tr><tr><td>Sodium [Moles/volume] in Serum or Plasma</td><td>139.4</td><td>135 - 145</td><td>mmol/L</td></tr><tr><td>Potassium [Moles/volume] in Serum or Plasma</td><td><strong>5.1 H</strong></td><td>3.5 - 5</td><td>mmol/L</td></tr><tr><td>Chloride [Moles/volume] in Serum or Plasma</td><td><strong>110.9 H</strong></td><td>98 - 106</td><td>mmol/L</td></tr><tr><td>Carbon dioxide, total [Moles/volume] in Serum or Plasma</td><td>28.7</td><td>22 - 29</td><td>mmol/L</td></tr><tr><td>Ketones [Presence] in Urine by Test strip</td><td>Urine ketone test = +</td><td></td><td></td></tr><tr><td>Hemoglobin A1c/Hemoglobin.total in Blood</td><td><strong>3.3 L</strong></td><td>4 - 6</td><td>%</td></tr><tr><td>Glucose [Mass/volume] in Blood</td><td>98.6</td><td>70 - 140</td><td>mg/dL</td></tr><tr><td>Urea nitrogen [Mass/volume] in Blood</td><td>8.9</td><td>7 - 25</td><td>mg/dL</td></tr><tr><td>Creatinine [Mass/volume] in Blood</td><td><strong>2.2 H</strong></td><td>0.6 - 1.1</td><td>mg/dL</td></tr><tr><td>Calcium [Mass/volume] in Blood</td><td>8.9</td><td>8.6 - 10.4</td><td>mg/dL</td></tr><tr><td>Sodium [Moles/volume] in Blood</td><td>139.4</td><td>135 - 145</td><td>mmol/L</td></tr><tr><td>Potassium [Moles/volume] in Blood</td><td>5.1</td><td>3.5 - 5.1</td><td>mmol/L</td></tr><tr><td>Chloride [Moles/volume] in Blood</td><td><strong>110.9 H</strong></td><td>98 - 110</td><td>mmol/L</td></tr><tr><td>Carbon dioxide, total [Moles/volume] in Blood</td><td>28.7</td><td>22 - 29</td><td>mmol/L</td></tr></tbody></table></div>"
                },
                "title": "Chemistry"
              },
              {
                "code": {
                  "coding": [
                    {
                      "code": "$18729-4",
                      "system": "http://loinc.org",
                      "display": "Urinalysis studies (set)"
                    }
                  ],
                  "text": "Urinalysis"
                },
                "entry": [
                  {
                    "reference": "urn:uuid:37aeffb6-194d-4319-817f-ee902b3a3768"
                  },
                  {
                    "reference": "urn:uuid:2472811f-1710-4d04-8526-5aab5c161a82"
                  },
                  {
                    "reference": "urn:uuid:b78a003f-c99a-4eb0-8297-b616258a95b0"
                  },
                  {
                    "reference": "urn:uuid:c10ec549-b7cf-4724-a1f8-74bcb5bc77bb"
                  },
                  {
                    "reference": "urn:uuid:6912abae-98c0-40ac-92b4-2b39817d6cc2"
                  },
                  {
                    "reference": "urn:uuid:cf8daaca-d50b-4c77-a482-21efe5c9a1fa"
                  },
                  {
                    "reference": "urn:uuid:0ce71f7c-d5a7-482d-92d9-93f155ebff2a"
                  },
                  {
                    "reference": "urn:uuid:b816998d-602b-4569-bc9c-68c450653eb9"
                  },
                  {
                    "reference": "urn:uuid:a2eeea06-d9a9-432d-a2af-74772e1c77bd"
                  },
                  {
                    "reference": "urn:uuid:ee97e5e1-b3d3-47ff-b9ac-604e8f3b56cb"
                  },
                  {
                    "reference": "urn:uuid:f101623a-ace7-4d8c-93c9-a85576bdce9d"
                  },
                  {
                    "reference": "urn:uuid:3089abaf-9f70-4dcd-b644-e03ea1811879"
                  }
                ],
                "text": {
                  "status": "generated",
                  "div": "<div xmlns=\"http://www.w3.org/1999/xhtml\"><h3>Urinalysis</h3><table class=\"hl7__eu__lab__report\"><thead><tr><th>Test</th><th>17-MAR-2024</th><th>Reference&#xA0;Range</th><th>Unit</th></tr></thead><tbody><tr><td>Glucose [Mass/volume] in Urine by Test strip</td><td><strong>1.7 H</strong></td><td>0 - 0.8</td><td>mg/dL</td></tr><tr><td>Glucose [Presence] in Urine by Test strip</td><td>++</td><td></td><td></td></tr><tr><td>Bilirubin.total [Mass/volume] in Urine by Test strip</td><td>1.0</td><td>0 - 1</td><td>mg/dL</td></tr><tr><td>Bilirubin.total [Presence] in Urine by Test strip</td><td>Finding of bilirubin in urine</td><td></td><td></td></tr><tr><td>Ketones [Mass/volume] in Urine by Test strip</td><td><strong>17.6 H</strong></td><td>0 - 4</td><td>mg/dL</td></tr><tr><td>Specific gravity of Urine by Test strip</td><td><strong>1.0 L</strong></td><td>1.005 - 1.03</td><td>{nominal}</td></tr><tr><td>pH of Urine by Test strip</td><td>5.1</td><td>4.5 - 7</td><td>pH</td></tr><tr><td>Protein [Mass/volume] in Urine by Test strip</td><td><strong>172.5 H</strong></td><td>0 - 145</td><td>mg/dL</td></tr><tr><td>Protein [Presence] in Urine by Test strip</td><td>Urine protein test = ++</td><td></td><td></td></tr><tr><td>Nitrite [Presence] in Urine by Test strip</td><td>Urine nitrite negative</td><td></td><td></td></tr><tr><td>Hemoglobin [Presence] in Urine by Test strip</td><td>Urine blood test = negative</td><td></td><td></td></tr><tr><td>Leukocyte esterase [Presence] in Urine by Test strip</td><td>Urine leukocyte test negative</td><td></td><td></td></tr></tbody></table></div>"
                },
                "title": "Urinalysis"
              },
              {
                "code": {
                  "coding": [
                    {
                      "code": "$LP7846-1",
                      "system": "http://loinc.org",
                      "display": "Specimen information"
                    }
                  ],
                  "text": "Specimen information"
                },
                "entry": [
                  {
                    "reference": "urn:uuid:b55a8ec6-1fed-475f-86fd-f90dfde0a27e"
                  },
                  {
                    "reference": "urn:uuid:76fe9855-6c93-4ab7-9822-26b4c8eed3cd"
                  },
                  {
                    "reference": "urn:uuid:03edf24e-7486-4f94-807c-aeadf96c559d"
                  },
                  {
                    "reference": "urn:uuid:ed4f02a9-44b4-47d5-89bf-1c2b8c111f93"
                  }
                ],
                "text": {
                  "status": "generated",
                  "div": "<div xmlns=\"http://www.w3.org/1999/xhtml\"><h3>Specimen information</h3><table class=\"hl7__eu__lab__report\"><thead><tr><th>Test</th><th>17-MAR-2024</th><th>Specimen</th><th></th></tr></thead><tbody><tr><td>Appearance of Urine</td><td>Cloudy urine</td><td>Urine</td><td></td></tr><tr><td>Odor of Urine</td><td>Urine smell ammoniacal</td><td>Urine</td><td></td></tr><tr><td>Clarity of Urine</td><td>Translucent</td><td>Urine</td><td></td></tr><tr><td>Color of Urine</td><td>Brown color</td><td>Urine</td><td></td></tr></tbody></table></div>"
                },
                "title": "Specimen information"
              }
            ],
            "title": "Laboratory Report"
          },
          {
            "text": {
              "status": "generated",
              "div": "<div xmlns=\"http://www.w3.org/1999/xhtml\"><h3>Annotation</h3><table class=\"hl7__eu__lab__report\"><tr><th>Conclusion and Recommendations based on this report and previous findings known to us</th></tr><tr><td>The patient shows elevated creatinine, potassium, and chloride, suggesting impaired renal function. Urinalysis reveals proteinuria, glycosuria, ketonuria, low specific gravity, and abnormal urine appearance, supporting possible renal dysfunction and/or poorly controlled diabetes with ketosis. Hemoglobin A1c is unexpectedly low, possibly due to recent changes or hemolysis. No evidence of urinary infection. Recommend further nephrological and diabetic evaluation, and correlation with clinical findings.</td></tr></table></div>"
            },
            "code": {
              "coding": [
                {
                  "system": "http://loinc.org",
                  "code": "48767-8",
                  "display": "Annotation comment"
                }
              ]
            },
            "title": "Annotation comment"
          }
        ],
        "status": "final",
        "subject": {
          "reference": "urn:uuid:31f316e3-29ff-4988-a644-c60555d44261",
          "display": "Iva Kratochvílová"
        },
        "date": "2024-03-17T17:10:29Z",
        "title": "Laboratory Report",
        "confidentiality": "N"
      }
    },
    {
      "fullUrl": "urn:uuid:f1bcb6f5-e4e1-4cbd-b415-f2e29dea7b66",
      "resource": {
        "resourceType": "DiagnosticReport",
        "id": "f1bcb6f5-e4e1-4cbd-b415-f2e29dea7b66",
        "meta": {
          "profile": [
            "http://hl7.eu/fhir/laboratory/StructureDefinition/DiagnosticReport-eu-lab"
          ]
        },
        "identifier": [
          {
            "assigner": {
              "display": "HL7 Europe"
            },
            "system": "urn:oid:2.16.840.1.113883.2.51.999",
            "value": "129e157a-c85e-4d6c-bb2d-b94c26c2058c"
          }
        ],
        "extension": [
          {
            "url": "http://hl7.org/fhir/5.0/StructureDefinition/extension-DiagnosticReport.composition",
            "valueReference": {
              "reference": "urn:uuid:4392ead0-6446-4c30-a5e4-08721a5b9a60"
            }
          }
        ],
        "category": [
          {
            "coding": [
              {
                "code": "26436-6",
                "system": "http://loinc.org",
                "display": "Laboratory studies (set)"
              }
            ]
          }
        ],
        "specimen": [
          {
            "reference": "urn:uuid:6669cf9f-6e59-4b98-80c6-674860b8233e"
          },
          {
            "reference": "urn:uuid:24ab619f-6469-43d0-ad91-ac31f5b9cb44"
          },
          {
            "reference": "urn:uuid:e04b1ba8-e09a-4397-b272-074d315ddc6b"
          },
          {
            "reference": "urn:uuid:e04b1ba8-e09a-4397-b272-074d315ddc6b"
          }
        ],
        "result": [
          {
            "reference": "urn:uuid:a07312db-8a6e-4638-9663-5ab6c039c2f7"
          },
          {
            "reference": "urn:uuid:6bcf4d62-c494-456e-9496-3f0b38f6077f"
          },
          {
            "reference": "urn:uuid:51f8acfe-b882-4878-b310-7007af357754"
          },
          {
            "reference": "urn:uuid:9e35bda0-c688-4251-bad0-e7be06212e4f"
          },
          {
            "reference": "urn:uuid:72cdb26f-ee09-4591-8401-60f389cdff89"
          },
          {
            "reference": "urn:uuid:af2075f0-5129-4c28-a540-fa02bf06d6ed"
          },
          {
            "reference": "urn:uuid:9027a209-b599-4007-8624-a6e45bafbdb1"
          },
          {
            "reference": "urn:uuid:0d69f0e6-6ab8-46fe-878c-2f36a0f51e74"
          },
          {
            "reference": "urn:uuid:b55a8ec6-1fed-475f-86fd-f90dfde0a27e"
          },
          {
            "reference": "urn:uuid:76fe9855-6c93-4ab7-9822-26b4c8eed3cd"
          },
          {
            "reference": "urn:uuid:03edf24e-7486-4f94-807c-aeadf96c559d"
          },
          {
            "reference": "urn:uuid:ed4f02a9-44b4-47d5-89bf-1c2b8c111f93"
          },
          {
            "reference": "urn:uuid:37aeffb6-194d-4319-817f-ee902b3a3768"
          },
          {
            "reference": "urn:uuid:2472811f-1710-4d04-8526-5aab5c161a82"
          },
          {
            "reference": "urn:uuid:b78a003f-c99a-4eb0-8297-b616258a95b0"
          },
          {
            "reference": "urn:uuid:c10ec549-b7cf-4724-a1f8-74bcb5bc77bb"
          },
          {
            "reference": "urn:uuid:6912abae-98c0-40ac-92b4-2b39817d6cc2"
          },
          {
            "reference": "urn:uuid:96aff4ce-a9e4-43b7-b658-d72bb371129f"
          },
          {
            "reference": "urn:uuid:cf8daaca-d50b-4c77-a482-21efe5c9a1fa"
          },
          {
            "reference": "urn:uuid:0ce71f7c-d5a7-482d-92d9-93f155ebff2a"
          },
          {
            "reference": "urn:uuid:b816998d-602b-4569-bc9c-68c450653eb9"
          },
          {
            "reference": "urn:uuid:a2eeea06-d9a9-432d-a2af-74772e1c77bd"
          },
          {
            "reference": "urn:uuid:ee97e5e1-b3d3-47ff-b9ac-604e8f3b56cb"
          },
          {
            "reference": "urn:uuid:f101623a-ace7-4d8c-93c9-a85576bdce9d"
          },
          {
            "reference": "urn:uuid:3089abaf-9f70-4dcd-b644-e03ea1811879"
          },
          {
            "reference": "urn:uuid:4081e4d8-9f8f-4683-8da4-6c87cf4356ef"
          },
          {
            "reference": "urn:uuid:6e15a7f9-e7e6-453c-b327-7173a2a173ba"
          },
          {
            "reference": "urn:uuid:ebd40ac6-3da2-4a7b-b918-5d578db9a756"
          },
          {
            "reference": "urn:uuid:908b97f7-cce8-4c6b-b365-29e41cda85aa"
          },
          {
            "reference": "urn:uuid:4af22093-94fa-402c-a8bf-7e34cac07bd9"
          },
          {
            "reference": "urn:uuid:d03df768-4739-4d82-9e46-27d9ad07fb5a"
          },
          {
            "reference": "urn:uuid:0b09919c-9687-4f4f-a00f-1ae02d11dc53"
          },
          {
            "reference": "urn:uuid:ad530cd9-36a0-4ee3-b8f7-ee9068d606e9"
          },
          {
            "reference": "urn:uuid:2bd80d44-541c-4067-995b-d8c634d1b517"
          },
          {
            "reference": "urn:uuid:352a95a3-9f72-4db8-b55a-c84d687883cf"
          },
          {
            "reference": "urn:uuid:2bb23cf1-a456-422d-9e64-67406540bb02"
          },
          {
            "reference": "urn:uuid:24e49ae2-33c9-4462-95bb-0e97ab68a83e"
          },
          {
            "reference": "urn:uuid:328a72c0-5ced-4667-b6b7-d55308e195d3"
          },
          {
            "reference": "urn:uuid:62a592a6-01bb-4d63-8a7e-ba170ad5b78f"
          },
          {
            "reference": "urn:uuid:28586bba-70d1-4cda-8c79-43ee99d3fc4b"
          },
          {
            "reference": "urn:uuid:dbed3b05-9667-4403-83ca-42209e881f27"
          },
          {
            "reference": "urn:uuid:7648a3f6-f71f-475d-9603-6bff64531c73"
          },
          {
            "reference": "urn:uuid:b8ffbe13-96a1-40ad-94f9-0f732f373b64"
          },
          {
            "reference": "urn:uuid:2da4808d-192c-42d0-ab54-d4f674403733"
          },
          {
            "reference": "urn:uuid:7c56b5f2-3864-4130-aabe-f54d6f3a18d3"
          }
        ],
        "status": "registered",
        "code": {
          "coding": [
            {
              "code": "11502-2",
              "system": "http://loinc.org",
              "display": "Laboratory report"
            }
          ]
        },
        "subject": {
          "reference": "urn:uuid:31f316e3-29ff-4988-a644-c60555d44261",
          "display": "Iva Kratochvílová"
        }
      }
    },
    {
      "fullUrl": "urn:uuid:31f316e3-29ff-4988-a644-c60555d44261",
      "resource": {
        "resourceType": "Patient",
        "id": "31f316e3-29ff-4988-a644-c60555d44261",
        "meta": {
          "security": [
            {
              "system": "http://terminology.hl7.org/CodeSystem/v3-ActReason",
              "code": "HTEST"
            },
            {
              "system": "http://terminology.hl7.org/CodeSystem/v3-ActReason",
              "code": "TRAIN"
            }
          ],
          "tag": [
            {
              "system": "https://synderai.net/fhir/CodeSystem/tags",
              "code": "synthetic",
              "display": "SYNDERAI Synthetic data"
            }
          ],
          "profile": [
            "http://hl7.eu/fhir/base/StructureDefinition/patient-eu-core"
          ]
        },
        "identifier": [
          {
            "type": {
              "coding": [
                {
                  "code": "PT",
                  "system": "http://terminology.hl7.org/CodeSystem/v2-0203"
                }
              ]
            },
            "system": "http://ec.europa.eu/identifier/eci",
            "value": "4380-389488-0"
          },
          {
            "type": {
              "coding": [
                {
                  "code": "MR",
                  "system": "http://terminology.hl7.org/CodeSystem/v2-0203"
                }
              ]
            },
            "system": "http://local.setting.eu/identifier",
            "value": "f8f9ebdc-03dd-2fc0-819c-affa4ffd7f67"
          }
        ],
        "name": [
          {
            "family": "Kratochvílová"
          },
          {
            "given": [
              "Iva"
            ]
          },
          {
            "text": "Iva Kratochvílová"
          }
        ],
        "address": [
          {
            "line": [
              "Žofie Podlipské 4"
            ],
            "use": "home",
            "type": "physical",
            "postalCode": "27324",
            "city": "Postoloprty",
            "country": "Czechia"
          }
        ],
        "telecom": [
          {
            "system": "phone",
            "value": "00420 607 985 072"
          }
        ],
        "extension": [
          {
            "url": "http://hl7.org/fhir/StructureDefinition/patient-nationality",
            "valueCodeableConcept": {
              "coding": [
                {
                  "code": "CZ",
                  "system": "http://hl7.org/fhir/ValueSet/country"
                }
              ]
            }
          }
        ],
        "text": {
          "status": "generated",
          "div": "<div xmlns=\"http://www.w3.org/1999/xhtml\"><table class=\"hl7__ips\"><tr><td>Iva Kratochvílová</td><td>female</td><td>17-Sep-1964</td></tr></table></div>"
        },
        "gender": "female",
        "birthDate": "1964-09-17"
      }
    },
    {
      "fullUrl": "urn:uuid:8c6e620b-bed5-4704-b12a-f95ae2cba8a5",
      "resource": {
        "resourceType": "ServiceRequest",
        "id": "8c6e620b-bed5-4704-b12a-f95ae2cba8a5",
        "meta": {
          "profile": [
            "http://hl7.eu/fhir/laboratory/StructureDefinition/ServiceRequest-eu-lab"
          ]
        },
        "identifier": [
          {
            "system": "http://example.org",
            "value": "03fff023-f93b-453f-876c-da18ab0dcfbf"
          }
        ],
        "specimen": [
          {
            "reference": "urn:uuid:6669cf9f-6e59-4b98-80c6-674860b8233e"
          },
          {
            "reference": "urn:uuid:24ab619f-6469-43d0-ad91-ac31f5b9cb44"
          },
          {
            "reference": "urn:uuid:e04b1ba8-e09a-4397-b272-074d315ddc6b"
          }
        ],
        "reasonCode": [
          {
            "coding": [
              {
                "code": "431856006",
                "system": "http://snomed.info/sct",
                "display": "Chronic kidney disease stage 2"
              }
            ]
          },
          {
            "coding": [
              {
                "code": "431855005",
                "system": "http://snomed.info/sct",
                "display": "Chronic kidney disease stage 1"
              }
            ]
          },
          {
            "coding": [
              {
                "code": "237602007",
                "system": "http://snomed.info/sct",
                "display": "Metabolic syndrome X"
              }
            ]
          },
          {
            "coding": [
              {
                "code": "91302008",
                "system": "http://snomed.info/sct",
                "display": "Sepsis"
              }
            ]
          },
          {
            "coding": [
              {
                "code": "271737000",
                "system": "http://snomed.info/sct",
                "display": "Anemia"
              }
            ]
          },
          {
            "coding": [
              {
                "code": "15777000",
                "system": "http://snomed.info/sct",
                "display": "Prediabetes"
              }
            ]
          },
          {
            "coding": [
              {
                "code": "157141000119108",
                "system": "http://snomed.info/sct",
                "display": "Proteinuria due to type 2 diabetes mellitus"
              }
            ]
          },
          {
            "coding": [
              {
                "code": "90781000119102",
                "system": "http://snomed.info/sct",
                "display": "Microalbuminuria due to type 2 diabetes mellitus"
              }
            ]
          },
          {
            "coding": [
              {
                "code": "239872002",
                "system": "http://snomed.info/sct",
                "display": "Osteoarthritis of hip"
              }
            ]
          },
          {
            "coding": [
              {
                "code": "40055000",
                "system": "http://snomed.info/sct",
                "display": "Chronic sinusitis"
              }
            ]
          },
          {
            "coding": [
              {
                "code": "127013003",
                "system": "http://snomed.info/sct",
                "display": "Disorder of kidney due to diabetes mellitus"
              }
            ]
          },
          {
            "coding": [
              {
                "code": "59621000",
                "system": "http://snomed.info/sct",
                "display": "Essential hypertension"
              }
            ]
          }
        ],
        "status": "active",
        "intent": "order",
        "code": {
          "coding": [
            {
              "code": "108252007",
              "system": "http://snomed.info/sct",
              "display": "Laboratory procedure"
            }
          ]
        },
        "subject": {
          "reference": "urn:uuid:31f316e3-29ff-4988-a644-c60555d44261",
          "display": "Iva Kratochvílová"
        },
        "requester": {
          "reference": "urn:uuid:b2e95cbe-b04f-4c95-8eed-af9283e9b4c5"
        }
      }
    },
    {
      "fullUrl": "urn:uuid:b2e95cbe-b04f-4c95-8eed-af9283e9b4c5",
      "resource": {
        "resourceType": "PractitionerRole",
        "id": "b2e95cbe-b04f-4c95-8eed-af9283e9b4c5",
        "meta": {
          "profile": [
            "http://hl7.eu/fhir/base/StructureDefinition/practitionerRole-eu"
          ]
        },
        "text": {
          "status": "generated",
          "div": "<div xmlns=\"http://www.w3.org/1999/xhtml\">Provider Role Id: b2e95cbe-b04f-4c95-8eed-af9283e9b4c5</div>"
        },
        "organization": {
          "reference": "urn:uuid:15877d54-5d77-47a1-b9bf-cd4370f3ac46"
        }
      }
    },
    {
      "fullUrl": "urn:uuid:15877d54-5d77-47a1-b9bf-cd4370f3ac46",
      "resource": {
        "resourceType": "Organization",
        "id": "15877d54-5d77-47a1-b9bf-cd4370f3ac46",
        "meta": {
          "profile": [
            "http://hl7.eu/fhir/base/StructureDefinition/organization-eu"
          ]
        },
        "identifier": [
          {
            "assigner": {
              "display": "HL7 Europe"
            },
            "system": "urn:oid:2.16.840.1.113883.2.51.999",
            "value": "ab31b8ae-f010-46d7-997e-ebe33e9693ea"
          }
        ],
        "address": [
          {
            "city": "Kadaň",
            "postalCode": "432 01",
            "country": "Czechia"
          }
        ],
        "text": {
          "status": "generated",
          "div": "<div xmlns=\"http://www.w3.org/1999/xhtml\">Provider Organization: Nemocnice s poliklinikou Kadaň</div>"
        },
        "name": "Nemocnice s poliklinikou Kadaň"
      }
    },
    {
      "fullUrl": "urn:uuid:6669cf9f-6e59-4b98-80c6-674860b8233e",
      "resource": {
        "resourceType": "Specimen",
        "id": "6669cf9f-6e59-4b98-80c6-674860b8233e",
        "meta": {
          "profile": [
            "http://hl7.eu/fhir/laboratory/StructureDefinition/Specimen-eu-lab"
          ]
        },
        "collection": {
          "collectedDateTime": "2024-03-17"
        },
        "text": {
          "status": "generated",
          "div": "<div xmlns=\"http://www.w3.org/1999/xhtml\"><table class=\"hl7__eu__lab__report\"><tr><th>Specimen</th><th>Collection Date</th></tr><tr><td>Acellular blood (serum or plasma) specimen</td><td><span class=\"nb\">17-Mar-2024</span></td></tr></table></div>"
        },
        "type": {
          "coding": [
            {
              "code": "122592007",
              "system": "http://snomed.info/sct",
              "display": "Acellular blood (serum or plasma) specimen"
            }
          ]
        }
      }
    },
    {
      "fullUrl": "urn:uuid:24ab619f-6469-43d0-ad91-ac31f5b9cb44",
      "resource": {
        "resourceType": "Specimen",
        "id": "24ab619f-6469-43d0-ad91-ac31f5b9cb44",
        "meta": {
          "profile": [
            "http://hl7.eu/fhir/laboratory/StructureDefinition/Specimen-eu-lab"
          ]
        },
        "collection": {
          "collectedDateTime": "2024-03-17"
        },
        "text": {
          "status": "generated",
          "div": "<div xmlns=\"http://www.w3.org/1999/xhtml\"><table class=\"hl7__eu__lab__report\"><tr><th>Specimen</th><th>Collection Date</th></tr><tr><td>Urine specimen</td><td><span class=\"nb\">17-Mar-2024</span></td></tr></table></div>"
        },
        "type": {
          "coding": [
            {
              "code": "122575003",
              "system": "http://snomed.info/sct",
              "display": "Urine specimen"
            }
          ]
        }
      }
    },
    {
      "fullUrl": "urn:uuid:e04b1ba8-e09a-4397-b272-074d315ddc6b",
      "resource": {
        "resourceType": "Specimen",
        "id": "e04b1ba8-e09a-4397-b272-074d315ddc6b",
        "meta": {
          "profile": [
            "http://hl7.eu/fhir/laboratory/StructureDefinition/Specimen-eu-lab"
          ]
        },
        "collection": {
          "collectedDateTime": "2024-03-17"
        },
        "text": {
          "status": "generated",
          "div": "<div xmlns=\"http://www.w3.org/1999/xhtml\"><table class=\"hl7__eu__lab__report\"><tr><th>Specimen</th><th>Collection Date</th></tr><tr><td>Whole blood specimen (specimen)</td><td><span class=\"nb\">17-Mar-2024</span></td></tr></table></div>"
        },
        "type": {
          "coding": [
            {
              "code": "258580003",
              "system": "http://snomed.info/sct",
              "display": "Whole blood specimen (specimen)"
            }
          ]
        }
      }
    },
    {
      "fullUrl": "urn:uuid:e04b1ba8-e09a-4397-b272-074d315ddc6b",
      "resource": {
        "resourceType": "Specimen",
        "id": "e04b1ba8-e09a-4397-b272-074d315ddc6b",
        "meta": {
          "profile": [
            "http://hl7.eu/fhir/laboratory/StructureDefinition/Specimen-eu-lab"
          ]
        },
        "collection": {
          "collectedDateTime": "2024-03-17"
        },
        "text": {
          "status": "generated",
          "div": "<div xmlns=\"http://www.w3.org/1999/xhtml\"><table class=\"hl7__eu__lab__report\"><tr><th>Specimen</th><th>Collection Date</th></tr><tr><td>Whole blood specimen (specimen)</td><td><span class=\"nb\">17-Mar-2024</span></td></tr></table></div>"
        },
        "type": {
          "coding": [
            {
              "code": "258580003",
              "system": "http://snomed.info/sct",
              "display": "Whole blood specimen (specimen)"
            }
          ]
        }
      }
    },
    {
      "fullUrl": "urn:uuid:a07312db-8a6e-4638-9663-5ab6c039c2f7",
      "resource": {
        "resourceType": "Observation",
        "id": "a07312db-8a6e-4638-9663-5ab6c039c2f7",
        "meta": {
          "profile": [
            "http://hl7.eu/fhir/laboratory/StructureDefinition/Observation-resultslab-eu-lab"
          ]
        },
        "performer": [
          {
            "display": "The Central European Lab"
          }
        ],
        "category": [
          {
            "coding": [
              {
                "system": "http://terminology.hl7.org/CodeSystem/observation-category",
                "code": "laboratory"
              }
            ]
          }
        ],
        "code": {
          "coding": [
            {
              "code": "2345-7",
              "system": "http://loinc.org",
              "display": "Glucose [Mass/volume] in Serum or Plasma"
            }
          ],
          "text": "Glucose [Mass/volume] in Serum or Plasma"
        },
        "valueQuantity": {
          "system": "http://unitsofmeasure.org",
          "value": 98.6,
          "unit": "mg/dL",
          "code": "mg/dL"
        },
        "referenceRange": [
          {
            "low": {
              "value": 70,
              "code": "mg/dL",
              "system": "http://unitsofmeasure.org"
            }
          },
          {
            "high": {
              "value": 99,
              "code": "mg/dL",
              "system": "http://unitsofmeasure.org"
            }
          }
        ],
        "text": {
          "status": "generated",
          "div": "<div xmlns=\"http://www.w3.org/1999/xhtml\"><table class=\"hl7__eu__lab__report\"><tr><th>Test</th><th>17-Mar-2024</th><th>Reference&#xA0;Range</th><th>Unit</th></tr><tr><td>Glucose [Mass/volume] in Serum or Plasma</td><td>98.6</td><td>70 - 99</td><td></td><td>mg/dL</td></tr></table></div>"
        },
        "status": "final",
        "subject": {
          "reference": "urn:uuid:31f316e3-29ff-4988-a644-c60555d44261",
          "display": "Iva Kratochvílová"
        },
        "effectiveDateTime": "2024-03-17T16:10:29Z",
        "specimen": {
          "reference": "urn:uuid:6669cf9f-6e59-4b98-80c6-674860b8233e"
        }
      }
    },
    {
      "fullUrl": "urn:uuid:6bcf4d62-c494-456e-9496-3f0b38f6077f",
      "resource": {
        "resourceType": "Observation",
        "id": "6bcf4d62-c494-456e-9496-3f0b38f6077f",
        "meta": {
          "profile": [
            "http://hl7.eu/fhir/laboratory/StructureDefinition/Observation-resultslab-eu-lab"
          ]
        },
        "performer": [
          {
            "display": "The Central European Lab"
          }
        ],
        "category": [
          {
            "coding": [
              {
                "system": "http://terminology.hl7.org/CodeSystem/observation-category",
                "code": "laboratory"
              }
            ]
          }
        ],
        "code": {
          "coding": [
            {
              "code": "3094-0",
              "system": "http://loinc.org",
              "display": "Urea nitrogen [Mass/volume] in Serum or Plasma"
            }
          ],
          "text": "Urea nitrogen [Mass/volume] in Serum or Plasma"
        },
        "valueQuantity": {
          "system": "http://unitsofmeasure.org",
          "value": 8.9,
          "unit": "mg/dL",
          "code": "mg/dL"
        },
        "referenceRange": [
          {
            "low": {
              "value": 7,
              "code": "mg/dL",
              "system": "http://unitsofmeasure.org"
            }
          },
          {
            "high": {
              "value": 20,
              "code": "mg/dL",
              "system": "http://unitsofmeasure.org"
            }
          }
        ],
        "text": {
          "status": "generated",
          "div": "<div xmlns=\"http://www.w3.org/1999/xhtml\"><table class=\"hl7__eu__lab__report\"><tr><th>Test</th><th>17-Mar-2024</th><th>Reference&#xA0;Range</th><th>Unit</th></tr><tr><td>Urea nitrogen [Mass/volume] in Serum or Plasma</td><td>8.9</td><td>7 - 20</td><td></td><td>mg/dL</td></tr></table></div>"
        },
        "status": "final",
        "subject": {
          "reference": "urn:uuid:31f316e3-29ff-4988-a644-c60555d44261",
          "display": "Iva Kratochvílová"
        },
        "effectiveDateTime": "2024-03-17T16:10:29Z",
        "specimen": {
          "reference": "urn:uuid:6669cf9f-6e59-4b98-80c6-674860b8233e"
        }
      }
    },
    {
      "fullUrl": "urn:uuid:51f8acfe-b882-4878-b310-7007af357754",
      "resource": {
        "resourceType": "Observation",
        "id": "51f8acfe-b882-4878-b310-7007af357754",
        "meta": {
          "profile": [
            "http://hl7.eu/fhir/laboratory/StructureDefinition/Observation-resultslab-eu-lab"
          ]
        },
        "performer": [
          {
            "display": "The Central European Lab"
          }
        ],
        "category": [
          {
            "coding": [
              {
                "system": "http://terminology.hl7.org/CodeSystem/observation-category",
                "code": "laboratory"
              }
            ]
          }
        ],
        "code": {
          "coding": [
            {
              "code": "2160-0",
              "system": "http://loinc.org",
              "display": "Creatinine [Mass/volume] in Serum or Plasma"
            }
          ],
          "text": "Creatinine [Mass/volume] in Serum or Plasma"
        },
        "valueQuantity": {
          "system": "http://unitsofmeasure.org",
          "value": 2,
          "unit": "mg/dL",
          "code": "mg/dL"
        },
        "referenceRange": [
          {
            "low": {
              "value": 0.6,
              "code": "mg/dL",
              "system": "http://unitsofmeasure.org"
            }
          },
          {
            "high": {
              "value": 1.3,
              "code": "mg/dL",
              "system": "http://unitsofmeasure.org"
            }
          }
        ],
        "interpretation": [
          {
            "coding": [
              {
                "code": "H",
                "system": "http://terminology.hl7.org/CodeSystem/v3-ObservationInterpretation",
                "display": "High"
              }
            ]
          }
        ],
        "text": {
          "status": "generated",
          "div": "<div xmlns=\"http://www.w3.org/1999/xhtml\"><table class=\"hl7__eu__lab__report\"><tr><th>Test</th><th>17-Mar-2024</th><th>Reference&#xA0;Range</th><th>Unit</th></tr><tr><td>Creatinine [Mass/volume] in Serum or Plasma</td><td>2.0</td><td>0.6 - 1.3</td><td>H</td><td>mg/dL</td></tr></table></div>"
        },
        "status": "final",
        "subject": {
          "reference": "urn:uuid:31f316e3-29ff-4988-a644-c60555d44261",
          "display": "Iva Kratochvílová"
        },
        "effectiveDateTime": "2024-03-17T16:10:29Z",
        "specimen": {
          "reference": "urn:uuid:6669cf9f-6e59-4b98-80c6-674860b8233e"
        }
      }
    },
    {
      "fullUrl": "urn:uuid:9e35bda0-c688-4251-bad0-e7be06212e4f",
      "resource": {
        "resourceType": "Observation",
        "id": "9e35bda0-c688-4251-bad0-e7be06212e4f",
        "meta": {
          "profile": [
            "http://hl7.eu/fhir/laboratory/StructureDefinition/Observation-resultslab-eu-lab"
          ]
        },
        "performer": [
          {
            "display": "The Central European Lab"
          }
        ],
        "category": [
          {
            "coding": [
              {
                "system": "http://terminology.hl7.org/CodeSystem/observation-category",
                "code": "laboratory"
              }
            ]
          }
        ],
        "code": {
          "coding": [
            {
              "code": "17861-6",
              "system": "http://loinc.org",
              "display": "Calcium [Mass/volume] in Serum or Plasma"
            }
          ],
          "text": "Calcium [Mass/volume] in Serum or Plasma"
        },
        "valueQuantity": {
          "system": "http://unitsofmeasure.org",
          "value": 8.9,
          "unit": "mg/dL",
          "code": "mg/dL"
        },
        "referenceRange": [
          {
            "low": {
              "value": 8.6,
              "code": "mg/dL",
              "system": "http://unitsofmeasure.org"
            }
          },
          {
            "high": {
              "value": 10.4,
              "code": "mg/dL",
              "system": "http://unitsofmeasure.org"
            }
          }
        ],
        "text": {
          "status": "generated",
          "div": "<div xmlns=\"http://www.w3.org/1999/xhtml\"><table class=\"hl7__eu__lab__report\"><tr><th>Test</th><th>17-Mar-2024</th><th>Reference&#xA0;Range</th><th>Unit</th></tr><tr><td>Calcium [Mass/volume] in Serum or Plasma</td><td>8.9</td><td>8.6 - 10.4</td><td></td><td>mg/dL</td></tr></table></div>"
        },
        "status": "final",
        "subject": {
          "reference": "urn:uuid:31f316e3-29ff-4988-a644-c60555d44261",
          "display": "Iva Kratochvílová"
        },
        "effectiveDateTime": "2024-03-17T16:10:29Z",
        "specimen": {
          "reference": "urn:uuid:6669cf9f-6e59-4b98-80c6-674860b8233e"
        }
      }
    },
    {
      "fullUrl": "urn:uuid:72cdb26f-ee09-4591-8401-60f389cdff89",
      "resource": {
        "resourceType": "Observation",
        "id": "72cdb26f-ee09-4591-8401-60f389cdff89",
        "meta": {
          "profile": [
            "http://hl7.eu/fhir/laboratory/StructureDefinition/Observation-resultslab-eu-lab"
          ]
        },
        "performer": [
          {
            "display": "The Central European Lab"
          }
        ],
        "category": [
          {
            "coding": [
              {
                "system": "http://terminology.hl7.org/CodeSystem/observation-category",
                "code": "laboratory"
              }
            ]
          }
        ],
        "code": {
          "coding": [
            {
              "code": "2951-2",
              "system": "http://loinc.org",
              "display": "Sodium [Moles/volume] in Serum or Plasma"
            }
          ],
          "text": "Sodium [Moles/volume] in Serum or Plasma"
        },
        "valueQuantity": {
          "system": "http://unitsofmeasure.org",
          "value": 139.4,
          "unit": "mmol/L",
          "code": "mmol/L"
        },
        "referenceRange": [
          {
            "low": {
              "value": 135,
              "code": "mmol/L",
              "system": "http://unitsofmeasure.org"
            }
          },
          {
            "high": {
              "value": 145,
              "code": "mmol/L",
              "system": "http://unitsofmeasure.org"
            }
          }
        ],
        "text": {
          "status": "generated",
          "div": "<div xmlns=\"http://www.w3.org/1999/xhtml\"><table class=\"hl7__eu__lab__report\"><tr><th>Test</th><th>17-Mar-2024</th><th>Reference&#xA0;Range</th><th>Unit</th></tr><tr><td>Sodium [Moles/volume] in Serum or Plasma</td><td>139.4</td><td>135 - 145</td><td></td><td>mmol/L</td></tr></table></div>"
        },
        "status": "final",
        "subject": {
          "reference": "urn:uuid:31f316e3-29ff-4988-a644-c60555d44261",
          "display": "Iva Kratochvílová"
        },
        "effectiveDateTime": "2024-03-17T16:10:29Z",
        "specimen": {
          "reference": "urn:uuid:6669cf9f-6e59-4b98-80c6-674860b8233e"
        }
      }
    },
    {
      "fullUrl": "urn:uuid:af2075f0-5129-4c28-a540-fa02bf06d6ed",
      "resource": {
        "resourceType": "Observation",
        "id": "af2075f0-5129-4c28-a540-fa02bf06d6ed",
        "meta": {
          "profile": [
            "http://hl7.eu/fhir/laboratory/StructureDefinition/Observation-resultslab-eu-lab"
          ]
        },
        "performer": [
          {
            "display": "The Central European Lab"
          }
        ],
        "category": [
          {
            "coding": [
              {
                "system": "http://terminology.hl7.org/CodeSystem/observation-category",
                "code": "laboratory"
              }
            ]
          }
        ],
        "code": {
          "coding": [
            {
              "code": "2823-3",
              "system": "http://loinc.org",
              "display": "Potassium [Moles/volume] in Serum or Plasma"
            }
          ],
          "text": "Potassium [Moles/volume] in Serum or Plasma"
        },
        "valueQuantity": {
          "system": "http://unitsofmeasure.org",
          "value": 5.1,
          "unit": "mmol/L",
          "code": "mmol/L"
        },
        "referenceRange": [
          {
            "low": {
              "value": 3.5,
              "code": "mmol/L",
              "system": "http://unitsofmeasure.org"
            }
          },
          {
            "high": {
              "value": 5,
              "code": "mmol/L",
              "system": "http://unitsofmeasure.org"
            }
          }
        ],
        "interpretation": [
          {
            "coding": [
              {
                "code": "H",
                "system": "http://terminology.hl7.org/CodeSystem/v3-ObservationInterpretation",
                "display": "High"
              }
            ]
          }
        ],
        "text": {
          "status": "generated",
          "div": "<div xmlns=\"http://www.w3.org/1999/xhtml\"><table class=\"hl7__eu__lab__report\"><tr><th>Test</th><th>17-Mar-2024</th><th>Reference&#xA0;Range</th><th>Unit</th></tr><tr><td>Potassium [Moles/volume] in Serum or Plasma</td><td>5.1</td><td>3.5 - 5</td><td>H</td><td>mmol/L</td></tr></table></div>"
        },
        "status": "final",
        "subject": {
          "reference": "urn:uuid:31f316e3-29ff-4988-a644-c60555d44261",
          "display": "Iva Kratochvílová"
        },
        "effectiveDateTime": "2024-03-17T16:10:29Z",
        "specimen": {
          "reference": "urn:uuid:6669cf9f-6e59-4b98-80c6-674860b8233e"
        }
      }
    },
    {
      "fullUrl": "urn:uuid:9027a209-b599-4007-8624-a6e45bafbdb1",
      "resource": {
        "resourceType": "Observation",
        "id": "9027a209-b599-4007-8624-a6e45bafbdb1",
        "meta": {
          "profile": [
            "http://hl7.eu/fhir/laboratory/StructureDefinition/Observation-resultslab-eu-lab"
          ]
        },
        "performer": [
          {
            "display": "The Central European Lab"
          }
        ],
        "category": [
          {
            "coding": [
              {
                "system": "http://terminology.hl7.org/CodeSystem/observation-category",
                "code": "laboratory"
              }
            ]
          }
        ],
        "code": {
          "coding": [
            {
              "code": "2075-0",
              "system": "http://loinc.org",
              "display": "Chloride [Moles/volume] in Serum or Plasma"
            }
          ],
          "text": "Chloride [Moles/volume] in Serum or Plasma"
        },
        "valueQuantity": {
          "system": "http://unitsofmeasure.org",
          "value": 110.9,
          "unit": "mmol/L",
          "code": "mmol/L"
        },
        "referenceRange": [
          {
            "low": {
              "value": 98,
              "code": "mmol/L",
              "system": "http://unitsofmeasure.org"
            }
          },
          {
            "high": {
              "value": 106,
              "code": "mmol/L",
              "system": "http://unitsofmeasure.org"
            }
          }
        ],
        "interpretation": [
          {
            "coding": [
              {
                "code": "H",
                "system": "http://terminology.hl7.org/CodeSystem/v3-ObservationInterpretation",
                "display": "High"
              }
            ]
          }
        ],
        "text": {
          "status": "generated",
          "div": "<div xmlns=\"http://www.w3.org/1999/xhtml\"><table class=\"hl7__eu__lab__report\"><tr><th>Test</th><th>17-Mar-2024</th><th>Reference&#xA0;Range</th><th>Unit</th></tr><tr><td>Chloride [Moles/volume] in Serum or Plasma</td><td>110.9</td><td>98 - 106</td><td>H</td><td>mmol/L</td></tr></table></div>"
        },
        "status": "final",
        "subject": {
          "reference": "urn:uuid:31f316e3-29ff-4988-a644-c60555d44261",
          "display": "Iva Kratochvílová"
        },
        "effectiveDateTime": "2024-03-17T16:10:29Z",
        "specimen": {
          "reference": "urn:uuid:6669cf9f-6e59-4b98-80c6-674860b8233e"
        }
      }
    },
    {
      "fullUrl": "urn:uuid:0d69f0e6-6ab8-46fe-878c-2f36a0f51e74",
      "resource": {
        "resourceType": "Observation",
        "id": "0d69f0e6-6ab8-46fe-878c-2f36a0f51e74",
        "meta": {
          "profile": [
            "http://hl7.eu/fhir/laboratory/StructureDefinition/Observation-resultslab-eu-lab"
          ]
        },
        "performer": [
          {
            "display": "The Central European Lab"
          }
        ],
        "category": [
          {
            "coding": [
              {
                "system": "http://terminology.hl7.org/CodeSystem/observation-category",
                "code": "laboratory"
              }
            ]
          }
        ],
        "code": {
          "coding": [
            {
              "code": "2028-9",
              "system": "http://loinc.org",
              "display": "Carbon dioxide, total [Moles/volume] in Serum or Plasma"
            }
          ],
          "text": "Carbon dioxide, total [Moles/volume] in Serum or Plasma"
        },
        "valueQuantity": {
          "system": "http://unitsofmeasure.org",
          "value": 28.7,
          "unit": "mmol/L",
          "code": "mmol/L"
        },
        "referenceRange": [
          {
            "low": {
              "value": 22,
              "code": "mmol/L",
              "system": "http://unitsofmeasure.org"
            }
          },
          {
            "high": {
              "value": 29,
              "code": "mmol/L",
              "system": "http://unitsofmeasure.org"
            }
          }
        ],
        "text": {
          "status": "generated",
          "div": "<div xmlns=\"http://www.w3.org/1999/xhtml\"><table class=\"hl7__eu__lab__report\"><tr><th>Test</th><th>17-Mar-2024</th><th>Reference&#xA0;Range</th><th>Unit</th></tr><tr><td>Carbon dioxide, total [Moles/volume] in Serum or Plasma</td><td>28.7</td><td>22 - 29</td><td></td><td>mmol/L</td></tr></table></div>"
        },
        "status": "final",
        "subject": {
          "reference": "urn:uuid:31f316e3-29ff-4988-a644-c60555d44261",
          "display": "Iva Kratochvílová"
        },
        "effectiveDateTime": "2024-03-17T16:10:29Z",
        "specimen": {
          "reference": "urn:uuid:6669cf9f-6e59-4b98-80c6-674860b8233e"
        }
      }
    },
    {
      "fullUrl": "urn:uuid:b55a8ec6-1fed-475f-86fd-f90dfde0a27e",
      "resource": {
        "resourceType": "Observation",
        "id": "b55a8ec6-1fed-475f-86fd-f90dfde0a27e",
        "meta": {
          "profile": [
            "http://hl7.eu/fhir/laboratory/StructureDefinition/Observation-resultslab-eu-lab"
          ]
        },
        "performer": [
          {
            "display": "The Central European Lab"
          }
        ],
        "category": [
          {
            "coding": [
              {
                "system": "http://terminology.hl7.org/CodeSystem/observation-category",
                "code": "laboratory"
              }
            ]
          }
        ],
        "code": {
          "coding": [
            {
              "code": "5767-9",
              "system": "http://loinc.org",
              "display": "Appearance of Urine"
            }
          ],
          "text": "Appearance of Urine"
        },
        "text": {
          "status": "generated",
          "div": "<div xmlns=\"http://www.w3.org/1999/xhtml\"><table class=\"hl7__eu__lab__report\"><tr><th>Test</th><th>17-Mar-2024</th><th>Reference&#xA0;Range</th><th>Unit</th></tr><tr><td>Appearance of Urine</td></tr></table></div>"
        },
        "status": "final",
        "subject": {
          "reference": "urn:uuid:31f316e3-29ff-4988-a644-c60555d44261",
          "display": "Iva Kratochvílová"
        },
        "effectiveDateTime": "2024-03-17T16:10:29Z",
        "specimen": {
          "reference": "urn:uuid:24ab619f-6469-43d0-ad91-ac31f5b9cb44"
        }
      }
    },
    {
      "fullUrl": "urn:uuid:76fe9855-6c93-4ab7-9822-26b4c8eed3cd",
      "resource": {
        "resourceType": "Observation",
        "id": "76fe9855-6c93-4ab7-9822-26b4c8eed3cd",
        "meta": {
          "profile": [
            "http://hl7.eu/fhir/laboratory/StructureDefinition/Observation-resultslab-eu-lab"
          ]
        },
        "performer": [
          {
            "display": "The Central European Lab"
          }
        ],
        "category": [
          {
            "coding": [
              {
                "system": "http://terminology.hl7.org/CodeSystem/observation-category",
                "code": "laboratory"
              }
            ]
          }
        ],
        "code": {
          "coding": [
            {
              "code": "34533-0",
              "system": "http://loinc.org",
              "display": "Odor of Urine"
            }
          ],
          "text": "Odor of Urine"
        },
        "text": {
          "status": "generated",
          "div": "<div xmlns=\"http://www.w3.org/1999/xhtml\"><table class=\"hl7__eu__lab__report\"><tr><th>Test</th><th>17-Mar-2024</th><th>Reference&#xA0;Range</th><th>Unit</th></tr><tr><td>Odor of Urine</td></tr></table></div>"
        },
        "status": "final",
        "subject": {
          "reference": "urn:uuid:31f316e3-29ff-4988-a644-c60555d44261",
          "display": "Iva Kratochvílová"
        },
        "effectiveDateTime": "2024-03-17T16:10:29Z",
        "specimen": {
          "reference": "urn:uuid:24ab619f-6469-43d0-ad91-ac31f5b9cb44"
        }
      }
    },
    {
      "fullUrl": "urn:uuid:03edf24e-7486-4f94-807c-aeadf96c559d",
      "resource": {
        "resourceType": "Observation",
        "id": "03edf24e-7486-4f94-807c-aeadf96c559d",
        "meta": {
          "profile": [
            "http://hl7.eu/fhir/laboratory/StructureDefinition/Observation-resultslab-eu-lab"
          ]
        },
        "performer": [
          {
            "display": "The Central European Lab"
          }
        ],
        "category": [
          {
            "coding": [
              {
                "system": "http://terminology.hl7.org/CodeSystem/observation-category",
                "code": "laboratory"
              }
            ]
          }
        ],
        "code": {
          "coding": [
            {
              "code": "32167-9",
              "system": "http://loinc.org",
              "display": "Clarity of Urine"
            }
          ],
          "text": "Clarity of Urine"
        },
        "text": {
          "status": "generated",
          "div": "<div xmlns=\"http://www.w3.org/1999/xhtml\"><table class=\"hl7__eu__lab__report\"><tr><th>Test</th><th>17-Mar-2024</th><th>Reference&#xA0;Range</th><th>Unit</th></tr><tr><td>Clarity of Urine</td></tr></table></div>"
        },
        "status": "final",
        "subject": {
          "reference": "urn:uuid:31f316e3-29ff-4988-a644-c60555d44261",
          "display": "Iva Kratochvílová"
        },
        "effectiveDateTime": "2024-03-17T16:10:29Z",
        "specimen": {
          "reference": "urn:uuid:24ab619f-6469-43d0-ad91-ac31f5b9cb44"
        }
      }
    },
    {
      "fullUrl": "urn:uuid:ed4f02a9-44b4-47d5-89bf-1c2b8c111f93",
      "resource": {
        "resourceType": "Observation",
        "id": "ed4f02a9-44b4-47d5-89bf-1c2b8c111f93",
        "meta": {
          "profile": [
            "http://hl7.eu/fhir/laboratory/StructureDefinition/Observation-resultslab-eu-lab"
          ]
        },
        "performer": [
          {
            "display": "The Central European Lab"
          }
        ],
        "category": [
          {
            "coding": [
              {
                "system": "http://terminology.hl7.org/CodeSystem/observation-category",
                "code": "laboratory"
              }
            ]
          }
        ],
        "code": {
          "coding": [
            {
              "code": "5778-6",
              "system": "http://loinc.org",
              "display": "Color of Urine"
            }
          ],
          "text": "Color of Urine"
        },
        "text": {
          "status": "generated",
          "div": "<div xmlns=\"http://www.w3.org/1999/xhtml\"><table class=\"hl7__eu__lab__report\"><tr><th>Test</th><th>17-Mar-2024</th><th>Reference&#xA0;Range</th><th>Unit</th></tr><tr><td>Color of Urine</td></tr></table></div>"
        },
        "status": "final",
        "subject": {
          "reference": "urn:uuid:31f316e3-29ff-4988-a644-c60555d44261",
          "display": "Iva Kratochvílová"
        },
        "effectiveDateTime": "2024-03-17T16:10:29Z",
        "specimen": {
          "reference": "urn:uuid:24ab619f-6469-43d0-ad91-ac31f5b9cb44"
        }
      }
    },
    {
      "fullUrl": "urn:uuid:37aeffb6-194d-4319-817f-ee902b3a3768",
      "resource": {
        "resourceType": "Observation",
        "id": "37aeffb6-194d-4319-817f-ee902b3a3768",
        "meta": {
          "profile": [
            "http://hl7.eu/fhir/laboratory/StructureDefinition/Observation-resultslab-eu-lab"
          ]
        },
        "performer": [
          {
            "display": "The Central European Lab"
          }
        ],
        "category": [
          {
            "coding": [
              {
                "system": "http://terminology.hl7.org/CodeSystem/observation-category",
                "code": "laboratory"
              }
            ]
          }
        ],
        "code": {
          "coding": [
            {
              "code": "5792-7",
              "system": "http://loinc.org",
              "display": "Glucose [Mass/volume] in Urine by Test strip"
            }
          ],
          "text": "Glucose [Mass/volume] in Urine by Test strip"
        },
        "valueQuantity": {
          "system": "http://unitsofmeasure.org",
          "value": 1.7,
          "unit": "mg/dL",
          "code": "mg/dL"
        },
        "referenceRange": [
          {
            "low": {
              "value": 0,
              "code": "mg/dL",
              "system": "http://unitsofmeasure.org"
            }
          },
          {
            "high": {
              "value": 0.8,
              "code": "mg/dL",
              "system": "http://unitsofmeasure.org"
            }
          }
        ],
        "interpretation": [
          {
            "coding": [
              {
                "code": "H",
                "system": "http://terminology.hl7.org/CodeSystem/v3-ObservationInterpretation",
                "display": "High"
              }
            ]
          }
        ],
        "text": {
          "status": "generated",
          "div": "<div xmlns=\"http://www.w3.org/1999/xhtml\"><table class=\"hl7__eu__lab__report\"><tr><th>Test</th><th>17-Mar-2024</th><th>Reference&#xA0;Range</th><th>Unit</th></tr><tr><td>Glucose [Mass/volume] in Urine by Test strip</td><td>1.7</td><td>0 - 0.8</td><td>H</td><td>mg/dL</td></tr></table></div>"
        },
        "status": "final",
        "subject": {
          "reference": "urn:uuid:31f316e3-29ff-4988-a644-c60555d44261",
          "display": "Iva Kratochvílová"
        },
        "effectiveDateTime": "2024-03-17T16:10:29Z",
        "specimen": {
          "reference": "urn:uuid:24ab619f-6469-43d0-ad91-ac31f5b9cb44"
        }
      }
    },
    {
      "fullUrl": "urn:uuid:2472811f-1710-4d04-8526-5aab5c161a82",
      "resource": {
        "resourceType": "Observation",
        "id": "2472811f-1710-4d04-8526-5aab5c161a82",
        "meta": {
          "profile": [
            "http://hl7.eu/fhir/laboratory/StructureDefinition/Observation-resultslab-eu-lab"
          ]
        },
        "performer": [
          {
            "display": "The Central European Lab"
          }
        ],
        "category": [
          {
            "coding": [
              {
                "system": "http://terminology.hl7.org/CodeSystem/observation-category",
                "code": "laboratory"
              }
            ]
          }
        ],
        "code": {
          "coding": [
            {
              "code": "25428-4",
              "system": "http://loinc.org",
              "display": "Glucose [Presence] in Urine by Test strip"
            }
          ],
          "text": "Glucose [Presence] in Urine by Test strip"
        },
        "text": {
          "status": "generated",
          "div": "<div xmlns=\"http://www.w3.org/1999/xhtml\"><table class=\"hl7__eu__lab__report\"><tr><th>Test</th><th>17-Mar-2024</th><th>Reference&#xA0;Range</th><th>Unit</th></tr><tr><td>Glucose [Presence] in Urine by Test strip</td></tr></table></div>"
        },
        "status": "final",
        "subject": {
          "reference": "urn:uuid:31f316e3-29ff-4988-a644-c60555d44261",
          "display": "Iva Kratochvílová"
        },
        "effectiveDateTime": "2024-03-17T16:10:29Z",
        "specimen": {
          "reference": "urn:uuid:24ab619f-6469-43d0-ad91-ac31f5b9cb44"
        }
      }
    },
    {
      "fullUrl": "urn:uuid:b78a003f-c99a-4eb0-8297-b616258a95b0",
      "resource": {
        "resourceType": "Observation",
        "id": "b78a003f-c99a-4eb0-8297-b616258a95b0",
        "meta": {
          "profile": [
            "http://hl7.eu/fhir/laboratory/StructureDefinition/Observation-resultslab-eu-lab"
          ]
        },
        "performer": [
          {
            "display": "The Central European Lab"
          }
        ],
        "category": [
          {
            "coding": [
              {
                "system": "http://terminology.hl7.org/CodeSystem/observation-category",
                "code": "laboratory"
              }
            ]
          }
        ],
        "code": {
          "coding": [
            {
              "code": "20505-4",
              "system": "http://loinc.org",
              "display": "Bilirubin.total [Mass/volume] in Urine by Test strip"
            }
          ],
          "text": "Bilirubin.total [Mass/volume] in Urine by Test strip"
        },
        "valueQuantity": {
          "system": "http://unitsofmeasure.org",
          "value": 1,
          "unit": "mg/dL",
          "code": "mg/dL"
        },
        "referenceRange": [
          {
            "low": {
              "value": 0,
              "code": "mg/dL",
              "system": "http://unitsofmeasure.org"
            }
          },
          {
            "high": {
              "value": 1,
              "code": "mg/dL",
              "system": "http://unitsofmeasure.org"
            }
          }
        ],
        "text": {
          "status": "generated",
          "div": "<div xmlns=\"http://www.w3.org/1999/xhtml\"><table class=\"hl7__eu__lab__report\"><tr><th>Test</th><th>17-Mar-2024</th><th>Reference&#xA0;Range</th><th>Unit</th></tr><tr><td>Bilirubin.total [Mass/volume] in Urine by Test strip</td><td>1.0</td><td>0 - 1</td><td></td><td>mg/dL</td></tr></table></div>"
        },
        "status": "final",
        "subject": {
          "reference": "urn:uuid:31f316e3-29ff-4988-a644-c60555d44261",
          "display": "Iva Kratochvílová"
        },
        "effectiveDateTime": "2024-03-17T16:10:29Z",
        "specimen": {
          "reference": "urn:uuid:24ab619f-6469-43d0-ad91-ac31f5b9cb44"
        }
      }
    },
    {
      "fullUrl": "urn:uuid:c10ec549-b7cf-4724-a1f8-74bcb5bc77bb",
      "resource": {
        "resourceType": "Observation",
        "id": "c10ec549-b7cf-4724-a1f8-74bcb5bc77bb",
        "meta": {
          "profile": [
            "http://hl7.eu/fhir/laboratory/StructureDefinition/Observation-resultslab-eu-lab"
          ]
        },
        "performer": [
          {
            "display": "The Central European Lab"
          }
        ],
        "category": [
          {
            "coding": [
              {
                "system": "http://terminology.hl7.org/CodeSystem/observation-category",
                "code": "laboratory"
              }
            ]
          }
        ],
        "code": {
          "coding": [
            {
              "code": "5770-3",
              "system": "http://loinc.org",
              "display": "Bilirubin.total [Presence] in Urine by Test strip"
            }
          ],
          "text": "Bilirubin.total [Presence] in Urine by Test strip"
        },
        "text": {
          "status": "generated",
          "div": "<div xmlns=\"http://www.w3.org/1999/xhtml\"><table class=\"hl7__eu__lab__report\"><tr><th>Test</th><th>17-Mar-2024</th><th>Reference&#xA0;Range</th><th>Unit</th></tr><tr><td>Bilirubin.total [Presence] in Urine by Test strip</td></tr></table></div>"
        },
        "status": "final",
        "subject": {
          "reference": "urn:uuid:31f316e3-29ff-4988-a644-c60555d44261",
          "display": "Iva Kratochvílová"
        },
        "effectiveDateTime": "2024-03-17T16:10:29Z",
        "specimen": {
          "reference": "urn:uuid:24ab619f-6469-43d0-ad91-ac31f5b9cb44"
        }
      }
    },
    {
      "fullUrl": "urn:uuid:6912abae-98c0-40ac-92b4-2b39817d6cc2",
      "resource": {
        "resourceType": "Observation",
        "id": "6912abae-98c0-40ac-92b4-2b39817d6cc2",
        "meta": {
          "profile": [
            "http://hl7.eu/fhir/laboratory/StructureDefinition/Observation-resultslab-eu-lab"
          ]
        },
        "performer": [
          {
            "display": "The Central European Lab"
          }
        ],
        "category": [
          {
            "coding": [
              {
                "system": "http://terminology.hl7.org/CodeSystem/observation-category",
                "code": "laboratory"
              }
            ]
          }
        ],
        "code": {
          "coding": [
            {
              "code": "5797-6",
              "system": "http://loinc.org",
              "display": "Ketones [Mass/volume] in Urine by Test strip"
            }
          ],
          "text": "Ketones [Mass/volume] in Urine by Test strip"
        },
        "valueQuantity": {
          "system": "http://unitsofmeasure.org",
          "value": 17.6,
          "unit": "mg/dL",
          "code": "mg/dL"
        },
        "referenceRange": [
          {
            "low": {
              "value": 0,
              "code": "mg/dL",
              "system": "http://unitsofmeasure.org"
            }
          },
          {
            "high": {
              "value": 4,
              "code": "mg/dL",
              "system": "http://unitsofmeasure.org"
            }
          }
        ],
        "interpretation": [
          {
            "coding": [
              {
                "code": "H",
                "system": "http://terminology.hl7.org/CodeSystem/v3-ObservationInterpretation",
                "display": "High"
              }
            ]
          }
        ],
        "text": {
          "status": "generated",
          "div": "<div xmlns=\"http://www.w3.org/1999/xhtml\"><table class=\"hl7__eu__lab__report\"><tr><th>Test</th><th>17-Mar-2024</th><th>Reference&#xA0;Range</th><th>Unit</th></tr><tr><td>Ketones [Mass/volume] in Urine by Test strip</td><td>17.6</td><td>0 - 4</td><td>H</td><td>mg/dL</td></tr></table></div>"
        },
        "status": "final",
        "subject": {
          "reference": "urn:uuid:31f316e3-29ff-4988-a644-c60555d44261",
          "display": "Iva Kratochvílová"
        },
        "effectiveDateTime": "2024-03-17T16:10:29Z",
        "specimen": {
          "reference": "urn:uuid:24ab619f-6469-43d0-ad91-ac31f5b9cb44"
        }
      }
    },
    {
      "fullUrl": "urn:uuid:96aff4ce-a9e4-43b7-b658-d72bb371129f",
      "resource": {
        "resourceType": "Observation",
        "id": "96aff4ce-a9e4-43b7-b658-d72bb371129f",
        "meta": {
          "profile": [
            "http://hl7.eu/fhir/laboratory/StructureDefinition/Observation-resultslab-eu-lab"
          ]
        },
        "performer": [
          {
            "display": "The Central European Lab"
          }
        ],
        "category": [
          {
            "coding": [
              {
                "system": "http://terminology.hl7.org/CodeSystem/observation-category",
                "code": "laboratory"
              }
            ]
          }
        ],
        "code": {
          "coding": [
            {
              "code": "2514-8",
              "system": "http://loinc.org",
              "display": "Ketones [Presence] in Urine by Test strip"
            }
          ],
          "text": "Ketones [Presence] in Urine by Test strip"
        },
        "text": {
          "status": "generated",
          "div": "<div xmlns=\"http://www.w3.org/1999/xhtml\"><table class=\"hl7__eu__lab__report\"><tr><th>Test</th><th>17-Mar-2024</th><th>Reference&#xA0;Range</th><th>Unit</th></tr><tr><td>Ketones [Presence] in Urine by Test strip</td></tr></table></div>"
        },
        "status": "final",
        "subject": {
          "reference": "urn:uuid:31f316e3-29ff-4988-a644-c60555d44261",
          "display": "Iva Kratochvílová"
        },
        "effectiveDateTime": "2024-03-17T16:10:29Z",
        "specimen": {
          "reference": "urn:uuid:24ab619f-6469-43d0-ad91-ac31f5b9cb44"
        }
      }
    },
    {
      "fullUrl": "urn:uuid:cf8daaca-d50b-4c77-a482-21efe5c9a1fa",
      "resource": {
        "resourceType": "Observation",
        "id": "cf8daaca-d50b-4c77-a482-21efe5c9a1fa",
        "meta": {
          "profile": [
            "http://hl7.eu/fhir/laboratory/StructureDefinition/Observation-resultslab-eu-lab"
          ]
        },
        "performer": [
          {
            "display": "The Central European Lab"
          }
        ],
        "category": [
          {
            "coding": [
              {
                "system": "http://terminology.hl7.org/CodeSystem/observation-category",
                "code": "laboratory"
              }
            ]
          }
        ],
        "code": {
          "coding": [
            {
              "code": "5811-5",
              "system": "http://loinc.org",
              "display": "Specific gravity of Urine by Test strip"
            }
          ],
          "text": "Specific gravity of Urine by Test strip"
        },
        "valueQuantity": {
          "system": "http://unitsofmeasure.org",
          "value": 1,
          "unit": "{nominal}",
          "code": "{nominal}"
        },
        "referenceRange": [
          {
            "low": {
              "value": 1.005,
              "code": "g/mL",
              "system": "http://unitsofmeasure.org"
            }
          },
          {
            "high": {
              "value": 1.03,
              "code": "g/mL",
              "system": "http://unitsofmeasure.org"
            }
          }
        ],
        "interpretation": [
          {
            "coding": [
              {
                "code": "L",
                "system": "http://terminology.hl7.org/CodeSystem/v3-ObservationInterpretation",
                "display": "Low"
              }
            ]
          }
        ],
        "text": {
          "status": "generated",
          "div": "<div xmlns=\"http://www.w3.org/1999/xhtml\"><table class=\"hl7__eu__lab__report\"><tr><th>Test</th><th>17-Mar-2024</th><th>Reference&#xA0;Range</th><th>Unit</th></tr><tr><td>Specific gravity of Urine by Test strip</td><td>1.0</td><td>1.005 - 1.03</td><td>L</td><td>{nominal}</td></tr></table></div>"
        },
        "status": "final",
        "subject": {
          "reference": "urn:uuid:31f316e3-29ff-4988-a644-c60555d44261",
          "display": "Iva Kratochvílová"
        },
        "effectiveDateTime": "2024-03-17T16:10:29Z",
        "specimen": {
          "reference": "urn:uuid:24ab619f-6469-43d0-ad91-ac31f5b9cb44"
        }
      }
    },
    {
      "fullUrl": "urn:uuid:0ce71f7c-d5a7-482d-92d9-93f155ebff2a",
      "resource": {
        "resourceType": "Observation",
        "id": "0ce71f7c-d5a7-482d-92d9-93f155ebff2a",
        "meta": {
          "profile": [
            "http://hl7.eu/fhir/laboratory/StructureDefinition/Observation-resultslab-eu-lab"
          ]
        },
        "performer": [
          {
            "display": "The Central European Lab"
          }
        ],
        "category": [
          {
            "coding": [
              {
                "system": "http://terminology.hl7.org/CodeSystem/observation-category",
                "code": "laboratory"
              }
            ]
          }
        ],
        "code": {
          "coding": [
            {
              "code": "5803-2",
              "system": "http://loinc.org",
              "display": "pH of Urine by Test strip"
            }
          ],
          "text": "pH of Urine by Test strip"
        },
        "valueQuantity": {
          "system": "http://unitsofmeasure.org",
          "value": 5.1,
          "unit": "pH",
          "code": "pH"
        },
        "referenceRange": [
          {
            "low": {
              "value": 4.5,
              "code": "pH",
              "system": "http://unitsofmeasure.org"
            }
          },
          {
            "high": {
              "value": 7,
              "code": "pH",
              "system": "http://unitsofmeasure.org"
            }
          }
        ],
        "text": {
          "status": "generated",
          "div": "<div xmlns=\"http://www.w3.org/1999/xhtml\"><table class=\"hl7__eu__lab__report\"><tr><th>Test</th><th>17-Mar-2024</th><th>Reference&#xA0;Range</th><th>Unit</th></tr><tr><td>pH of Urine by Test strip</td><td>5.1</td><td>4.5 - 7</td><td></td><td>pH</td></tr></table></div>"
        },
        "status": "final",
        "subject": {
          "reference": "urn:uuid:31f316e3-29ff-4988-a644-c60555d44261",
          "display": "Iva Kratochvílová"
        },
        "effectiveDateTime": "2024-03-17T16:10:29Z",
        "specimen": {
          "reference": "urn:uuid:24ab619f-6469-43d0-ad91-ac31f5b9cb44"
        }
      }
    },
    {
      "fullUrl": "urn:uuid:b816998d-602b-4569-bc9c-68c450653eb9",
      "resource": {
        "resourceType": "Observation",
        "id": "b816998d-602b-4569-bc9c-68c450653eb9",
        "meta": {
          "profile": [
            "http://hl7.eu/fhir/laboratory/StructureDefinition/Observation-resultslab-eu-lab"
          ]
        },
        "performer": [
          {
            "display": "The Central European Lab"
          }
        ],
        "category": [
          {
            "coding": [
              {
                "system": "http://terminology.hl7.org/CodeSystem/observation-category",
                "code": "laboratory"
              }
            ]
          }
        ],
        "code": {
          "coding": [
            {
              "code": "5804-0",
              "system": "http://loinc.org",
              "display": "Protein [Mass/volume] in Urine by Test strip"
            }
          ],
          "text": "Protein [Mass/volume] in Urine by Test strip"
        },
        "valueQuantity": {
          "system": "http://unitsofmeasure.org",
          "value": 172.5,
          "unit": "mg/dL",
          "code": "mg/dL"
        },
        "referenceRange": [
          {
            "low": {
              "value": 0,
              "code": "mg/dL",
              "system": "http://unitsofmeasure.org"
            }
          },
          {
            "high": {
              "value": 145,
              "code": "mg/dL",
              "system": "http://unitsofmeasure.org"
            }
          }
        ],
        "interpretation": [
          {
            "coding": [
              {
                "code": "H",
                "system": "http://terminology.hl7.org/CodeSystem/v3-ObservationInterpretation",
                "display": "High"
              }
            ]
          }
        ],
        "text": {
          "status": "generated",
          "div": "<div xmlns=\"http://www.w3.org/1999/xhtml\"><table class=\"hl7__eu__lab__report\"><tr><th>Test</th><th>17-Mar-2024</th><th>Reference&#xA0;Range</th><th>Unit</th></tr><tr><td>Protein [Mass/volume] in Urine by Test strip</td><td>172.5</td><td>0 - 145</td><td>H</td><td>mg/dL</td></tr></table></div>"
        },
        "status": "final",
        "subject": {
          "reference": "urn:uuid:31f316e3-29ff-4988-a644-c60555d44261",
          "display": "Iva Kratochvílová"
        },
        "effectiveDateTime": "2024-03-17T16:10:29Z",
        "specimen": {
          "reference": "urn:uuid:24ab619f-6469-43d0-ad91-ac31f5b9cb44"
        }
      }
    },
    {
      "fullUrl": "urn:uuid:a2eeea06-d9a9-432d-a2af-74772e1c77bd",
      "resource": {
        "resourceType": "Observation",
        "id": "a2eeea06-d9a9-432d-a2af-74772e1c77bd",
        "meta": {
          "profile": [
            "http://hl7.eu/fhir/laboratory/StructureDefinition/Observation-resultslab-eu-lab"
          ]
        },
        "performer": [
          {
            "display": "The Central European Lab"
          }
        ],
        "category": [
          {
            "coding": [
              {
                "system": "http://terminology.hl7.org/CodeSystem/observation-category",
                "code": "laboratory"
              }
            ]
          }
        ],
        "code": {
          "coding": [
            {
              "code": "20454-5",
              "system": "http://loinc.org",
              "display": "Protein [Presence] in Urine by Test strip"
            }
          ],
          "text": "Protein [Presence] in Urine by Test strip"
        },
        "text": {
          "status": "generated",
          "div": "<div xmlns=\"http://www.w3.org/1999/xhtml\"><table class=\"hl7__eu__lab__report\"><tr><th>Test</th><th>17-Mar-2024</th><th>Reference&#xA0;Range</th><th>Unit</th></tr><tr><td>Protein [Presence] in Urine by Test strip</td></tr></table></div>"
        },
        "status": "final",
        "subject": {
          "reference": "urn:uuid:31f316e3-29ff-4988-a644-c60555d44261",
          "display": "Iva Kratochvílová"
        },
        "effectiveDateTime": "2024-03-17T16:10:29Z",
        "specimen": {
          "reference": "urn:uuid:24ab619f-6469-43d0-ad91-ac31f5b9cb44"
        }
      }
    },
    {
      "fullUrl": "urn:uuid:ee97e5e1-b3d3-47ff-b9ac-604e8f3b56cb",
      "resource": {
        "resourceType": "Observation",
        "id": "ee97e5e1-b3d3-47ff-b9ac-604e8f3b56cb",
        "meta": {
          "profile": [
            "http://hl7.eu/fhir/laboratory/StructureDefinition/Observation-resultslab-eu-lab"
          ]
        },
        "performer": [
          {
            "display": "The Central European Lab"
          }
        ],
        "category": [
          {
            "coding": [
              {
                "system": "http://terminology.hl7.org/CodeSystem/observation-category",
                "code": "laboratory"
              }
            ]
          }
        ],
        "code": {
          "coding": [
            {
              "code": "5802-4",
              "system": "http://loinc.org",
              "display": "Nitrite [Presence] in Urine by Test strip"
            }
          ],
          "text": "Nitrite [Presence] in Urine by Test strip"
        },
        "text": {
          "status": "generated",
          "div": "<div xmlns=\"http://www.w3.org/1999/xhtml\"><table class=\"hl7__eu__lab__report\"><tr><th>Test</th><th>17-Mar-2024</th><th>Reference&#xA0;Range</th><th>Unit</th></tr><tr><td>Nitrite [Presence] in Urine by Test strip</td></tr></table></div>"
        },
        "status": "final",
        "subject": {
          "reference": "urn:uuid:31f316e3-29ff-4988-a644-c60555d44261",
          "display": "Iva Kratochvílová"
        },
        "effectiveDateTime": "2024-03-17T16:10:29Z",
        "specimen": {
          "reference": "urn:uuid:24ab619f-6469-43d0-ad91-ac31f5b9cb44"
        }
      }
    },
    {
      "fullUrl": "urn:uuid:f101623a-ace7-4d8c-93c9-a85576bdce9d",
      "resource": {
        "resourceType": "Observation",
        "id": "f101623a-ace7-4d8c-93c9-a85576bdce9d",
        "meta": {
          "profile": [
            "http://hl7.eu/fhir/laboratory/StructureDefinition/Observation-resultslab-eu-lab"
          ]
        },
        "performer": [
          {
            "display": "The Central European Lab"
          }
        ],
        "category": [
          {
            "coding": [
              {
                "system": "http://terminology.hl7.org/CodeSystem/observation-category",
                "code": "laboratory"
              }
            ]
          }
        ],
        "code": {
          "coding": [
            {
              "code": "5794-3",
              "system": "http://loinc.org",
              "display": "Hemoglobin [Presence] in Urine by Test strip"
            }
          ],
          "text": "Hemoglobin [Presence] in Urine by Test strip"
        },
        "text": {
          "status": "generated",
          "div": "<div xmlns=\"http://www.w3.org/1999/xhtml\"><table class=\"hl7__eu__lab__report\"><tr><th>Test</th><th>17-Mar-2024</th><th>Reference&#xA0;Range</th><th>Unit</th></tr><tr><td>Hemoglobin [Presence] in Urine by Test strip</td></tr></table></div>"
        },
        "status": "final",
        "subject": {
          "reference": "urn:uuid:31f316e3-29ff-4988-a644-c60555d44261",
          "display": "Iva Kratochvílová"
        },
        "effectiveDateTime": "2024-03-17T16:10:29Z",
        "specimen": {
          "reference": "urn:uuid:24ab619f-6469-43d0-ad91-ac31f5b9cb44"
        }
      }
    },
    {
      "fullUrl": "urn:uuid:3089abaf-9f70-4dcd-b644-e03ea1811879",
      "resource": {
        "resourceType": "Observation",
        "id": "3089abaf-9f70-4dcd-b644-e03ea1811879",
        "meta": {
          "profile": [
            "http://hl7.eu/fhir/laboratory/StructureDefinition/Observation-resultslab-eu-lab"
          ]
        },
        "performer": [
          {
            "display": "The Central European Lab"
          }
        ],
        "category": [
          {
            "coding": [
              {
                "system": "http://terminology.hl7.org/CodeSystem/observation-category",
                "code": "laboratory"
              }
            ]
          }
        ],
        "code": {
          "coding": [
            {
              "code": "5799-2",
              "system": "http://loinc.org",
              "display": "Leukocyte esterase [Presence] in Urine by Test strip"
            }
          ],
          "text": "Leukocyte esterase [Presence] in Urine by Test strip"
        },
        "text": {
          "status": "generated",
          "div": "<div xmlns=\"http://www.w3.org/1999/xhtml\"><table class=\"hl7__eu__lab__report\"><tr><th>Test</th><th>17-Mar-2024</th><th>Reference&#xA0;Range</th><th>Unit</th></tr><tr><td>Leukocyte esterase [Presence] in Urine by Test strip</td></tr></table></div>"
        },
        "status": "final",
        "subject": {
          "reference": "urn:uuid:31f316e3-29ff-4988-a644-c60555d44261",
          "display": "Iva Kratochvílová"
        },
        "effectiveDateTime": "2024-03-17T16:10:29Z",
        "specimen": {
          "reference": "urn:uuid:24ab619f-6469-43d0-ad91-ac31f5b9cb44"
        }
      }
    },
    {
      "fullUrl": "urn:uuid:4081e4d8-9f8f-4683-8da4-6c87cf4356ef",
      "resource": {
        "resourceType": "Observation",
        "id": "4081e4d8-9f8f-4683-8da4-6c87cf4356ef",
        "meta": {
          "profile": [
            "http://hl7.eu/fhir/laboratory/StructureDefinition/Observation-resultslab-eu-lab"
          ]
        },
        "performer": [
          {
            "display": "The Central European Lab"
          }
        ],
        "category": [
          {
            "coding": [
              {
                "system": "http://terminology.hl7.org/CodeSystem/observation-category",
                "code": "laboratory"
              }
            ]
          }
        ],
        "code": {
          "coding": [
            {
              "code": "4548-4",
              "system": "http://loinc.org",
              "display": "Hemoglobin A1c/Hemoglobin.total in Blood"
            }
          ],
          "text": "Hemoglobin A1c/Hemoglobin.total in Blood"
        },
        "valueQuantity": {
          "system": "http://unitsofmeasure.org",
          "value": 3.3,
          "unit": "%",
          "code": "%"
        },
        "referenceRange": [
          {
            "low": {
              "value": 4,
              "code": "%",
              "system": "http://unitsofmeasure.org"
            }
          },
          {
            "high": {
              "value": 6,
              "code": "%",
              "system": "http://unitsofmeasure.org"
            }
          }
        ],
        "interpretation": [
          {
            "coding": [
              {
                "code": "L",
                "system": "http://terminology.hl7.org/CodeSystem/v3-ObservationInterpretation",
                "display": "Low"
              }
            ]
          }
        ],
        "text": {
          "status": "generated",
          "div": "<div xmlns=\"http://www.w3.org/1999/xhtml\"><table class=\"hl7__eu__lab__report\"><tr><th>Test</th><th>17-Mar-2024</th><th>Reference&#xA0;Range</th><th>Unit</th></tr><tr><td>Hemoglobin A1c/Hemoglobin.total in Blood</td><td>3.3</td><td>4 - 6</td><td>L</td><td>%</td></tr></table></div>"
        },
        "status": "final",
        "subject": {
          "reference": "urn:uuid:31f316e3-29ff-4988-a644-c60555d44261",
          "display": "Iva Kratochvílová"
        },
        "effectiveDateTime": "2024-03-17T16:10:29Z",
        "specimen": {
          "reference": "urn:uuid:e04b1ba8-e09a-4397-b272-074d315ddc6b"
        }
      }
    },
    {
      "fullUrl": "urn:uuid:6e15a7f9-e7e6-453c-b327-7173a2a173ba",
      "resource": {
        "resourceType": "Observation",
        "id": "6e15a7f9-e7e6-453c-b327-7173a2a173ba",
        "meta": {
          "profile": [
            "http://hl7.eu/fhir/laboratory/StructureDefinition/Observation-resultslab-eu-lab"
          ]
        },
        "performer": [
          {
            "display": "The Central European Lab"
          }
        ],
        "category": [
          {
            "coding": [
              {
                "system": "http://terminology.hl7.org/CodeSystem/observation-category",
                "code": "laboratory"
              }
            ]
          }
        ],
        "code": {
          "coding": [
            {
              "code": "2339-0",
              "system": "http://loinc.org",
              "display": "Glucose [Mass/volume] in Blood"
            }
          ],
          "text": "Glucose [Mass/volume] in Blood"
        },
        "valueQuantity": {
          "system": "http://unitsofmeasure.org",
          "value": 98.6,
          "unit": "mg/dL",
          "code": "mg/dL"
        },
        "referenceRange": [
          {
            "low": {
              "value": 70,
              "code": "mg/dL",
              "system": "http://unitsofmeasure.org"
            }
          },
          {
            "high": {
              "value": 140,
              "code": "mg/dL",
              "system": "http://unitsofmeasure.org"
            }
          }
        ],
        "text": {
          "status": "generated",
          "div": "<div xmlns=\"http://www.w3.org/1999/xhtml\"><table class=\"hl7__eu__lab__report\"><tr><th>Test</th><th>17-Mar-2024</th><th>Reference&#xA0;Range</th><th>Unit</th></tr><tr><td>Glucose [Mass/volume] in Blood</td><td>98.6</td><td>70 - 140</td><td></td><td>mg/dL</td></tr></table></div>"
        },
        "status": "final",
        "subject": {
          "reference": "urn:uuid:31f316e3-29ff-4988-a644-c60555d44261",
          "display": "Iva Kratochvílová"
        },
        "effectiveDateTime": "2024-03-17T16:10:29Z",
        "specimen": {
          "reference": "urn:uuid:e04b1ba8-e09a-4397-b272-074d315ddc6b"
        }
      }
    },
    {
      "fullUrl": "urn:uuid:ebd40ac6-3da2-4a7b-b918-5d578db9a756",
      "resource": {
        "resourceType": "Observation",
        "id": "ebd40ac6-3da2-4a7b-b918-5d578db9a756",
        "meta": {
          "profile": [
            "http://hl7.eu/fhir/laboratory/StructureDefinition/Observation-resultslab-eu-lab"
          ]
        },
        "performer": [
          {
            "display": "The Central European Lab"
          }
        ],
        "category": [
          {
            "coding": [
              {
                "system": "http://terminology.hl7.org/CodeSystem/observation-category",
                "code": "laboratory"
              }
            ]
          }
        ],
        "code": {
          "coding": [
            {
              "code": "6299-2",
              "system": "http://loinc.org",
              "display": "Urea nitrogen [Mass/volume] in Blood"
            }
          ],
          "text": "Urea nitrogen [Mass/volume] in Blood"
        },
        "valueQuantity": {
          "system": "http://unitsofmeasure.org",
          "value": 8.9,
          "unit": "mg/dL",
          "code": "mg/dL"
        },
        "referenceRange": [
          {
            "low": {
              "value": 7,
              "code": "mg/dL",
              "system": "http://unitsofmeasure.org"
            }
          },
          {
            "high": {
              "value": 25,
              "code": "mg/dL",
              "system": "http://unitsofmeasure.org"
            }
          }
        ],
        "text": {
          "status": "generated",
          "div": "<div xmlns=\"http://www.w3.org/1999/xhtml\"><table class=\"hl7__eu__lab__report\"><tr><th>Test</th><th>17-Mar-2024</th><th>Reference&#xA0;Range</th><th>Unit</th></tr><tr><td>Urea nitrogen [Mass/volume] in Blood</td><td>8.9</td><td>7 - 25</td><td></td><td>mg/dL</td></tr></table></div>"
        },
        "status": "final",
        "subject": {
          "reference": "urn:uuid:31f316e3-29ff-4988-a644-c60555d44261",
          "display": "Iva Kratochvílová"
        },
        "effectiveDateTime": "2024-03-17T16:10:29Z",
        "specimen": {
          "reference": "urn:uuid:e04b1ba8-e09a-4397-b272-074d315ddc6b"
        }
      }
    },
    {
      "fullUrl": "urn:uuid:908b97f7-cce8-4c6b-b365-29e41cda85aa",
      "resource": {
        "resourceType": "Observation",
        "id": "908b97f7-cce8-4c6b-b365-29e41cda85aa",
        "meta": {
          "profile": [
            "http://hl7.eu/fhir/laboratory/StructureDefinition/Observation-resultslab-eu-lab"
          ]
        },
        "performer": [
          {
            "display": "The Central European Lab"
          }
        ],
        "category": [
          {
            "coding": [
              {
                "system": "http://terminology.hl7.org/CodeSystem/observation-category",
                "code": "laboratory"
              }
            ]
          }
        ],
        "code": {
          "coding": [
            {
              "code": "38483-4",
              "system": "http://loinc.org",
              "display": "Creatinine [Mass/volume] in Blood"
            }
          ],
          "text": "Creatinine [Mass/volume] in Blood"
        },
        "valueQuantity": {
          "system": "http://unitsofmeasure.org",
          "value": 2.2,
          "unit": "mg/dL",
          "code": "mg/dL"
        },
        "referenceRange": [
          {
            "low": {
              "value": 0.6,
              "code": "mg/dL",
              "system": "http://unitsofmeasure.org"
            }
          },
          {
            "high": {
              "value": 1.1,
              "code": "mg/dL",
              "system": "http://unitsofmeasure.org"
            }
          }
        ],
        "interpretation": [
          {
            "coding": [
              {
                "code": "H",
                "system": "http://terminology.hl7.org/CodeSystem/v3-ObservationInterpretation",
                "display": "High"
              }
            ]
          }
        ],
        "text": {
          "status": "generated",
          "div": "<div xmlns=\"http://www.w3.org/1999/xhtml\"><table class=\"hl7__eu__lab__report\"><tr><th>Test</th><th>17-Mar-2024</th><th>Reference&#xA0;Range</th><th>Unit</th></tr><tr><td>Creatinine [Mass/volume] in Blood</td><td>2.2</td><td>0.6 - 1.1</td><td>H</td><td>mg/dL</td></tr></table></div>"
        },
        "status": "final",
        "subject": {
          "reference": "urn:uuid:31f316e3-29ff-4988-a644-c60555d44261",
          "display": "Iva Kratochvílová"
        },
        "effectiveDateTime": "2024-03-17T16:10:29Z",
        "specimen": {
          "reference": "urn:uuid:e04b1ba8-e09a-4397-b272-074d315ddc6b"
        }
      }
    },
    {
      "fullUrl": "urn:uuid:4af22093-94fa-402c-a8bf-7e34cac07bd9",
      "resource": {
        "resourceType": "Observation",
        "id": "4af22093-94fa-402c-a8bf-7e34cac07bd9",
        "meta": {
          "profile": [
            "http://hl7.eu/fhir/laboratory/StructureDefinition/Observation-resultslab-eu-lab"
          ]
        },
        "performer": [
          {
            "display": "The Central European Lab"
          }
        ],
        "category": [
          {
            "coding": [
              {
                "system": "http://terminology.hl7.org/CodeSystem/observation-category",
                "code": "laboratory"
              }
            ]
          }
        ],
        "code": {
          "coding": [
            {
              "code": "49765-1",
              "system": "http://loinc.org",
              "display": "Calcium [Mass/volume] in Blood"
            }
          ],
          "text": "Calcium [Mass/volume] in Blood"
        },
        "valueQuantity": {
          "system": "http://unitsofmeasure.org",
          "value": 8.9,
          "unit": "mg/dL",
          "code": "mg/dL"
        },
        "referenceRange": [
          {
            "low": {
              "value": 8.6,
              "code": "mg/dL",
              "system": "http://unitsofmeasure.org"
            }
          },
          {
            "high": {
              "value": 10.4,
              "code": "mg/dL",
              "system": "http://unitsofmeasure.org"
            }
          }
        ],
        "text": {
          "status": "generated",
          "div": "<div xmlns=\"http://www.w3.org/1999/xhtml\"><table class=\"hl7__eu__lab__report\"><tr><th>Test</th><th>17-Mar-2024</th><th>Reference&#xA0;Range</th><th>Unit</th></tr><tr><td>Calcium [Mass/volume] in Blood</td><td>8.9</td><td>8.6 - 10.4</td><td></td><td>mg/dL</td></tr></table></div>"
        },
        "status": "final",
        "subject": {
          "reference": "urn:uuid:31f316e3-29ff-4988-a644-c60555d44261",
          "display": "Iva Kratochvílová"
        },
        "effectiveDateTime": "2024-03-17T16:10:29Z",
        "specimen": {
          "reference": "urn:uuid:e04b1ba8-e09a-4397-b272-074d315ddc6b"
        }
      }
    },
    {
      "fullUrl": "urn:uuid:d03df768-4739-4d82-9e46-27d9ad07fb5a",
      "resource": {
        "resourceType": "Observation",
        "id": "d03df768-4739-4d82-9e46-27d9ad07fb5a",
        "meta": {
          "profile": [
            "http://hl7.eu/fhir/laboratory/StructureDefinition/Observation-resultslab-eu-lab"
          ]
        },
        "performer": [
          {
            "display": "The Central European Lab"
          }
        ],
        "category": [
          {
            "coding": [
              {
                "system": "http://terminology.hl7.org/CodeSystem/observation-category",
                "code": "laboratory"
              }
            ]
          }
        ],
        "code": {
          "coding": [
            {
              "code": "2947-0",
              "system": "http://loinc.org",
              "display": "Sodium [Moles/volume] in Blood"
            }
          ],
          "text": "Sodium [Moles/volume] in Blood"
        },
        "valueQuantity": {
          "system": "http://unitsofmeasure.org",
          "value": 139.4,
          "unit": "mmol/L",
          "code": "mmol/L"
        },
        "referenceRange": [
          {
            "low": {
              "value": 135,
              "code": "mmol/L",
              "system": "http://unitsofmeasure.org"
            }
          },
          {
            "high": {
              "value": 145,
              "code": "mmol/L",
              "system": "http://unitsofmeasure.org"
            }
          }
        ],
        "text": {
          "status": "generated",
          "div": "<div xmlns=\"http://www.w3.org/1999/xhtml\"><table class=\"hl7__eu__lab__report\"><tr><th>Test</th><th>17-Mar-2024</th><th>Reference&#xA0;Range</th><th>Unit</th></tr><tr><td>Sodium [Moles/volume] in Blood</td><td>139.4</td><td>135 - 145</td><td></td><td>mmol/L</td></tr></table></div>"
        },
        "status": "final",
        "subject": {
          "reference": "urn:uuid:31f316e3-29ff-4988-a644-c60555d44261",
          "display": "Iva Kratochvílová"
        },
        "effectiveDateTime": "2024-03-17T16:10:29Z",
        "specimen": {
          "reference": "urn:uuid:e04b1ba8-e09a-4397-b272-074d315ddc6b"
        }
      }
    },
    {
      "fullUrl": "urn:uuid:0b09919c-9687-4f4f-a00f-1ae02d11dc53",
      "resource": {
        "resourceType": "Observation",
        "id": "0b09919c-9687-4f4f-a00f-1ae02d11dc53",
        "meta": {
          "profile": [
            "http://hl7.eu/fhir/laboratory/StructureDefinition/Observation-resultslab-eu-lab"
          ]
        },
        "performer": [
          {
            "display": "The Central European Lab"
          }
        ],
        "category": [
          {
            "coding": [
              {
                "system": "http://terminology.hl7.org/CodeSystem/observation-category",
                "code": "laboratory"
              }
            ]
          }
        ],
        "code": {
          "coding": [
            {
              "code": "6298-4",
              "system": "http://loinc.org",
              "display": "Potassium [Moles/volume] in Blood"
            }
          ],
          "text": "Potassium [Moles/volume] in Blood"
        },
        "valueQuantity": {
          "system": "http://unitsofmeasure.org",
          "value": 5.1,
          "unit": "mmol/L",
          "code": "mmol/L"
        },
        "referenceRange": [
          {
            "low": {
              "value": 3.5,
              "code": "mmol/L",
              "system": "http://unitsofmeasure.org"
            }
          },
          {
            "high": {
              "value": 5.1,
              "code": "mmol/L",
              "system": "http://unitsofmeasure.org"
            }
          }
        ],
        "text": {
          "status": "generated",
          "div": "<div xmlns=\"http://www.w3.org/1999/xhtml\"><table class=\"hl7__eu__lab__report\"><tr><th>Test</th><th>17-Mar-2024</th><th>Reference&#xA0;Range</th><th>Unit</th></tr><tr><td>Potassium [Moles/volume] in Blood</td><td>5.1</td><td>3.5 - 5.1</td><td></td><td>mmol/L</td></tr></table></div>"
        },
        "status": "final",
        "subject": {
          "reference": "urn:uuid:31f316e3-29ff-4988-a644-c60555d44261",
          "display": "Iva Kratochvílová"
        },
        "effectiveDateTime": "2024-03-17T16:10:29Z",
        "specimen": {
          "reference": "urn:uuid:e04b1ba8-e09a-4397-b272-074d315ddc6b"
        }
      }
    },
    {
      "fullUrl": "urn:uuid:ad530cd9-36a0-4ee3-b8f7-ee9068d606e9",
      "resource": {
        "resourceType": "Observation",
        "id": "ad530cd9-36a0-4ee3-b8f7-ee9068d606e9",
        "meta": {
          "profile": [
            "http://hl7.eu/fhir/laboratory/StructureDefinition/Observation-resultslab-eu-lab"
          ]
        },
        "performer": [
          {
            "display": "The Central European Lab"
          }
        ],
        "category": [
          {
            "coding": [
              {
                "system": "http://terminology.hl7.org/CodeSystem/observation-category",
                "code": "laboratory"
              }
            ]
          }
        ],
        "code": {
          "coding": [
            {
              "code": "2069-3",
              "system": "http://loinc.org",
              "display": "Chloride [Moles/volume] in Blood"
            }
          ],
          "text": "Chloride [Moles/volume] in Blood"
        },
        "valueQuantity": {
          "system": "http://unitsofmeasure.org",
          "value": 110.9,
          "unit": "mmol/L",
          "code": "mmol/L"
        },
        "referenceRange": [
          {
            "low": {
              "value": 98,
              "code": "mmol/L",
              "system": "http://unitsofmeasure.org"
            }
          },
          {
            "high": {
              "value": 110,
              "code": "mmol/L",
              "system": "http://unitsofmeasure.org"
            }
          }
        ],
        "interpretation": [
          {
            "coding": [
              {
                "code": "H",
                "system": "http://terminology.hl7.org/CodeSystem/v3-ObservationInterpretation",
                "display": "High"
              }
            ]
          }
        ],
        "text": {
          "status": "generated",
          "div": "<div xmlns=\"http://www.w3.org/1999/xhtml\"><table class=\"hl7__eu__lab__report\"><tr><th>Test</th><th>17-Mar-2024</th><th>Reference&#xA0;Range</th><th>Unit</th></tr><tr><td>Chloride [Moles/volume] in Blood</td><td>110.9</td><td>98 - 110</td><td>H</td><td>mmol/L</td></tr></table></div>"
        },
        "status": "final",
        "subject": {
          "reference": "urn:uuid:31f316e3-29ff-4988-a644-c60555d44261",
          "display": "Iva Kratochvílová"
        },
        "effectiveDateTime": "2024-03-17T16:10:29Z",
        "specimen": {
          "reference": "urn:uuid:e04b1ba8-e09a-4397-b272-074d315ddc6b"
        }
      }
    },
    {
      "fullUrl": "urn:uuid:2bd80d44-541c-4067-995b-d8c634d1b517",
      "resource": {
        "resourceType": "Observation",
        "id": "2bd80d44-541c-4067-995b-d8c634d1b517",
        "meta": {
          "profile": [
            "http://hl7.eu/fhir/laboratory/StructureDefinition/Observation-resultslab-eu-lab"
          ]
        },
        "performer": [
          {
            "display": "The Central European Lab"
          }
        ],
        "category": [
          {
            "coding": [
              {
                "system": "http://terminology.hl7.org/CodeSystem/observation-category",
                "code": "laboratory"
              }
            ]
          }
        ],
        "code": {
          "coding": [
            {
              "code": "20565-8",
              "system": "http://loinc.org",
              "display": "Carbon dioxide, total [Moles/volume] in Blood"
            }
          ],
          "text": "Carbon dioxide, total [Moles/volume] in Blood"
        },
        "valueQuantity": {
          "system": "http://unitsofmeasure.org",
          "value": 28.7,
          "unit": "mmol/L",
          "code": "mmol/L"
        },
        "referenceRange": [
          {
            "low": {
              "value": 22,
              "code": "mmol/L",
              "system": "http://unitsofmeasure.org"
            }
          },
          {
            "high": {
              "value": 29,
              "code": "mmol/L",
              "system": "http://unitsofmeasure.org"
            }
          }
        ],
        "text": {
          "status": "generated",
          "div": "<div xmlns=\"http://www.w3.org/1999/xhtml\"><table class=\"hl7__eu__lab__report\"><tr><th>Test</th><th>17-Mar-2024</th><th>Reference&#xA0;Range</th><th>Unit</th></tr><tr><td>Carbon dioxide, total [Moles/volume] in Blood</td><td>28.7</td><td>22 - 29</td><td></td><td>mmol/L</td></tr></table></div>"
        },
        "status": "final",
        "subject": {
          "reference": "urn:uuid:31f316e3-29ff-4988-a644-c60555d44261",
          "display": "Iva Kratochvílová"
        },
        "effectiveDateTime": "2024-03-17T16:10:29Z",
        "specimen": {
          "reference": "urn:uuid:e04b1ba8-e09a-4397-b272-074d315ddc6b"
        }
      }
    },
    {
      "fullUrl": "urn:uuid:352a95a3-9f72-4db8-b55a-c84d687883cf",
      "resource": {
        "resourceType": "Observation",
        "id": "352a95a3-9f72-4db8-b55a-c84d687883cf",
        "meta": {
          "profile": [
            "http://hl7.eu/fhir/laboratory/StructureDefinition/Observation-resultslab-eu-lab"
          ]
        },
        "performer": [
          {
            "display": "The Central European Lab"
          }
        ],
        "category": [
          {
            "coding": [
              {
                "system": "http://terminology.hl7.org/CodeSystem/observation-category",
                "code": "laboratory"
              }
            ]
          }
        ],
        "code": {
          "coding": [
            {
              "code": "6690-2",
              "system": "http://loinc.org",
              "display": "Leukocytes [#/volume] in Blood by Automated count"
            }
          ],
          "text": "Leukocytes [#/volume] in Blood by Automated count"
        },
        "valueQuantity": {
          "system": "http://unitsofmeasure.org",
          "value": 6.4,
          "unit": "10*3/uL",
          "code": "10*3/uL"
        },
        "referenceRange": [
          {
            "low": {
              "value": 3.4,
              "code": "10*3/uL",
              "system": "http://unitsofmeasure.org"
            }
          },
          {
            "high": {
              "value": 10.6,
              "code": "10*3/uL",
              "system": "http://unitsofmeasure.org"
            }
          }
        ],
        "text": {
          "status": "generated",
          "div": "<div xmlns=\"http://www.w3.org/1999/xhtml\"><table class=\"hl7__eu__lab__report\"><tr><th>Test</th><th>17-Mar-2024</th><th>Reference&#xA0;Range</th><th>Unit</th></tr><tr><td>Leukocytes [#/volume] in Blood by Automated count</td><td>6.4</td><td>3.4 - 10.6</td><td></td><td>10*3/uL</td></tr></table></div>"
        },
        "status": "final",
        "subject": {
          "reference": "urn:uuid:31f316e3-29ff-4988-a644-c60555d44261",
          "display": "Iva Kratochvílová"
        },
        "effectiveDateTime": "2024-03-17T16:10:29Z",
        "specimen": {
          "reference": "urn:uuid:e04b1ba8-e09a-4397-b272-074d315ddc6b"
        }
      }
    },
    {
      "fullUrl": "urn:uuid:2bb23cf1-a456-422d-9e64-67406540bb02",
      "resource": {
        "resourceType": "Observation",
        "id": "2bb23cf1-a456-422d-9e64-67406540bb02",
        "meta": {
          "profile": [
            "http://hl7.eu/fhir/laboratory/StructureDefinition/Observation-resultslab-eu-lab"
          ]
        },
        "performer": [
          {
            "display": "The Central European Lab"
          }
        ],
        "category": [
          {
            "coding": [
              {
                "system": "http://terminology.hl7.org/CodeSystem/observation-category",
                "code": "laboratory"
              }
            ]
          }
        ],
        "code": {
          "coding": [
            {
              "code": "789-8",
              "system": "http://loinc.org",
              "display": "Erythrocytes [#/volume] in Blood by Automated count"
            }
          ],
          "text": "Erythrocytes [#/volume] in Blood by Automated count"
        },
        "valueQuantity": {
          "system": "http://unitsofmeasure.org",
          "value": 4.5,
          "unit": "10*6/uL",
          "code": "10*6/uL"
        },
        "referenceRange": [
          {
            "low": {
              "value": 4.2,
              "code": "10*6/uL",
              "system": "http://unitsofmeasure.org"
            }
          },
          {
            "high": {
              "value": 5.2,
              "code": "10*6/uL",
              "system": "http://unitsofmeasure.org"
            }
          }
        ],
        "text": {
          "status": "generated",
          "div": "<div xmlns=\"http://www.w3.org/1999/xhtml\"><table class=\"hl7__eu__lab__report\"><tr><th>Test</th><th>17-Mar-2024</th><th>Reference&#xA0;Range</th><th>Unit</th></tr><tr><td>Erythrocytes [#/volume] in Blood by Automated count</td><td>4.5</td><td>4.2 - 5.2</td><td></td><td>10*6/uL</td></tr></table></div>"
        },
        "status": "final",
        "subject": {
          "reference": "urn:uuid:31f316e3-29ff-4988-a644-c60555d44261",
          "display": "Iva Kratochvílová"
        },
        "effectiveDateTime": "2024-03-17T16:10:29Z",
        "specimen": {
          "reference": "urn:uuid:e04b1ba8-e09a-4397-b272-074d315ddc6b"
        }
      }
    },
    {
      "fullUrl": "urn:uuid:24e49ae2-33c9-4462-95bb-0e97ab68a83e",
      "resource": {
        "resourceType": "Observation",
        "id": "24e49ae2-33c9-4462-95bb-0e97ab68a83e",
        "meta": {
          "profile": [
            "http://hl7.eu/fhir/laboratory/StructureDefinition/Observation-resultslab-eu-lab"
          ]
        },
        "performer": [
          {
            "display": "The Central European Lab"
          }
        ],
        "category": [
          {
            "coding": [
              {
                "system": "http://terminology.hl7.org/CodeSystem/observation-category",
                "code": "laboratory"
              }
            ]
          }
        ],
        "code": {
          "coding": [
            {
              "code": "718-7",
              "system": "http://loinc.org",
              "display": "Hemoglobin [Mass/volume] in Blood"
            }
          ],
          "text": "Hemoglobin [Mass/volume] in Blood"
        },
        "valueQuantity": {
          "system": "http://unitsofmeasure.org",
          "value": 12.5,
          "unit": "g/dL",
          "code": "g/dL"
        },
        "referenceRange": [
          {
            "low": {
              "value": 12,
              "code": "g/dL",
              "system": "http://unitsofmeasure.org"
            }
          },
          {
            "high": {
              "value": 16,
              "code": "g/dL",
              "system": "http://unitsofmeasure.org"
            }
          }
        ],
        "text": {
          "status": "generated",
          "div": "<div xmlns=\"http://www.w3.org/1999/xhtml\"><table class=\"hl7__eu__lab__report\"><tr><th>Test</th><th>17-Mar-2024</th><th>Reference&#xA0;Range</th><th>Unit</th></tr><tr><td>Hemoglobin [Mass/volume] in Blood</td><td>12.5</td><td>12 - 16</td><td></td><td>g/dL</td></tr></table></div>"
        },
        "status": "final",
        "subject": {
          "reference": "urn:uuid:31f316e3-29ff-4988-a644-c60555d44261",
          "display": "Iva Kratochvílová"
        },
        "effectiveDateTime": "2024-03-17T16:10:29Z",
        "specimen": {
          "reference": "urn:uuid:e04b1ba8-e09a-4397-b272-074d315ddc6b"
        }
      }
    },
    {
      "fullUrl": "urn:uuid:328a72c0-5ced-4667-b6b7-d55308e195d3",
      "resource": {
        "resourceType": "Observation",
        "id": "328a72c0-5ced-4667-b6b7-d55308e195d3",
        "meta": {
          "profile": [
            "http://hl7.eu/fhir/laboratory/StructureDefinition/Observation-resultslab-eu-lab"
          ]
        },
        "performer": [
          {
            "display": "The Central European Lab"
          }
        ],
        "category": [
          {
            "coding": [
              {
                "system": "http://terminology.hl7.org/CodeSystem/observation-category",
                "code": "laboratory"
              }
            ]
          }
        ],
        "code": {
          "coding": [
            {
              "code": "4544-3",
              "system": "http://loinc.org",
              "display": "Hematocrit [Volume Fraction] of Blood by Automated count"
            }
          ],
          "text": "Hematocrit [Volume Fraction] of Blood by Automated count"
        },
        "valueQuantity": {
          "system": "http://unitsofmeasure.org",
          "value": 41.4,
          "unit": "%",
          "code": "%"
        },
        "referenceRange": [
          {
            "low": {
              "value": 36,
              "code": "%",
              "system": "http://unitsofmeasure.org"
            }
          },
          {
            "high": {
              "value": 48,
              "code": "%",
              "system": "http://unitsofmeasure.org"
            }
          }
        ],
        "text": {
          "status": "generated",
          "div": "<div xmlns=\"http://www.w3.org/1999/xhtml\"><table class=\"hl7__eu__lab__report\"><tr><th>Test</th><th>17-Mar-2024</th><th>Reference&#xA0;Range</th><th>Unit</th></tr><tr><td>Hematocrit [Volume Fraction] of Blood by Automated count</td><td>41.4</td><td>36 - 48</td><td></td><td>%</td></tr></table></div>"
        },
        "status": "final",
        "subject": {
          "reference": "urn:uuid:31f316e3-29ff-4988-a644-c60555d44261",
          "display": "Iva Kratochvílová"
        },
        "effectiveDateTime": "2024-03-17T16:10:29Z",
        "specimen": {
          "reference": "urn:uuid:e04b1ba8-e09a-4397-b272-074d315ddc6b"
        }
      }
    },
    {
      "fullUrl": "urn:uuid:62a592a6-01bb-4d63-8a7e-ba170ad5b78f",
      "resource": {
        "resourceType": "Observation",
        "id": "62a592a6-01bb-4d63-8a7e-ba170ad5b78f",
        "meta": {
          "profile": [
            "http://hl7.eu/fhir/laboratory/StructureDefinition/Observation-resultslab-eu-lab"
          ]
        },
        "performer": [
          {
            "display": "The Central European Lab"
          }
        ],
        "category": [
          {
            "coding": [
              {
                "system": "http://terminology.hl7.org/CodeSystem/observation-category",
                "code": "laboratory"
              }
            ]
          }
        ],
        "code": {
          "coding": [
            {
              "code": "787-2",
              "system": "http://loinc.org",
              "display": "MCV [Entitic volume] by Automated count"
            }
          ],
          "text": "MCV [Entitic volume] by Automated count"
        },
        "valueQuantity": {
          "system": "http://unitsofmeasure.org",
          "value": 94.4,
          "unit": "fL",
          "code": "fL"
        },
        "referenceRange": [
          {
            "low": {
              "value": 82,
              "code": "fL",
              "system": "http://unitsofmeasure.org"
            }
          },
          {
            "high": {
              "value": 98,
              "code": "fL",
              "system": "http://unitsofmeasure.org"
            }
          }
        ],
        "text": {
          "status": "generated",
          "div": "<div xmlns=\"http://www.w3.org/1999/xhtml\"><table class=\"hl7__eu__lab__report\"><tr><th>Test</th><th>17-Mar-2024</th><th>Reference&#xA0;Range</th><th>Unit</th></tr><tr><td>MCV [Entitic volume] by Automated count</td><td>94.4</td><td>82 - 98</td><td></td><td>fL</td></tr></table></div>"
        },
        "status": "final",
        "subject": {
          "reference": "urn:uuid:31f316e3-29ff-4988-a644-c60555d44261",
          "display": "Iva Kratochvílová"
        },
        "effectiveDateTime": "2024-03-17T16:10:29Z",
        "specimen": {
          "reference": "urn:uuid:e04b1ba8-e09a-4397-b272-074d315ddc6b"
        }
      }
    },
    {
      "fullUrl": "urn:uuid:28586bba-70d1-4cda-8c79-43ee99d3fc4b",
      "resource": {
        "resourceType": "Observation",
        "id": "28586bba-70d1-4cda-8c79-43ee99d3fc4b",
        "meta": {
          "profile": [
            "http://hl7.eu/fhir/laboratory/StructureDefinition/Observation-resultslab-eu-lab"
          ]
        },
        "performer": [
          {
            "display": "The Central European Lab"
          }
        ],
        "category": [
          {
            "coding": [
              {
                "system": "http://terminology.hl7.org/CodeSystem/observation-category",
                "code": "laboratory"
              }
            ]
          }
        ],
        "code": {
          "coding": [
            {
              "code": "785-6",
              "system": "http://loinc.org",
              "display": "MCH [Entitic mass] by Automated count"
            }
          ],
          "text": "MCH [Entitic mass] by Automated count"
        },
        "valueQuantity": {
          "system": "http://unitsofmeasure.org",
          "value": 30.1,
          "unit": "pg",
          "code": "pg"
        },
        "referenceRange": [
          {
            "low": {
              "value": 27,
              "code": "pg",
              "system": "http://unitsofmeasure.org"
            }
          },
          {
            "high": {
              "value": 33,
              "code": "pg",
              "system": "http://unitsofmeasure.org"
            }
          }
        ],
        "text": {
          "status": "generated",
          "div": "<div xmlns=\"http://www.w3.org/1999/xhtml\"><table class=\"hl7__eu__lab__report\"><tr><th>Test</th><th>17-Mar-2024</th><th>Reference&#xA0;Range</th><th>Unit</th></tr><tr><td>MCH [Entitic mass] by Automated count</td><td>30.1</td><td>27 - 33</td><td></td><td>pg</td></tr></table></div>"
        },
        "status": "final",
        "subject": {
          "reference": "urn:uuid:31f316e3-29ff-4988-a644-c60555d44261",
          "display": "Iva Kratochvílová"
        },
        "effectiveDateTime": "2024-03-17T16:10:29Z",
        "specimen": {
          "reference": "urn:uuid:e04b1ba8-e09a-4397-b272-074d315ddc6b"
        }
      }
    },
    {
      "fullUrl": "urn:uuid:dbed3b05-9667-4403-83ca-42209e881f27",
      "resource": {
        "resourceType": "Observation",
        "id": "dbed3b05-9667-4403-83ca-42209e881f27",
        "meta": {
          "profile": [
            "http://hl7.eu/fhir/laboratory/StructureDefinition/Observation-resultslab-eu-lab"
          ]
        },
        "performer": [
          {
            "display": "The Central European Lab"
          }
        ],
        "category": [
          {
            "coding": [
              {
                "system": "http://terminology.hl7.org/CodeSystem/observation-category",
                "code": "laboratory"
              }
            ]
          }
        ],
        "code": {
          "coding": [
            {
              "code": "786-4",
              "system": "http://loinc.org",
              "display": "MCHC [Mass/volume] by Automated count"
            }
          ],
          "text": "MCHC [Mass/volume] by Automated count"
        },
        "valueQuantity": {
          "system": "http://unitsofmeasure.org",
          "value": 33.6,
          "unit": "g/dL",
          "code": "g/dL"
        },
        "referenceRange": [
          {
            "low": {
              "value": 32,
              "code": "g/dL",
              "system": "http://unitsofmeasure.org"
            }
          },
          {
            "high": {
              "value": 37,
              "code": "g/dL",
              "system": "http://unitsofmeasure.org"
            }
          }
        ],
        "text": {
          "status": "generated",
          "div": "<div xmlns=\"http://www.w3.org/1999/xhtml\"><table class=\"hl7__eu__lab__report\"><tr><th>Test</th><th>17-Mar-2024</th><th>Reference&#xA0;Range</th><th>Unit</th></tr><tr><td>MCHC [Mass/volume] by Automated count</td><td>33.6</td><td>32 - 37</td><td></td><td>g/dL</td></tr></table></div>"
        },
        "status": "final",
        "subject": {
          "reference": "urn:uuid:31f316e3-29ff-4988-a644-c60555d44261",
          "display": "Iva Kratochvílová"
        },
        "effectiveDateTime": "2024-03-17T16:10:29Z",
        "specimen": {
          "reference": "urn:uuid:e04b1ba8-e09a-4397-b272-074d315ddc6b"
        }
      }
    },
    {
      "fullUrl": "urn:uuid:7648a3f6-f71f-475d-9603-6bff64531c73",
      "resource": {
        "resourceType": "Observation",
        "id": "7648a3f6-f71f-475d-9603-6bff64531c73",
        "meta": {
          "profile": [
            "http://hl7.eu/fhir/laboratory/StructureDefinition/Observation-resultslab-eu-lab"
          ]
        },
        "performer": [
          {
            "display": "The Central European Lab"
          }
        ],
        "category": [
          {
            "coding": [
              {
                "system": "http://terminology.hl7.org/CodeSystem/observation-category",
                "code": "laboratory"
              }
            ]
          }
        ],
        "code": {
          "coding": [
            {
              "code": "21000-5",
              "system": "http://loinc.org",
              "display": "Erythrocyte distribution width [Entitic volume] by Automated count"
            }
          ],
          "text": "Erythrocyte distribution width [Entitic volume] by Automated count"
        },
        "valueQuantity": {
          "system": "http://unitsofmeasure.org",
          "value": 43.7,
          "unit": "fL",
          "code": "fL"
        },
        "referenceRange": [
          {
            "low": {
              "value": 36,
              "code": "fL",
              "system": "http://unitsofmeasure.org"
            }
          },
          {
            "high": {
              "value": 46,
              "code": "fL",
              "system": "http://unitsofmeasure.org"
            }
          }
        ],
        "text": {
          "status": "generated",
          "div": "<div xmlns=\"http://www.w3.org/1999/xhtml\"><table class=\"hl7__eu__lab__report\"><tr><th>Test</th><th>17-Mar-2024</th><th>Reference&#xA0;Range</th><th>Unit</th></tr><tr><td>Erythrocyte distribution width [Entitic volume] by Automated count</td><td>43.7</td><td>36 - 46</td><td></td><td>fL</td></tr></table></div>"
        },
        "status": "final",
        "subject": {
          "reference": "urn:uuid:31f316e3-29ff-4988-a644-c60555d44261",
          "display": "Iva Kratochvílová"
        },
        "effectiveDateTime": "2024-03-17T16:10:29Z",
        "specimen": {
          "reference": "urn:uuid:e04b1ba8-e09a-4397-b272-074d315ddc6b"
        }
      }
    },
    {
      "fullUrl": "urn:uuid:b8ffbe13-96a1-40ad-94f9-0f732f373b64",
      "resource": {
        "resourceType": "Observation",
        "id": "b8ffbe13-96a1-40ad-94f9-0f732f373b64",
        "meta": {
          "profile": [
            "http://hl7.eu/fhir/laboratory/StructureDefinition/Observation-resultslab-eu-lab"
          ]
        },
        "performer": [
          {
            "display": "The Central European Lab"
          }
        ],
        "category": [
          {
            "coding": [
              {
                "system": "http://terminology.hl7.org/CodeSystem/observation-category",
                "code": "laboratory"
              }
            ]
          }
        ],
        "code": {
          "coding": [
            {
              "code": "777-3",
              "system": "http://loinc.org",
              "display": "Platelets [#/volume] in Blood by Automated count"
            }
          ],
          "text": "Platelets [#/volume] in Blood by Automated count"
        },
        "valueQuantity": {
          "system": "http://unitsofmeasure.org",
          "value": 426.2,
          "unit": "10*3/uL",
          "code": "10*3/uL"
        },
        "referenceRange": [
          {
            "low": {
              "value": 150,
              "code": "10*3/uL",
              "system": "http://unitsofmeasure.org"
            }
          },
          {
            "high": {
              "value": 450,
              "code": "10*3/uL",
              "system": "http://unitsofmeasure.org"
            }
          }
        ],
        "text": {
          "status": "generated",
          "div": "<div xmlns=\"http://www.w3.org/1999/xhtml\"><table class=\"hl7__eu__lab__report\"><tr><th>Test</th><th>17-Mar-2024</th><th>Reference&#xA0;Range</th><th>Unit</th></tr><tr><td>Platelets [#/volume] in Blood by Automated count</td><td>426.2</td><td>150 - 450</td><td></td><td>10*3/uL</td></tr></table></div>"
        },
        "status": "final",
        "subject": {
          "reference": "urn:uuid:31f316e3-29ff-4988-a644-c60555d44261",
          "display": "Iva Kratochvílová"
        },
        "effectiveDateTime": "2024-03-17T16:10:29Z",
        "specimen": {
          "reference": "urn:uuid:e04b1ba8-e09a-4397-b272-074d315ddc6b"
        }
      }
    },
    {
      "fullUrl": "urn:uuid:2da4808d-192c-42d0-ab54-d4f674403733",
      "resource": {
        "resourceType": "Observation",
        "id": "2da4808d-192c-42d0-ab54-d4f674403733",
        "meta": {
          "profile": [
            "http://hl7.eu/fhir/laboratory/StructureDefinition/Observation-resultslab-eu-lab"
          ]
        },
        "performer": [
          {
            "display": "The Central European Lab"
          }
        ],
        "category": [
          {
            "coding": [
              {
                "system": "http://terminology.hl7.org/CodeSystem/observation-category",
                "code": "laboratory"
              }
            ]
          }
        ],
        "code": {
          "coding": [
            {
              "code": "32207-3",
              "system": "http://loinc.org",
              "display": "Platelet distribution width [Entitic volume] in Blood by Automated count"
            }
          ],
          "text": "Platelet distribution width [Entitic volume] in Blood by Automated count"
        },
        "valueQuantity": {
          "system": "http://unitsofmeasure.org",
          "value": 300,
          "unit": "fL",
          "code": "fL"
        },
        "referenceRange": [
          {
            "low": {
              "value": 11.6,
              "code": "fL",
              "system": "http://unitsofmeasure.org"
            }
          },
          {
            "high": {
              "value": 17.4,
              "code": "fL",
              "system": "http://unitsofmeasure.org"
            }
          }
        ],
        "interpretation": [
          {
            "coding": [
              {
                "code": "H",
                "system": "http://terminology.hl7.org/CodeSystem/v3-ObservationInterpretation",
                "display": "High"
              }
            ]
          }
        ],
        "text": {
          "status": "generated",
          "div": "<div xmlns=\"http://www.w3.org/1999/xhtml\"><table class=\"hl7__eu__lab__report\"><tr><th>Test</th><th>17-Mar-2024</th><th>Reference&#xA0;Range</th><th>Unit</th></tr><tr><td>Platelet distribution width [Entitic volume] in Blood by Automated count</td><td>300.0</td><td>11.6 - 17.4</td><td>H</td><td>fL</td></tr></table></div>"
        },
        "status": "final",
        "subject": {
          "reference": "urn:uuid:31f316e3-29ff-4988-a644-c60555d44261",
          "display": "Iva Kratochvílová"
        },
        "effectiveDateTime": "2024-03-17T16:10:29Z",
        "specimen": {
          "reference": "urn:uuid:e04b1ba8-e09a-4397-b272-074d315ddc6b"
        }
      }
    },
    {
      "fullUrl": "urn:uuid:7c56b5f2-3864-4130-aabe-f54d6f3a18d3",
      "resource": {
        "resourceType": "Observation",
        "id": "7c56b5f2-3864-4130-aabe-f54d6f3a18d3",
        "meta": {
          "profile": [
            "http://hl7.eu/fhir/laboratory/StructureDefinition/Observation-resultslab-eu-lab"
          ]
        },
        "performer": [
          {
            "display": "The Central European Lab"
          }
        ],
        "category": [
          {
            "coding": [
              {
                "system": "http://terminology.hl7.org/CodeSystem/observation-category",
                "code": "laboratory"
              }
            ]
          }
        ],
        "code": {
          "coding": [
            {
              "code": "32623-1",
              "system": "http://loinc.org",
              "display": "Platelet mean volume [Entitic volume] in Blood by Automated count"
            }
          ],
          "text": "Platelet mean volume [Entitic volume] in Blood by Automated count"
        },
        "valueQuantity": {
          "system": "http://unitsofmeasure.org",
          "value": 9.4,
          "unit": "fL",
          "code": "fL"
        },
        "referenceRange": [
          {
            "low": {
              "value": 7.4,
              "code": "fL",
              "system": "http://unitsofmeasure.org"
            }
          },
          {
            "high": {
              "value": 12,
              "code": "fL",
              "system": "http://unitsofmeasure.org"
            }
          }
        ],
        "text": {
          "status": "generated",
          "div": "<div xmlns=\"http://www.w3.org/1999/xhtml\"><table class=\"hl7__eu__lab__report\"><tr><th>Test</th><th>17-Mar-2024</th><th>Reference&#xA0;Range</th><th>Unit</th></tr><tr><td>Platelet mean volume [Entitic volume] in Blood by Automated count</td><td>9.4</td><td>7.4 - 12</td><td></td><td>fL</td></tr></table></div>"
        },
        "status": "final",
        "subject": {
          "reference": "urn:uuid:31f316e3-29ff-4988-a644-c60555d44261",
          "display": "Iva Kratochvílová"
        },
        "effectiveDateTime": "2024-03-17T16:10:29Z",
        "specimen": {
          "reference": "urn:uuid:e04b1ba8-e09a-4397-b272-074d315ddc6b"
        }
      }
    },
    {
      "fullUrl": "urn:uuid:2bce1205-8663-4fad-8b82-00e22b4700f3",
      "resource": {
        "resourceType": "Device",
        "id": "2bce1205-8663-4fad-8b82-00e22b4700f3",
        "deviceName": [
          {
            "name": "SYNDERAI Synthetic Generator",
            "type": "manufacturer-name"
          }
        ],
        "version": [
          {
            "value": "5.0"
          }
        ],
        "text": {
          "status": "generated",
          "div": "<div xmlns=\"http://www.w3.org/1999/xhtml\">SYNDERAI Synthetic Generator v5.0</div>"
        },
        "status": "active\"",
        "distinctIdentifier": "synderai-generator-50",
        "manufacturer": "SYNDERAI Project"
      }
    },
    {
      "fullUrl": "urn:uuid:5fa8bdcc-6b38-45d6-a4de-2d7b86b4ff1b",
      "resource": {
        "resourceType": "Provenance",
        "id": "5fa8bdcc-6b38-45d6-a4de-2d7b86b4ff1b",
        "target": [
          {
            "reference": "Patient/31f316e3-29ff-4988-a644-c60555d44261"
          },
          {
            "reference": "Bundle/d318a505-cb0d-4f14-96f2-3dcdab7b4154"
          },
          {
            "reference": "Composition/885a4a29-c923-44da-a46c-6edf5a51b0b7"
          },
          {
            "reference": "PractitionerRole/686dfc8d-c4ff-4fc6-9908-4c9007c4a7d0"
          },
          {
            "reference": "Practitioner/79e26a6f-bf5a-4271-8891-64d1fb8bc711"
          },
          {
            "reference": "PractitionerRole/b2e95cbe-b04f-4c95-8eed-af9283e9b4c5"
          },
          {
            "reference": "Organization/15877d54-5d77-47a1-b9bf-cd4370f3ac46"
          }
        ],
        "activity": {
          "text": "Synthetic Example Data Generation"
        },
        "policy": [
          "https://synderai.net/synderai-synthetic-data-policy"
        ],
        "agent": [
          {
            "type": {
              "text": "author"
            },
            "who": {
              "reference": "Device/2bce1205-8663-4fad-8b82-00e22b4700f3"
            }
          }
        ],
        "reason": [
          {
            "text": "Interoperability Testing and Training (non-clinical use)"
          }
        ],
        "text": {
          "status": "generated",
          "div": "<div xmlns=\"http://www.w3.org/1999/xhtml\">Provenance for SYNDERAI Synthetic Example Data Resource</div>"
        },
        "recorded": "2024-03-17T17:10:29Z"
      }
    },
    {
      "fullUrl": "urn:uuid:686dfc8d-c4ff-4fc6-9908-4c9007c4a7d0",
      "resource": {
        "resourceType": "PractitionerRole",
        "id": "686dfc8d-c4ff-4fc6-9908-4c9007c4a7d0",
        "meta": {
          "profile": [
            "http://hl7.eu/fhir/base/StructureDefinition/practitionerRole-eu"
          ]
        },
        "text": {
          "status": "generated",
          "div": "<div xmlns=\"http://www.w3.org/1999/xhtml\">Laboratory Role Id: 686dfc8d-c4ff-4fc6-9908-4c9007c4a7d0</div>"
        },
        "practitioner": {
          "reference": "urn:uuid:79e26a6f-bf5a-4271-8891-64d1fb8bc711"
        }
      }
    },
    {
      "fullUrl": "urn:uuid:79e26a6f-bf5a-4271-8891-64d1fb8bc711",
      "resource": {
        "resourceType": "Practitioner",
        "id": "79e26a6f-bf5a-4271-8891-64d1fb8bc711",
        "meta": {
          "profile": [
            "http://hl7.eu/fhir/base/StructureDefinition/practitioner-eu"
          ]
        },
        "identifier": [
          {
            "assigner": {
              "display": "HL7 Europe"
            },
            "system": "urn:oid:2.16.840.1.113883.2.51.999",
            "value": "88a83f42-308b-4027-a63f-afced6e29c32"
          }
        ],
        "name": [
          {
            "prefix": [
              "dr"
            ],
            "given": [
              "Ex"
            ],
            "family": "Ample"
          }
        ],
        "address": [
          {
            "line": [
              "Laboratoire Central Européenne",
              "Boulevard du Jardin Botanique 32"
            ],
            "postalCode": "1000",
            "city": "Brussels",
            "country": "Belgium"
          }
        ],
        "text": {
          "status": "generated",
          "div": "<div xmlns=\"http://www.w3.org/1999/xhtml\">Laboratory: Laboratoire Central Européenne, 1000 Brussels, Belgium</div>"
        }
      }
    }
  ],
  "type": "document",
  "timestamp": "2024-03-17T17:10:29Z"
}
