{
  "resourceType": "Bundle",
  "id": "6882f6d1-bca6-447e-929b-39c778768e9e",
  "meta": {
    "profile": [
      "http://hl7.eu/fhir/laboratory/StructureDefinition/Bundle-eu-lab"
    ]
  },
  "identifier": {
    "assigner": {
      "display": "HL7 Europe"
    },
    "system": "urn:oid:2.16.840.1.113883.2.51.999",
    "value": "c404dc14-83b0-4f17-a464-7d7a2713c824"
  },
  "entry": [
    {
      "fullUrl": "urn:uuid:c3b89ef0-0aed-47e6-a6de-12809d5e1f02",
      "resource": {
        "resourceType": "Composition",
        "id": "c3b89ef0-0aed-47e6-a6de-12809d5e1f02",
        "meta": {
          "profile": [
            "http://hl7.eu/fhir/laboratory/StructureDefinition/Composition-eu-lab"
          ]
        },
        "identifier": {
          "assigner": {
            "display": "HL7 Europe"
          },
          "system": "urn:oid:2.16.840.1.113883.2.51.999",
          "value": "0396cb73-551b-40d0-b3f1-7607fa98bba7"
        },
        "author": [
          {
            "reference": "urn:uuid:70b737e2-cea4-4f99-ba03-8ea57ed2c4f0"
          }
        ],
        "category": [
          {
            "coding": [
              {
                "code": "26436-6",
                "system": "http://loinc.org",
                "display": "Laboratory studies (set)"
              }
            ]
          }
        ],
        "type": {
          "coding": [
            {
              "code": "11502-2",
              "system": "http://loinc.org",
              "display": "Laboratory report"
            }
          ],
          "text": "Laboratory Report"
        },
        "section": [
          {
            "code": {
              "coding": [
                {
                  "code": "26436-6",
                  "system": "http://loinc.org",
                  "display": "Laboratory studies (set)"
                }
              ],
              "text": "Laboratory studies"
            },
            "section": [
              {
                "code": {
                  "coding": [
                    {
                      "code": "$18719-5",
                      "system": "http://loinc.org",
                      "display": "Chemistry studies (set)"
                    }
                  ],
                  "text": "Chemistry"
                },
                "entry": [
                  {
                    "reference": "urn:uuid:49d179f0-fe95-42e9-9a16-1a5907139532"
                  },
                  {
                    "reference": "urn:uuid:2613b4b5-2183-4603-9ce4-39aaa269fe0a"
                  },
                  {
                    "reference": "urn:uuid:28e9ecc6-c21e-4052-bed2-1fe44b88df27"
                  },
                  {
                    "reference": "urn:uuid:74d3c1cd-fbde-4b1c-856c-c800ddb5c607"
                  },
                  {
                    "reference": "urn:uuid:1b818449-b82f-4bfe-b2d4-5e6556af3792"
                  },
                  {
                    "reference": "urn:uuid:aadfbce3-d63c-45ab-ae46-0f367940807a"
                  },
                  {
                    "reference": "urn:uuid:85e7ae3a-3ccc-4f40-9d7f-f407c6146067"
                  },
                  {
                    "reference": "urn:uuid:f57d99f4-f340-4a16-b9b2-95772c911fb2"
                  },
                  {
                    "reference": "urn:uuid:158da877-73a4-4a39-aa57-4ccc3d1bf893"
                  }
                ],
                "text": {
                  "status": "generated",
                  "div": "<div xmlns=\"http://www.w3.org/1999/xhtml\"><h3>Chemistry</h3><table class=\"hl7__eu__lab__report\"><thead><tr><th>Test</th><th>06-DEC-2022</th><th>Reference&#xA0;Range</th><th>Unit</th></tr></thead><tbody><tr><td>Glucose [Mass/volume] in Serum or Plasma</td><td>75.5</td><td>70 - 139</td><td>mg/dL</td></tr><tr><td>Urea nitrogen [Mass/volume] in Serum or Plasma</td><td>9.7</td><td>7 - 20</td><td>mg/dL</td></tr><tr><td>Creatinine [Mass/volume] in Serum or Plasma</td><td><strong>1.4 H</strong></td><td>0.6 - 1.1</td><td>mg/dL</td></tr><tr><td>Calcium [Mass/volume] in Serum or Plasma</td><td>8.5</td><td>8.5 - 10.4</td><td>mg/dL</td></tr><tr><td>Sodium [Moles/volume] in Serum or Plasma</td><td>142.0</td><td>135 - 145</td><td>mmol/L</td></tr><tr><td>Potassium [Moles/volume] in Serum or Plasma</td><td>4.1</td><td>3.5 - 5.1</td><td>mmol/L</td></tr><tr><td>Chloride [Moles/volume] in Serum or Plasma</td><td>106.8</td><td>98 - 110</td><td>mmol/L</td></tr><tr><td>Carbon dioxide, total [Moles/volume] in Serum or Plasma</td><td>22.3</td><td>22 - 32</td><td>mmol/L</td></tr><tr><td>Ketones [Presence] in Urine by Test strip</td><td>Urine ketone test = trace</td><td></td><td></td></tr></tbody></table></div>"
                },
                "title": "Chemistry"
              },
              {
                "code": {
                  "coding": [
                    {
                      "code": "$18729-4",
                      "system": "http://loinc.org",
                      "display": "Urinalysis studies (set)"
                    }
                  ],
                  "text": "Urinalysis"
                },
                "entry": [
                  {
                    "reference": "urn:uuid:b770a3d3-b011-4abd-8b7e-a60a9e06d406"
                  },
                  {
                    "reference": "urn:uuid:ceed3ba9-e168-4217-b88f-4742aae2344c"
                  },
                  {
                    "reference": "urn:uuid:c93fdefc-1a2d-4b5c-9056-2fb2b241814d"
                  },
                  {
                    "reference": "urn:uuid:effd4423-f2bd-4e7e-9715-a4e54bfd1a84"
                  },
                  {
                    "reference": "urn:uuid:1c8ef8ae-1f6b-42ab-834c-61fa52c798c1"
                  },
                  {
                    "reference": "urn:uuid:da8438de-1814-4b05-af79-8ed15c330ce0"
                  },
                  {
                    "reference": "urn:uuid:27cce79c-e340-4058-82c9-1438fc647fd8"
                  },
                  {
                    "reference": "urn:uuid:f7fb89da-2415-47ac-9a4f-7dc9f9965f3d"
                  },
                  {
                    "reference": "urn:uuid:e23d45ef-f60e-451a-9222-3583c0a94bb3"
                  },
                  {
                    "reference": "urn:uuid:0f650c5b-66be-440f-a7fc-16a06a589b97"
                  },
                  {
                    "reference": "urn:uuid:4ab8c407-11aa-4776-a0c5-49f6da2bb17f"
                  },
                  {
                    "reference": "urn:uuid:0abc5cce-e381-4dc6-bef3-c7aa589d2c78"
                  }
                ],
                "text": {
                  "status": "generated",
                  "div": "<div xmlns=\"http://www.w3.org/1999/xhtml\"><h3>Urinalysis</h3><table class=\"hl7__eu__lab__report\"><thead><tr><th>Test</th><th>06-DEC-2022</th><th>Reference&#xA0;Range</th><th>Unit</th></tr></thead><tbody><tr><td>Glucose [Mass/volume] in Urine by Test strip</td><td><strong>2.1 H</strong></td><td>0 - 0</td><td>mg/dL</td></tr><tr><td>Glucose [Presence] in Urine by Test strip</td><td>++</td><td></td><td></td></tr><tr><td>Bilirubin.total [Mass/volume] in Urine by Test strip</td><td>1.2</td><td>0 - 1.6</td><td>mg/dL</td></tr><tr><td>Bilirubin.total [Presence] in Urine by Test strip</td><td>Finding of bilirubin in urine</td><td></td><td></td></tr><tr><td>Ketones [Mass/volume] in Urine by Test strip</td><td><strong>10.9 H</strong></td><td>0 - 0.5</td><td>mg/dL</td></tr><tr><td>Specific gravity of Urine by Test strip</td><td><strong>1.0 L</strong></td><td>1.005 - 1.03</td><td>{nominal}</td></tr><tr><td>pH of Urine by Test strip</td><td>6.0</td><td>4.5 - 7.5</td><td>pH</td></tr><tr><td>Protein [Mass/volume] in Urine by Test strip</td><td><strong>80.7 H</strong></td><td>0 - 15</td><td>mg/dL</td></tr><tr><td>Protein [Presence] in Urine by Test strip</td><td>Urine protein test = +</td><td></td><td></td></tr><tr><td>Nitrite [Presence] in Urine by Test strip</td><td>Urine nitrite negative</td><td></td><td></td></tr><tr><td>Hemoglobin [Presence] in Urine by Test strip</td><td>Urine blood test = negative</td><td></td><td></td></tr><tr><td>Leukocyte esterase [Presence] in Urine by Test strip</td><td>Urine leukocyte test negative</td><td></td><td></td></tr></tbody></table></div>"
                },
                "title": "Urinalysis"
              },
              {
                "code": {
                  "coding": [
                    {
                      "code": "$LP7846-1",
                      "system": "http://loinc.org",
                      "display": "Specimen information"
                    }
                  ],
                  "text": "Specimen information"
                },
                "entry": [
                  {
                    "reference": "urn:uuid:b47520f1-2f8e-48f9-9c7f-67eca1a458ab"
                  },
                  {
                    "reference": "urn:uuid:e7d99166-afff-4877-a96b-7f55aa0eb022"
                  },
                  {
                    "reference": "urn:uuid:90ea96a0-cae0-4c20-b974-0db6850e417e"
                  },
                  {
                    "reference": "urn:uuid:c6879320-6ff7-45a3-9a60-c8b4f372ead3"
                  }
                ],
                "text": {
                  "status": "generated",
                  "div": "<div xmlns=\"http://www.w3.org/1999/xhtml\"><h3>Specimen information</h3><table class=\"hl7__eu__lab__report\"><thead><tr><th>Test</th><th>06-DEC-2022</th><th>Specimen</th><th></th></tr></thead><tbody><tr><td>Appearance of Urine</td><td>Cloudy urine</td><td>Urine</td><td></td></tr><tr><td>Odor of Urine</td><td>Urine smell ammoniacal</td><td>Urine</td><td></td></tr><tr><td>Clarity of Urine</td><td>Translucent</td><td>Urine</td><td></td></tr><tr><td>Color of Urine</td><td>Brown color</td><td>Urine</td><td></td></tr></tbody></table></div>"
                },
                "title": "Specimen information"
              }
            ],
            "title": "Laboratory Report"
          },
          {
            "text": {
              "status": "generated",
              "div": "<div xmlns=\"http://www.w3.org/1999/xhtml\"><h3>Annotation</h3><table class=\"hl7__eu__lab__report\"><tr><th>Conclusion and Recommendations based on this report and previous findings known to us</th></tr><tr><td>The patient shows elevated serum creatinine, suggesting possible renal impairment. Urinalysis reveals proteinuria, glucosuria, ketonuria, low specific gravity, and abnormal urine appearance (cloudy, brown, ammoniacal), but no evidence of infection (negative nitrites/leukocytes). These findings may indicate renal dysfunction, possibly with tubular involvement or early diabetic nephropathy. Clinical correlation and further nephrological evaluation are recommended.</td></tr></table></div>"
            },
            "code": {
              "coding": [
                {
                  "system": "http://loinc.org",
                  "code": "48767-8",
                  "display": "Annotation comment"
                }
              ]
            },
            "title": "Annotation comment"
          }
        ],
        "status": "final",
        "subject": {
          "reference": "urn:uuid:f34efb7d-489b-4dbb-ac49-2bc016c22ab1",
          "display": "Hortense Gallet"
        },
        "date": "2022-12-06T21:16:45Z",
        "title": "Laboratory Report",
        "confidentiality": "N"
      }
    },
    {
      "fullUrl": "urn:uuid:07855479-8a61-4d81-b150-4a5c02979d19",
      "resource": {
        "resourceType": "DiagnosticReport",
        "id": "07855479-8a61-4d81-b150-4a5c02979d19",
        "meta": {
          "profile": [
            "http://hl7.eu/fhir/laboratory/StructureDefinition/DiagnosticReport-eu-lab"
          ]
        },
        "identifier": [
          {
            "assigner": {
              "display": "HL7 Europe"
            },
            "system": "urn:oid:2.16.840.1.113883.2.51.999",
            "value": "fcfd836c-269a-46a9-8223-f8f83a521acc"
          }
        ],
        "extension": [
          {
            "url": "http://hl7.org/fhir/5.0/StructureDefinition/extension-DiagnosticReport.composition",
            "valueReference": {
              "reference": "urn:uuid:0396cb73-551b-40d0-b3f1-7607fa98bba7"
            }
          }
        ],
        "category": [
          {
            "coding": [
              {
                "code": "26436-6",
                "system": "http://loinc.org",
                "display": "Laboratory studies (set)"
              }
            ]
          }
        ],
        "specimen": [
          {
            "reference": "urn:uuid:35991be3-2b2f-43f2-a69d-3eeecd6a2115"
          },
          {
            "reference": "urn:uuid:4b82d9c3-7df5-4088-a3e8-cabfdbcfe7a7"
          }
        ],
        "result": [
          {
            "reference": "urn:uuid:49d179f0-fe95-42e9-9a16-1a5907139532"
          },
          {
            "reference": "urn:uuid:2613b4b5-2183-4603-9ce4-39aaa269fe0a"
          },
          {
            "reference": "urn:uuid:28e9ecc6-c21e-4052-bed2-1fe44b88df27"
          },
          {
            "reference": "urn:uuid:74d3c1cd-fbde-4b1c-856c-c800ddb5c607"
          },
          {
            "reference": "urn:uuid:1b818449-b82f-4bfe-b2d4-5e6556af3792"
          },
          {
            "reference": "urn:uuid:aadfbce3-d63c-45ab-ae46-0f367940807a"
          },
          {
            "reference": "urn:uuid:85e7ae3a-3ccc-4f40-9d7f-f407c6146067"
          },
          {
            "reference": "urn:uuid:f57d99f4-f340-4a16-b9b2-95772c911fb2"
          },
          {
            "reference": "urn:uuid:b47520f1-2f8e-48f9-9c7f-67eca1a458ab"
          },
          {
            "reference": "urn:uuid:e7d99166-afff-4877-a96b-7f55aa0eb022"
          },
          {
            "reference": "urn:uuid:90ea96a0-cae0-4c20-b974-0db6850e417e"
          },
          {
            "reference": "urn:uuid:c6879320-6ff7-45a3-9a60-c8b4f372ead3"
          },
          {
            "reference": "urn:uuid:b770a3d3-b011-4abd-8b7e-a60a9e06d406"
          },
          {
            "reference": "urn:uuid:ceed3ba9-e168-4217-b88f-4742aae2344c"
          },
          {
            "reference": "urn:uuid:c93fdefc-1a2d-4b5c-9056-2fb2b241814d"
          },
          {
            "reference": "urn:uuid:effd4423-f2bd-4e7e-9715-a4e54bfd1a84"
          },
          {
            "reference": "urn:uuid:1c8ef8ae-1f6b-42ab-834c-61fa52c798c1"
          },
          {
            "reference": "urn:uuid:158da877-73a4-4a39-aa57-4ccc3d1bf893"
          },
          {
            "reference": "urn:uuid:da8438de-1814-4b05-af79-8ed15c330ce0"
          },
          {
            "reference": "urn:uuid:27cce79c-e340-4058-82c9-1438fc647fd8"
          },
          {
            "reference": "urn:uuid:f7fb89da-2415-47ac-9a4f-7dc9f9965f3d"
          },
          {
            "reference": "urn:uuid:e23d45ef-f60e-451a-9222-3583c0a94bb3"
          },
          {
            "reference": "urn:uuid:0f650c5b-66be-440f-a7fc-16a06a589b97"
          },
          {
            "reference": "urn:uuid:4ab8c407-11aa-4776-a0c5-49f6da2bb17f"
          },
          {
            "reference": "urn:uuid:0abc5cce-e381-4dc6-bef3-c7aa589d2c78"
          }
        ],
        "status": "registered",
        "code": {
          "coding": [
            {
              "code": "11502-2",
              "system": "http://loinc.org",
              "display": "Laboratory report"
            }
          ]
        },
        "subject": {
          "reference": "urn:uuid:f34efb7d-489b-4dbb-ac49-2bc016c22ab1",
          "display": "Hortense Gallet"
        }
      }
    },
    {
      "fullUrl": "urn:uuid:f34efb7d-489b-4dbb-ac49-2bc016c22ab1",
      "resource": {
        "resourceType": "Patient",
        "id": "f34efb7d-489b-4dbb-ac49-2bc016c22ab1",
        "meta": {
          "security": [
            {
              "system": "http://terminology.hl7.org/CodeSystem/v3-ActReason",
              "code": "HTEST"
            },
            {
              "system": "http://terminology.hl7.org/CodeSystem/v3-ActReason",
              "code": "TRAIN"
            }
          ],
          "tag": [
            {
              "system": "https://synderai.net/fhir/CodeSystem/tags",
              "code": "synthetic",
              "display": "SYNDERAI Synthetic data"
            }
          ],
          "profile": [
            "http://hl7.eu/fhir/base/StructureDefinition/patient-eu-core"
          ]
        },
        "identifier": [
          {
            "type": {
              "coding": [
                {
                  "code": "PT",
                  "system": "http://terminology.hl7.org/CodeSystem/v2-0203"
                }
              ]
            },
            "system": "http://ec.europa.eu/identifier/eci",
            "value": "7727-126450-7"
          },
          {
            "type": {
              "coding": [
                {
                  "code": "MR",
                  "system": "http://terminology.hl7.org/CodeSystem/v2-0203"
                }
              ]
            },
            "system": "http://local.setting.eu/identifier",
            "value": "7f40b956-404d-dd5b-92ca-442ee97c8277"
          }
        ],
        "name": [
          {
            "family": "Gallet"
          },
          {
            "given": [
              "Hortense"
            ]
          },
          {
            "text": "Hortense Gallet"
          }
        ],
        "address": [
          {
            "line": [
              "98, boulevard de Faure"
            ],
            "use": "home",
            "type": "physical",
            "postalCode": "03210",
            "city": "Besson",
            "country": "France"
          }
        ],
        "telecom": [
          {
            "system": "phone",
            "value": "03 26 87 89 04"
          }
        ],
        "extension": [
          {
            "url": "http://hl7.org/fhir/StructureDefinition/patient-nationality",
            "valueCodeableConcept": {
              "coding": [
                {
                  "code": "FR",
                  "system": "http://hl7.org/fhir/ValueSet/country"
                }
              ]
            }
          }
        ],
        "text": {
          "status": "generated",
          "div": "<div xmlns=\"http://www.w3.org/1999/xhtml\"><table class=\"hl7__ips\"><tr><td>Hortense Gallet</td><td>female</td><td>14-Feb-1967</td></tr></table></div>"
        },
        "gender": "female",
        "birthDate": "1967-02-14"
      }
    },
    {
      "fullUrl": "urn:uuid:1ee24e26-29f9-45a9-8f08-c58754ce7e0c",
      "resource": {
        "resourceType": "ServiceRequest",
        "id": "1ee24e26-29f9-45a9-8f08-c58754ce7e0c",
        "meta": {
          "profile": [
            "http://hl7.eu/fhir/laboratory/StructureDefinition/ServiceRequest-eu-lab"
          ]
        },
        "identifier": [
          {
            "system": "http://example.org",
            "value": "b5000328-69e7-400f-acc4-591b890b9035"
          }
        ],
        "specimen": [
          {
            "reference": "urn:uuid:35991be3-2b2f-43f2-a69d-3eeecd6a2115"
          },
          {
            "reference": "urn:uuid:4b82d9c3-7df5-4088-a3e8-cabfdbcfe7a7"
          }
        ],
        "reasonCode": [
          {
            "coding": [
              {
                "code": "431856006",
                "system": "http://snomed.info/sct",
                "display": "Chronic kidney disease stage 2"
              }
            ]
          },
          {
            "coding": [
              {
                "code": "90781000119102",
                "system": "http://snomed.info/sct",
                "display": "Microalbuminuria due to type 2 diabetes mellitus"
              }
            ]
          },
          {
            "coding": [
              {
                "code": "127013003",
                "system": "http://snomed.info/sct",
                "display": "Disorder of kidney due to diabetes mellitus"
              }
            ]
          },
          {
            "coding": [
              {
                "code": "431855005",
                "system": "http://snomed.info/sct",
                "display": "Chronic kidney disease stage 1"
              }
            ]
          },
          {
            "coding": [
              {
                "code": "59621000",
                "system": "http://snomed.info/sct",
                "display": "Essential hypertension"
              }
            ]
          }
        ],
        "status": "active",
        "intent": "order",
        "code": {
          "coding": [
            {
              "code": "108252007",
              "system": "http://snomed.info/sct",
              "display": "Laboratory procedure"
            }
          ]
        },
        "subject": {
          "reference": "urn:uuid:f34efb7d-489b-4dbb-ac49-2bc016c22ab1",
          "display": "Hortense Gallet"
        },
        "requester": {
          "reference": "urn:uuid:c0c365aa-9ef2-4d2e-9949-1eff557c51a6"
        }
      }
    },
    {
      "fullUrl": "urn:uuid:c0c365aa-9ef2-4d2e-9949-1eff557c51a6",
      "resource": {
        "resourceType": "PractitionerRole",
        "id": "c0c365aa-9ef2-4d2e-9949-1eff557c51a6",
        "meta": {
          "profile": [
            "http://hl7.eu/fhir/base/StructureDefinition/practitionerRole-eu"
          ]
        },
        "text": {
          "status": "generated",
          "div": "<div xmlns=\"http://www.w3.org/1999/xhtml\">Provider Role Id: c0c365aa-9ef2-4d2e-9949-1eff557c51a6</div>"
        },
        "organization": {
          "reference": "urn:uuid:48700472-1d51-4535-be94-171ccb0b9a70"
        }
      }
    },
    {
      "fullUrl": "urn:uuid:48700472-1d51-4535-be94-171ccb0b9a70",
      "resource": {
        "resourceType": "Organization",
        "id": "48700472-1d51-4535-be94-171ccb0b9a70",
        "meta": {
          "profile": [
            "http://hl7.eu/fhir/base/StructureDefinition/organization-eu"
          ]
        },
        "identifier": [
          {
            "assigner": {
              "display": "HL7 Europe"
            },
            "system": "urn:oid:2.16.840.1.113883.2.51.999",
            "value": "73d892f0-8dd1-4bbc-b83c-b59b47ea6a59"
          }
        ],
        "address": [
          {
            "line": [
              "Rue Jean Jaurès 140"
            ],
            "city": "Vichy",
            "postalCode": "03200",
            "country": "France"
          }
        ],
        "text": {
          "status": "generated",
          "div": "<div xmlns=\"http://www.w3.org/1999/xhtml\">Provider Organization: Centre La Chrysalide</div>"
        },
        "name": "Centre La Chrysalide"
      }
    },
    {
      "fullUrl": "urn:uuid:35991be3-2b2f-43f2-a69d-3eeecd6a2115",
      "resource": {
        "resourceType": "Specimen",
        "id": "35991be3-2b2f-43f2-a69d-3eeecd6a2115",
        "meta": {
          "profile": [
            "http://hl7.eu/fhir/laboratory/StructureDefinition/Specimen-eu-lab"
          ]
        },
        "collection": {
          "collectedDateTime": "2022-12-06"
        },
        "text": {
          "status": "generated",
          "div": "<div xmlns=\"http://www.w3.org/1999/xhtml\"><table class=\"hl7__eu__lab__report\"><tr><th>Specimen</th><th>Collection Date</th></tr><tr><td>Acellular blood (serum or plasma) specimen</td><td><span class=\"nb\">06-Dec-2022</span></td></tr></table></div>"
        },
        "type": {
          "coding": [
            {
              "code": "122592007",
              "system": "http://snomed.info/sct",
              "display": "Acellular blood (serum or plasma) specimen"
            }
          ]
        }
      }
    },
    {
      "fullUrl": "urn:uuid:4b82d9c3-7df5-4088-a3e8-cabfdbcfe7a7",
      "resource": {
        "resourceType": "Specimen",
        "id": "4b82d9c3-7df5-4088-a3e8-cabfdbcfe7a7",
        "meta": {
          "profile": [
            "http://hl7.eu/fhir/laboratory/StructureDefinition/Specimen-eu-lab"
          ]
        },
        "collection": {
          "collectedDateTime": "2022-12-06"
        },
        "text": {
          "status": "generated",
          "div": "<div xmlns=\"http://www.w3.org/1999/xhtml\"><table class=\"hl7__eu__lab__report\"><tr><th>Specimen</th><th>Collection Date</th></tr><tr><td>Urine specimen</td><td><span class=\"nb\">06-Dec-2022</span></td></tr></table></div>"
        },
        "type": {
          "coding": [
            {
              "code": "122575003",
              "system": "http://snomed.info/sct",
              "display": "Urine specimen"
            }
          ]
        }
      }
    },
    {
      "fullUrl": "urn:uuid:49d179f0-fe95-42e9-9a16-1a5907139532",
      "resource": {
        "resourceType": "Observation",
        "id": "49d179f0-fe95-42e9-9a16-1a5907139532",
        "meta": {
          "profile": [
            "http://hl7.eu/fhir/laboratory/StructureDefinition/Observation-resultslab-eu-lab"
          ]
        },
        "performer": [
          {
            "display": "The Central European Lab"
          }
        ],
        "category": [
          {
            "coding": [
              {
                "system": "http://terminology.hl7.org/CodeSystem/observation-category",
                "code": "laboratory"
              }
            ]
          }
        ],
        "code": {
          "coding": [
            {
              "code": "2345-7",
              "system": "http://loinc.org",
              "display": "Glucose [Mass/volume] in Serum or Plasma"
            }
          ],
          "text": "Glucose [Mass/volume] in Serum or Plasma"
        },
        "valueQuantity": {
          "system": "http://unitsofmeasure.org",
          "value": 75.5,
          "unit": "mg/dL",
          "code": "mg/dL"
        },
        "referenceRange": [
          {
            "low": {
              "value": 70,
              "code": "mg/dL",
              "system": "http://unitsofmeasure.org"
            }
          },
          {
            "high": {
              "value": 139,
              "code": "mg/dL",
              "system": "http://unitsofmeasure.org"
            }
          }
        ],
        "text": {
          "status": "generated",
          "div": "<div xmlns=\"http://www.w3.org/1999/xhtml\"><table class=\"hl7__eu__lab__report\"><tr><th>Test</th><th>06-Dec-2022</th><th>Reference&#xA0;Range</th><th>Unit</th></tr><tr><td>Glucose [Mass/volume] in Serum or Plasma</td><td>75.5</td><td>70 - 139</td><td></td><td>mg/dL</td></tr></table></div>"
        },
        "status": "final",
        "subject": {
          "reference": "urn:uuid:f34efb7d-489b-4dbb-ac49-2bc016c22ab1",
          "display": "Hortense Gallet"
        },
        "effectiveDateTime": "2022-12-06T20:16:45Z",
        "specimen": {
          "reference": "urn:uuid:35991be3-2b2f-43f2-a69d-3eeecd6a2115"
        }
      }
    },
    {
      "fullUrl": "urn:uuid:2613b4b5-2183-4603-9ce4-39aaa269fe0a",
      "resource": {
        "resourceType": "Observation",
        "id": "2613b4b5-2183-4603-9ce4-39aaa269fe0a",
        "meta": {
          "profile": [
            "http://hl7.eu/fhir/laboratory/StructureDefinition/Observation-resultslab-eu-lab"
          ]
        },
        "performer": [
          {
            "display": "The Central European Lab"
          }
        ],
        "category": [
          {
            "coding": [
              {
                "system": "http://terminology.hl7.org/CodeSystem/observation-category",
                "code": "laboratory"
              }
            ]
          }
        ],
        "code": {
          "coding": [
            {
              "code": "3094-0",
              "system": "http://loinc.org",
              "display": "Urea nitrogen [Mass/volume] in Serum or Plasma"
            }
          ],
          "text": "Urea nitrogen [Mass/volume] in Serum or Plasma"
        },
        "valueQuantity": {
          "system": "http://unitsofmeasure.org",
          "value": 9.7,
          "unit": "mg/dL",
          "code": "mg/dL"
        },
        "referenceRange": [
          {
            "low": {
              "value": 7,
              "code": "mg/dL",
              "system": "http://unitsofmeasure.org"
            }
          },
          {
            "high": {
              "value": 20,
              "code": "mg/dL",
              "system": "http://unitsofmeasure.org"
            }
          }
        ],
        "text": {
          "status": "generated",
          "div": "<div xmlns=\"http://www.w3.org/1999/xhtml\"><table class=\"hl7__eu__lab__report\"><tr><th>Test</th><th>06-Dec-2022</th><th>Reference&#xA0;Range</th><th>Unit</th></tr><tr><td>Urea nitrogen [Mass/volume] in Serum or Plasma</td><td>9.7</td><td>7 - 20</td><td></td><td>mg/dL</td></tr></table></div>"
        },
        "status": "final",
        "subject": {
          "reference": "urn:uuid:f34efb7d-489b-4dbb-ac49-2bc016c22ab1",
          "display": "Hortense Gallet"
        },
        "effectiveDateTime": "2022-12-06T20:16:45Z",
        "specimen": {
          "reference": "urn:uuid:35991be3-2b2f-43f2-a69d-3eeecd6a2115"
        }
      }
    },
    {
      "fullUrl": "urn:uuid:28e9ecc6-c21e-4052-bed2-1fe44b88df27",
      "resource": {
        "resourceType": "Observation",
        "id": "28e9ecc6-c21e-4052-bed2-1fe44b88df27",
        "meta": {
          "profile": [
            "http://hl7.eu/fhir/laboratory/StructureDefinition/Observation-resultslab-eu-lab"
          ]
        },
        "performer": [
          {
            "display": "The Central European Lab"
          }
        ],
        "category": [
          {
            "coding": [
              {
                "system": "http://terminology.hl7.org/CodeSystem/observation-category",
                "code": "laboratory"
              }
            ]
          }
        ],
        "code": {
          "coding": [
            {
              "code": "2160-0",
              "system": "http://loinc.org",
              "display": "Creatinine [Mass/volume] in Serum or Plasma"
            }
          ],
          "text": "Creatinine [Mass/volume] in Serum or Plasma"
        },
        "valueQuantity": {
          "system": "http://unitsofmeasure.org",
          "value": 1.4,
          "unit": "mg/dL",
          "code": "mg/dL"
        },
        "referenceRange": [
          {
            "low": {
              "value": 0.6,
              "code": "mg/dL",
              "system": "http://unitsofmeasure.org"
            }
          },
          {
            "high": {
              "value": 1.1,
              "code": "mg/dL",
              "system": "http://unitsofmeasure.org"
            }
          }
        ],
        "interpretation": [
          {
            "coding": [
              {
                "code": "H",
                "system": "http://terminology.hl7.org/CodeSystem/v3-ObservationInterpretation",
                "display": "High"
              }
            ]
          }
        ],
        "text": {
          "status": "generated",
          "div": "<div xmlns=\"http://www.w3.org/1999/xhtml\"><table class=\"hl7__eu__lab__report\"><tr><th>Test</th><th>06-Dec-2022</th><th>Reference&#xA0;Range</th><th>Unit</th></tr><tr><td>Creatinine [Mass/volume] in Serum or Plasma</td><td>1.4</td><td>0.6 - 1.1</td><td>H</td><td>mg/dL</td></tr></table></div>"
        },
        "status": "final",
        "subject": {
          "reference": "urn:uuid:f34efb7d-489b-4dbb-ac49-2bc016c22ab1",
          "display": "Hortense Gallet"
        },
        "effectiveDateTime": "2022-12-06T20:16:45Z",
        "specimen": {
          "reference": "urn:uuid:35991be3-2b2f-43f2-a69d-3eeecd6a2115"
        }
      }
    },
    {
      "fullUrl": "urn:uuid:74d3c1cd-fbde-4b1c-856c-c800ddb5c607",
      "resource": {
        "resourceType": "Observation",
        "id": "74d3c1cd-fbde-4b1c-856c-c800ddb5c607",
        "meta": {
          "profile": [
            "http://hl7.eu/fhir/laboratory/StructureDefinition/Observation-resultslab-eu-lab"
          ]
        },
        "performer": [
          {
            "display": "The Central European Lab"
          }
        ],
        "category": [
          {
            "coding": [
              {
                "system": "http://terminology.hl7.org/CodeSystem/observation-category",
                "code": "laboratory"
              }
            ]
          }
        ],
        "code": {
          "coding": [
            {
              "code": "17861-6",
              "system": "http://loinc.org",
              "display": "Calcium [Mass/volume] in Serum or Plasma"
            }
          ],
          "text": "Calcium [Mass/volume] in Serum or Plasma"
        },
        "valueQuantity": {
          "system": "http://unitsofmeasure.org",
          "value": 8.5,
          "unit": "mg/dL",
          "code": "mg/dL"
        },
        "referenceRange": [
          {
            "low": {
              "value": 8.5,
              "code": "mg/dL",
              "system": "http://unitsofmeasure.org"
            }
          },
          {
            "high": {
              "value": 10.4,
              "code": "mg/dL",
              "system": "http://unitsofmeasure.org"
            }
          }
        ],
        "text": {
          "status": "generated",
          "div": "<div xmlns=\"http://www.w3.org/1999/xhtml\"><table class=\"hl7__eu__lab__report\"><tr><th>Test</th><th>06-Dec-2022</th><th>Reference&#xA0;Range</th><th>Unit</th></tr><tr><td>Calcium [Mass/volume] in Serum or Plasma</td><td>8.5</td><td>8.5 - 10.4</td><td></td><td>mg/dL</td></tr></table></div>"
        },
        "status": "final",
        "subject": {
          "reference": "urn:uuid:f34efb7d-489b-4dbb-ac49-2bc016c22ab1",
          "display": "Hortense Gallet"
        },
        "effectiveDateTime": "2022-12-06T20:16:45Z",
        "specimen": {
          "reference": "urn:uuid:35991be3-2b2f-43f2-a69d-3eeecd6a2115"
        }
      }
    },
    {
      "fullUrl": "urn:uuid:1b818449-b82f-4bfe-b2d4-5e6556af3792",
      "resource": {
        "resourceType": "Observation",
        "id": "1b818449-b82f-4bfe-b2d4-5e6556af3792",
        "meta": {
          "profile": [
            "http://hl7.eu/fhir/laboratory/StructureDefinition/Observation-resultslab-eu-lab"
          ]
        },
        "performer": [
          {
            "display": "The Central European Lab"
          }
        ],
        "category": [
          {
            "coding": [
              {
                "system": "http://terminology.hl7.org/CodeSystem/observation-category",
                "code": "laboratory"
              }
            ]
          }
        ],
        "code": {
          "coding": [
            {
              "code": "2951-2",
              "system": "http://loinc.org",
              "display": "Sodium [Moles/volume] in Serum or Plasma"
            }
          ],
          "text": "Sodium [Moles/volume] in Serum or Plasma"
        },
        "valueQuantity": {
          "system": "http://unitsofmeasure.org",
          "value": 142,
          "unit": "mmol/L",
          "code": "mmol/L"
        },
        "referenceRange": [
          {
            "low": {
              "value": 135,
              "code": "mmol/L",
              "system": "http://unitsofmeasure.org"
            }
          },
          {
            "high": {
              "value": 145,
              "code": "mmol/L",
              "system": "http://unitsofmeasure.org"
            }
          }
        ],
        "text": {
          "status": "generated",
          "div": "<div xmlns=\"http://www.w3.org/1999/xhtml\"><table class=\"hl7__eu__lab__report\"><tr><th>Test</th><th>06-Dec-2022</th><th>Reference&#xA0;Range</th><th>Unit</th></tr><tr><td>Sodium [Moles/volume] in Serum or Plasma</td><td>142.0</td><td>135 - 145</td><td></td><td>mmol/L</td></tr></table></div>"
        },
        "status": "final",
        "subject": {
          "reference": "urn:uuid:f34efb7d-489b-4dbb-ac49-2bc016c22ab1",
          "display": "Hortense Gallet"
        },
        "effectiveDateTime": "2022-12-06T20:16:45Z",
        "specimen": {
          "reference": "urn:uuid:35991be3-2b2f-43f2-a69d-3eeecd6a2115"
        }
      }
    },
    {
      "fullUrl": "urn:uuid:aadfbce3-d63c-45ab-ae46-0f367940807a",
      "resource": {
        "resourceType": "Observation",
        "id": "aadfbce3-d63c-45ab-ae46-0f367940807a",
        "meta": {
          "profile": [
            "http://hl7.eu/fhir/laboratory/StructureDefinition/Observation-resultslab-eu-lab"
          ]
        },
        "performer": [
          {
            "display": "The Central European Lab"
          }
        ],
        "category": [
          {
            "coding": [
              {
                "system": "http://terminology.hl7.org/CodeSystem/observation-category",
                "code": "laboratory"
              }
            ]
          }
        ],
        "code": {
          "coding": [
            {
              "code": "2823-3",
              "system": "http://loinc.org",
              "display": "Potassium [Moles/volume] in Serum or Plasma"
            }
          ],
          "text": "Potassium [Moles/volume] in Serum or Plasma"
        },
        "valueQuantity": {
          "system": "http://unitsofmeasure.org",
          "value": 4.1,
          "unit": "mmol/L",
          "code": "mmol/L"
        },
        "referenceRange": [
          {
            "low": {
              "value": 3.5,
              "code": "mmol/L",
              "system": "http://unitsofmeasure.org"
            }
          },
          {
            "high": {
              "value": 5.1,
              "code": "mmol/L",
              "system": "http://unitsofmeasure.org"
            }
          }
        ],
        "text": {
          "status": "generated",
          "div": "<div xmlns=\"http://www.w3.org/1999/xhtml\"><table class=\"hl7__eu__lab__report\"><tr><th>Test</th><th>06-Dec-2022</th><th>Reference&#xA0;Range</th><th>Unit</th></tr><tr><td>Potassium [Moles/volume] in Serum or Plasma</td><td>4.1</td><td>3.5 - 5.1</td><td></td><td>mmol/L</td></tr></table></div>"
        },
        "status": "final",
        "subject": {
          "reference": "urn:uuid:f34efb7d-489b-4dbb-ac49-2bc016c22ab1",
          "display": "Hortense Gallet"
        },
        "effectiveDateTime": "2022-12-06T20:16:45Z",
        "specimen": {
          "reference": "urn:uuid:35991be3-2b2f-43f2-a69d-3eeecd6a2115"
        }
      }
    },
    {
      "fullUrl": "urn:uuid:85e7ae3a-3ccc-4f40-9d7f-f407c6146067",
      "resource": {
        "resourceType": "Observation",
        "id": "85e7ae3a-3ccc-4f40-9d7f-f407c6146067",
        "meta": {
          "profile": [
            "http://hl7.eu/fhir/laboratory/StructureDefinition/Observation-resultslab-eu-lab"
          ]
        },
        "performer": [
          {
            "display": "The Central European Lab"
          }
        ],
        "category": [
          {
            "coding": [
              {
                "system": "http://terminology.hl7.org/CodeSystem/observation-category",
                "code": "laboratory"
              }
            ]
          }
        ],
        "code": {
          "coding": [
            {
              "code": "2075-0",
              "system": "http://loinc.org",
              "display": "Chloride [Moles/volume] in Serum or Plasma"
            }
          ],
          "text": "Chloride [Moles/volume] in Serum or Plasma"
        },
        "valueQuantity": {
          "system": "http://unitsofmeasure.org",
          "value": 106.8,
          "unit": "mmol/L",
          "code": "mmol/L"
        },
        "referenceRange": [
          {
            "low": {
              "value": 98,
              "code": "mmol/L",
              "system": "http://unitsofmeasure.org"
            }
          },
          {
            "high": {
              "value": 110,
              "code": "mmol/L",
              "system": "http://unitsofmeasure.org"
            }
          }
        ],
        "text": {
          "status": "generated",
          "div": "<div xmlns=\"http://www.w3.org/1999/xhtml\"><table class=\"hl7__eu__lab__report\"><tr><th>Test</th><th>06-Dec-2022</th><th>Reference&#xA0;Range</th><th>Unit</th></tr><tr><td>Chloride [Moles/volume] in Serum or Plasma</td><td>106.8</td><td>98 - 110</td><td></td><td>mmol/L</td></tr></table></div>"
        },
        "status": "final",
        "subject": {
          "reference": "urn:uuid:f34efb7d-489b-4dbb-ac49-2bc016c22ab1",
          "display": "Hortense Gallet"
        },
        "effectiveDateTime": "2022-12-06T20:16:45Z",
        "specimen": {
          "reference": "urn:uuid:35991be3-2b2f-43f2-a69d-3eeecd6a2115"
        }
      }
    },
    {
      "fullUrl": "urn:uuid:f57d99f4-f340-4a16-b9b2-95772c911fb2",
      "resource": {
        "resourceType": "Observation",
        "id": "f57d99f4-f340-4a16-b9b2-95772c911fb2",
        "meta": {
          "profile": [
            "http://hl7.eu/fhir/laboratory/StructureDefinition/Observation-resultslab-eu-lab"
          ]
        },
        "performer": [
          {
            "display": "The Central European Lab"
          }
        ],
        "category": [
          {
            "coding": [
              {
                "system": "http://terminology.hl7.org/CodeSystem/observation-category",
                "code": "laboratory"
              }
            ]
          }
        ],
        "code": {
          "coding": [
            {
              "code": "2028-9",
              "system": "http://loinc.org",
              "display": "Carbon dioxide, total [Moles/volume] in Serum or Plasma"
            }
          ],
          "text": "Carbon dioxide, total [Moles/volume] in Serum or Plasma"
        },
        "valueQuantity": {
          "system": "http://unitsofmeasure.org",
          "value": 22.3,
          "unit": "mmol/L",
          "code": "mmol/L"
        },
        "referenceRange": [
          {
            "low": {
              "value": 22,
              "code": "mmol/L",
              "system": "http://unitsofmeasure.org"
            }
          },
          {
            "high": {
              "value": 32,
              "code": "mmol/L",
              "system": "http://unitsofmeasure.org"
            }
          }
        ],
        "text": {
          "status": "generated",
          "div": "<div xmlns=\"http://www.w3.org/1999/xhtml\"><table class=\"hl7__eu__lab__report\"><tr><th>Test</th><th>06-Dec-2022</th><th>Reference&#xA0;Range</th><th>Unit</th></tr><tr><td>Carbon dioxide, total [Moles/volume] in Serum or Plasma</td><td>22.3</td><td>22 - 32</td><td></td><td>mmol/L</td></tr></table></div>"
        },
        "status": "final",
        "subject": {
          "reference": "urn:uuid:f34efb7d-489b-4dbb-ac49-2bc016c22ab1",
          "display": "Hortense Gallet"
        },
        "effectiveDateTime": "2022-12-06T20:16:45Z",
        "specimen": {
          "reference": "urn:uuid:35991be3-2b2f-43f2-a69d-3eeecd6a2115"
        }
      }
    },
    {
      "fullUrl": "urn:uuid:b47520f1-2f8e-48f9-9c7f-67eca1a458ab",
      "resource": {
        "resourceType": "Observation",
        "id": "b47520f1-2f8e-48f9-9c7f-67eca1a458ab",
        "meta": {
          "profile": [
            "http://hl7.eu/fhir/laboratory/StructureDefinition/Observation-resultslab-eu-lab"
          ]
        },
        "performer": [
          {
            "display": "The Central European Lab"
          }
        ],
        "category": [
          {
            "coding": [
              {
                "system": "http://terminology.hl7.org/CodeSystem/observation-category",
                "code": "laboratory"
              }
            ]
          }
        ],
        "code": {
          "coding": [
            {
              "code": "5767-9",
              "system": "http://loinc.org",
              "display": "Appearance of Urine"
            }
          ],
          "text": "Appearance of Urine"
        },
        "text": {
          "status": "generated",
          "div": "<div xmlns=\"http://www.w3.org/1999/xhtml\"><table class=\"hl7__eu__lab__report\"><tr><th>Test</th><th>06-Dec-2022</th><th>Reference&#xA0;Range</th><th>Unit</th></tr><tr><td>Appearance of Urine</td></tr></table></div>"
        },
        "status": "final",
        "subject": {
          "reference": "urn:uuid:f34efb7d-489b-4dbb-ac49-2bc016c22ab1",
          "display": "Hortense Gallet"
        },
        "effectiveDateTime": "2022-12-06T20:16:45Z",
        "specimen": {
          "reference": "urn:uuid:4b82d9c3-7df5-4088-a3e8-cabfdbcfe7a7"
        }
      }
    },
    {
      "fullUrl": "urn:uuid:e7d99166-afff-4877-a96b-7f55aa0eb022",
      "resource": {
        "resourceType": "Observation",
        "id": "e7d99166-afff-4877-a96b-7f55aa0eb022",
        "meta": {
          "profile": [
            "http://hl7.eu/fhir/laboratory/StructureDefinition/Observation-resultslab-eu-lab"
          ]
        },
        "performer": [
          {
            "display": "The Central European Lab"
          }
        ],
        "category": [
          {
            "coding": [
              {
                "system": "http://terminology.hl7.org/CodeSystem/observation-category",
                "code": "laboratory"
              }
            ]
          }
        ],
        "code": {
          "coding": [
            {
              "code": "34533-0",
              "system": "http://loinc.org",
              "display": "Odor of Urine"
            }
          ],
          "text": "Odor of Urine"
        },
        "text": {
          "status": "generated",
          "div": "<div xmlns=\"http://www.w3.org/1999/xhtml\"><table class=\"hl7__eu__lab__report\"><tr><th>Test</th><th>06-Dec-2022</th><th>Reference&#xA0;Range</th><th>Unit</th></tr><tr><td>Odor of Urine</td></tr></table></div>"
        },
        "status": "final",
        "subject": {
          "reference": "urn:uuid:f34efb7d-489b-4dbb-ac49-2bc016c22ab1",
          "display": "Hortense Gallet"
        },
        "effectiveDateTime": "2022-12-06T20:16:45Z",
        "specimen": {
          "reference": "urn:uuid:4b82d9c3-7df5-4088-a3e8-cabfdbcfe7a7"
        }
      }
    },
    {
      "fullUrl": "urn:uuid:90ea96a0-cae0-4c20-b974-0db6850e417e",
      "resource": {
        "resourceType": "Observation",
        "id": "90ea96a0-cae0-4c20-b974-0db6850e417e",
        "meta": {
          "profile": [
            "http://hl7.eu/fhir/laboratory/StructureDefinition/Observation-resultslab-eu-lab"
          ]
        },
        "performer": [
          {
            "display": "The Central European Lab"
          }
        ],
        "category": [
          {
            "coding": [
              {
                "system": "http://terminology.hl7.org/CodeSystem/observation-category",
                "code": "laboratory"
              }
            ]
          }
        ],
        "code": {
          "coding": [
            {
              "code": "32167-9",
              "system": "http://loinc.org",
              "display": "Clarity of Urine"
            }
          ],
          "text": "Clarity of Urine"
        },
        "text": {
          "status": "generated",
          "div": "<div xmlns=\"http://www.w3.org/1999/xhtml\"><table class=\"hl7__eu__lab__report\"><tr><th>Test</th><th>06-Dec-2022</th><th>Reference&#xA0;Range</th><th>Unit</th></tr><tr><td>Clarity of Urine</td></tr></table></div>"
        },
        "status": "final",
        "subject": {
          "reference": "urn:uuid:f34efb7d-489b-4dbb-ac49-2bc016c22ab1",
          "display": "Hortense Gallet"
        },
        "effectiveDateTime": "2022-12-06T20:16:45Z",
        "specimen": {
          "reference": "urn:uuid:4b82d9c3-7df5-4088-a3e8-cabfdbcfe7a7"
        }
      }
    },
    {
      "fullUrl": "urn:uuid:c6879320-6ff7-45a3-9a60-c8b4f372ead3",
      "resource": {
        "resourceType": "Observation",
        "id": "c6879320-6ff7-45a3-9a60-c8b4f372ead3",
        "meta": {
          "profile": [
            "http://hl7.eu/fhir/laboratory/StructureDefinition/Observation-resultslab-eu-lab"
          ]
        },
        "performer": [
          {
            "display": "The Central European Lab"
          }
        ],
        "category": [
          {
            "coding": [
              {
                "system": "http://terminology.hl7.org/CodeSystem/observation-category",
                "code": "laboratory"
              }
            ]
          }
        ],
        "code": {
          "coding": [
            {
              "code": "5778-6",
              "system": "http://loinc.org",
              "display": "Color of Urine"
            }
          ],
          "text": "Color of Urine"
        },
        "text": {
          "status": "generated",
          "div": "<div xmlns=\"http://www.w3.org/1999/xhtml\"><table class=\"hl7__eu__lab__report\"><tr><th>Test</th><th>06-Dec-2022</th><th>Reference&#xA0;Range</th><th>Unit</th></tr><tr><td>Color of Urine</td></tr></table></div>"
        },
        "status": "final",
        "subject": {
          "reference": "urn:uuid:f34efb7d-489b-4dbb-ac49-2bc016c22ab1",
          "display": "Hortense Gallet"
        },
        "effectiveDateTime": "2022-12-06T20:16:45Z",
        "specimen": {
          "reference": "urn:uuid:4b82d9c3-7df5-4088-a3e8-cabfdbcfe7a7"
        }
      }
    },
    {
      "fullUrl": "urn:uuid:b770a3d3-b011-4abd-8b7e-a60a9e06d406",
      "resource": {
        "resourceType": "Observation",
        "id": "b770a3d3-b011-4abd-8b7e-a60a9e06d406",
        "meta": {
          "profile": [
            "http://hl7.eu/fhir/laboratory/StructureDefinition/Observation-resultslab-eu-lab"
          ]
        },
        "performer": [
          {
            "display": "The Central European Lab"
          }
        ],
        "category": [
          {
            "coding": [
              {
                "system": "http://terminology.hl7.org/CodeSystem/observation-category",
                "code": "laboratory"
              }
            ]
          }
        ],
        "code": {
          "coding": [
            {
              "code": "5792-7",
              "system": "http://loinc.org",
              "display": "Glucose [Mass/volume] in Urine by Test strip"
            }
          ],
          "text": "Glucose [Mass/volume] in Urine by Test strip"
        },
        "valueQuantity": {
          "system": "http://unitsofmeasure.org",
          "value": 2.1,
          "unit": "mg/dL",
          "code": "mg/dL"
        },
        "referenceRange": [
          {
            "low": {
              "value": 0,
              "code": "mg/dL",
              "system": "http://unitsofmeasure.org"
            }
          },
          {
            "high": {
              "value": 0,
              "code": "mg/dL",
              "system": "http://unitsofmeasure.org"
            }
          }
        ],
        "interpretation": [
          {
            "coding": [
              {
                "code": "H",
                "system": "http://terminology.hl7.org/CodeSystem/v3-ObservationInterpretation",
                "display": "High"
              }
            ]
          }
        ],
        "text": {
          "status": "generated",
          "div": "<div xmlns=\"http://www.w3.org/1999/xhtml\"><table class=\"hl7__eu__lab__report\"><tr><th>Test</th><th>06-Dec-2022</th><th>Reference&#xA0;Range</th><th>Unit</th></tr><tr><td>Glucose [Mass/volume] in Urine by Test strip</td><td>2.1</td><td>0 - 0</td><td>H</td><td>mg/dL</td></tr></table></div>"
        },
        "status": "final",
        "subject": {
          "reference": "urn:uuid:f34efb7d-489b-4dbb-ac49-2bc016c22ab1",
          "display": "Hortense Gallet"
        },
        "effectiveDateTime": "2022-12-06T20:16:45Z",
        "specimen": {
          "reference": "urn:uuid:4b82d9c3-7df5-4088-a3e8-cabfdbcfe7a7"
        }
      }
    },
    {
      "fullUrl": "urn:uuid:ceed3ba9-e168-4217-b88f-4742aae2344c",
      "resource": {
        "resourceType": "Observation",
        "id": "ceed3ba9-e168-4217-b88f-4742aae2344c",
        "meta": {
          "profile": [
            "http://hl7.eu/fhir/laboratory/StructureDefinition/Observation-resultslab-eu-lab"
          ]
        },
        "performer": [
          {
            "display": "The Central European Lab"
          }
        ],
        "category": [
          {
            "coding": [
              {
                "system": "http://terminology.hl7.org/CodeSystem/observation-category",
                "code": "laboratory"
              }
            ]
          }
        ],
        "code": {
          "coding": [
            {
              "code": "25428-4",
              "system": "http://loinc.org",
              "display": "Glucose [Presence] in Urine by Test strip"
            }
          ],
          "text": "Glucose [Presence] in Urine by Test strip"
        },
        "text": {
          "status": "generated",
          "div": "<div xmlns=\"http://www.w3.org/1999/xhtml\"><table class=\"hl7__eu__lab__report\"><tr><th>Test</th><th>06-Dec-2022</th><th>Reference&#xA0;Range</th><th>Unit</th></tr><tr><td>Glucose [Presence] in Urine by Test strip</td></tr></table></div>"
        },
        "status": "final",
        "subject": {
          "reference": "urn:uuid:f34efb7d-489b-4dbb-ac49-2bc016c22ab1",
          "display": "Hortense Gallet"
        },
        "effectiveDateTime": "2022-12-06T20:16:45Z",
        "specimen": {
          "reference": "urn:uuid:4b82d9c3-7df5-4088-a3e8-cabfdbcfe7a7"
        }
      }
    },
    {
      "fullUrl": "urn:uuid:c93fdefc-1a2d-4b5c-9056-2fb2b241814d",
      "resource": {
        "resourceType": "Observation",
        "id": "c93fdefc-1a2d-4b5c-9056-2fb2b241814d",
        "meta": {
          "profile": [
            "http://hl7.eu/fhir/laboratory/StructureDefinition/Observation-resultslab-eu-lab"
          ]
        },
        "performer": [
          {
            "display": "The Central European Lab"
          }
        ],
        "category": [
          {
            "coding": [
              {
                "system": "http://terminology.hl7.org/CodeSystem/observation-category",
                "code": "laboratory"
              }
            ]
          }
        ],
        "code": {
          "coding": [
            {
              "code": "20505-4",
              "system": "http://loinc.org",
              "display": "Bilirubin.total [Mass/volume] in Urine by Test strip"
            }
          ],
          "text": "Bilirubin.total [Mass/volume] in Urine by Test strip"
        },
        "valueQuantity": {
          "system": "http://unitsofmeasure.org",
          "value": 1.2,
          "unit": "mg/dL",
          "code": "mg/dL"
        },
        "referenceRange": [
          {
            "low": {
              "value": 0,
              "code": "mg/dL",
              "system": "http://unitsofmeasure.org"
            }
          },
          {
            "high": {
              "value": 1.6,
              "code": "mg/dL",
              "system": "http://unitsofmeasure.org"
            }
          }
        ],
        "text": {
          "status": "generated",
          "div": "<div xmlns=\"http://www.w3.org/1999/xhtml\"><table class=\"hl7__eu__lab__report\"><tr><th>Test</th><th>06-Dec-2022</th><th>Reference&#xA0;Range</th><th>Unit</th></tr><tr><td>Bilirubin.total [Mass/volume] in Urine by Test strip</td><td>1.2</td><td>0 - 1.6</td><td></td><td>mg/dL</td></tr></table></div>"
        },
        "status": "final",
        "subject": {
          "reference": "urn:uuid:f34efb7d-489b-4dbb-ac49-2bc016c22ab1",
          "display": "Hortense Gallet"
        },
        "effectiveDateTime": "2022-12-06T20:16:45Z",
        "specimen": {
          "reference": "urn:uuid:4b82d9c3-7df5-4088-a3e8-cabfdbcfe7a7"
        }
      }
    },
    {
      "fullUrl": "urn:uuid:effd4423-f2bd-4e7e-9715-a4e54bfd1a84",
      "resource": {
        "resourceType": "Observation",
        "id": "effd4423-f2bd-4e7e-9715-a4e54bfd1a84",
        "meta": {
          "profile": [
            "http://hl7.eu/fhir/laboratory/StructureDefinition/Observation-resultslab-eu-lab"
          ]
        },
        "performer": [
          {
            "display": "The Central European Lab"
          }
        ],
        "category": [
          {
            "coding": [
              {
                "system": "http://terminology.hl7.org/CodeSystem/observation-category",
                "code": "laboratory"
              }
            ]
          }
        ],
        "code": {
          "coding": [
            {
              "code": "5770-3",
              "system": "http://loinc.org",
              "display": "Bilirubin.total [Presence] in Urine by Test strip"
            }
          ],
          "text": "Bilirubin.total [Presence] in Urine by Test strip"
        },
        "text": {
          "status": "generated",
          "div": "<div xmlns=\"http://www.w3.org/1999/xhtml\"><table class=\"hl7__eu__lab__report\"><tr><th>Test</th><th>06-Dec-2022</th><th>Reference&#xA0;Range</th><th>Unit</th></tr><tr><td>Bilirubin.total [Presence] in Urine by Test strip</td></tr></table></div>"
        },
        "status": "final",
        "subject": {
          "reference": "urn:uuid:f34efb7d-489b-4dbb-ac49-2bc016c22ab1",
          "display": "Hortense Gallet"
        },
        "effectiveDateTime": "2022-12-06T20:16:45Z",
        "specimen": {
          "reference": "urn:uuid:4b82d9c3-7df5-4088-a3e8-cabfdbcfe7a7"
        }
      }
    },
    {
      "fullUrl": "urn:uuid:1c8ef8ae-1f6b-42ab-834c-61fa52c798c1",
      "resource": {
        "resourceType": "Observation",
        "id": "1c8ef8ae-1f6b-42ab-834c-61fa52c798c1",
        "meta": {
          "profile": [
            "http://hl7.eu/fhir/laboratory/StructureDefinition/Observation-resultslab-eu-lab"
          ]
        },
        "performer": [
          {
            "display": "The Central European Lab"
          }
        ],
        "category": [
          {
            "coding": [
              {
                "system": "http://terminology.hl7.org/CodeSystem/observation-category",
                "code": "laboratory"
              }
            ]
          }
        ],
        "code": {
          "coding": [
            {
              "code": "5797-6",
              "system": "http://loinc.org",
              "display": "Ketones [Mass/volume] in Urine by Test strip"
            }
          ],
          "text": "Ketones [Mass/volume] in Urine by Test strip"
        },
        "valueQuantity": {
          "system": "http://unitsofmeasure.org",
          "value": 10.9,
          "unit": "mg/dL",
          "code": "mg/dL"
        },
        "referenceRange": [
          {
            "low": {
              "value": 0,
              "code": "mg/dL",
              "system": "http://unitsofmeasure.org"
            }
          },
          {
            "high": {
              "value": 0.5,
              "code": "mg/dL",
              "system": "http://unitsofmeasure.org"
            }
          }
        ],
        "interpretation": [
          {
            "coding": [
              {
                "code": "H",
                "system": "http://terminology.hl7.org/CodeSystem/v3-ObservationInterpretation",
                "display": "High"
              }
            ]
          }
        ],
        "text": {
          "status": "generated",
          "div": "<div xmlns=\"http://www.w3.org/1999/xhtml\"><table class=\"hl7__eu__lab__report\"><tr><th>Test</th><th>06-Dec-2022</th><th>Reference&#xA0;Range</th><th>Unit</th></tr><tr><td>Ketones [Mass/volume] in Urine by Test strip</td><td>10.9</td><td>0 - 0.5</td><td>H</td><td>mg/dL</td></tr></table></div>"
        },
        "status": "final",
        "subject": {
          "reference": "urn:uuid:f34efb7d-489b-4dbb-ac49-2bc016c22ab1",
          "display": "Hortense Gallet"
        },
        "effectiveDateTime": "2022-12-06T20:16:45Z",
        "specimen": {
          "reference": "urn:uuid:4b82d9c3-7df5-4088-a3e8-cabfdbcfe7a7"
        }
      }
    },
    {
      "fullUrl": "urn:uuid:158da877-73a4-4a39-aa57-4ccc3d1bf893",
      "resource": {
        "resourceType": "Observation",
        "id": "158da877-73a4-4a39-aa57-4ccc3d1bf893",
        "meta": {
          "profile": [
            "http://hl7.eu/fhir/laboratory/StructureDefinition/Observation-resultslab-eu-lab"
          ]
        },
        "performer": [
          {
            "display": "The Central European Lab"
          }
        ],
        "category": [
          {
            "coding": [
              {
                "system": "http://terminology.hl7.org/CodeSystem/observation-category",
                "code": "laboratory"
              }
            ]
          }
        ],
        "code": {
          "coding": [
            {
              "code": "2514-8",
              "system": "http://loinc.org",
              "display": "Ketones [Presence] in Urine by Test strip"
            }
          ],
          "text": "Ketones [Presence] in Urine by Test strip"
        },
        "text": {
          "status": "generated",
          "div": "<div xmlns=\"http://www.w3.org/1999/xhtml\"><table class=\"hl7__eu__lab__report\"><tr><th>Test</th><th>06-Dec-2022</th><th>Reference&#xA0;Range</th><th>Unit</th></tr><tr><td>Ketones [Presence] in Urine by Test strip</td></tr></table></div>"
        },
        "status": "final",
        "subject": {
          "reference": "urn:uuid:f34efb7d-489b-4dbb-ac49-2bc016c22ab1",
          "display": "Hortense Gallet"
        },
        "effectiveDateTime": "2022-12-06T20:16:45Z",
        "specimen": {
          "reference": "urn:uuid:4b82d9c3-7df5-4088-a3e8-cabfdbcfe7a7"
        }
      }
    },
    {
      "fullUrl": "urn:uuid:da8438de-1814-4b05-af79-8ed15c330ce0",
      "resource": {
        "resourceType": "Observation",
        "id": "da8438de-1814-4b05-af79-8ed15c330ce0",
        "meta": {
          "profile": [
            "http://hl7.eu/fhir/laboratory/StructureDefinition/Observation-resultslab-eu-lab"
          ]
        },
        "performer": [
          {
            "display": "The Central European Lab"
          }
        ],
        "category": [
          {
            "coding": [
              {
                "system": "http://terminology.hl7.org/CodeSystem/observation-category",
                "code": "laboratory"
              }
            ]
          }
        ],
        "code": {
          "coding": [
            {
              "code": "5811-5",
              "system": "http://loinc.org",
              "display": "Specific gravity of Urine by Test strip"
            }
          ],
          "text": "Specific gravity of Urine by Test strip"
        },
        "valueQuantity": {
          "system": "http://unitsofmeasure.org",
          "value": 1,
          "unit": "{nominal}",
          "code": "{nominal}"
        },
        "referenceRange": [
          {
            "low": {
              "value": 1.005,
              "code": "g/mL",
              "system": "http://unitsofmeasure.org"
            }
          },
          {
            "high": {
              "value": 1.03,
              "code": "g/mL",
              "system": "http://unitsofmeasure.org"
            }
          }
        ],
        "interpretation": [
          {
            "coding": [
              {
                "code": "L",
                "system": "http://terminology.hl7.org/CodeSystem/v3-ObservationInterpretation",
                "display": "Low"
              }
            ]
          }
        ],
        "text": {
          "status": "generated",
          "div": "<div xmlns=\"http://www.w3.org/1999/xhtml\"><table class=\"hl7__eu__lab__report\"><tr><th>Test</th><th>06-Dec-2022</th><th>Reference&#xA0;Range</th><th>Unit</th></tr><tr><td>Specific gravity of Urine by Test strip</td><td>1.0</td><td>1.005 - 1.03</td><td>L</td><td>{nominal}</td></tr></table></div>"
        },
        "status": "final",
        "subject": {
          "reference": "urn:uuid:f34efb7d-489b-4dbb-ac49-2bc016c22ab1",
          "display": "Hortense Gallet"
        },
        "effectiveDateTime": "2022-12-06T20:16:45Z",
        "specimen": {
          "reference": "urn:uuid:4b82d9c3-7df5-4088-a3e8-cabfdbcfe7a7"
        }
      }
    },
    {
      "fullUrl": "urn:uuid:27cce79c-e340-4058-82c9-1438fc647fd8",
      "resource": {
        "resourceType": "Observation",
        "id": "27cce79c-e340-4058-82c9-1438fc647fd8",
        "meta": {
          "profile": [
            "http://hl7.eu/fhir/laboratory/StructureDefinition/Observation-resultslab-eu-lab"
          ]
        },
        "performer": [
          {
            "display": "The Central European Lab"
          }
        ],
        "category": [
          {
            "coding": [
              {
                "system": "http://terminology.hl7.org/CodeSystem/observation-category",
                "code": "laboratory"
              }
            ]
          }
        ],
        "code": {
          "coding": [
            {
              "code": "5803-2",
              "system": "http://loinc.org",
              "display": "pH of Urine by Test strip"
            }
          ],
          "text": "pH of Urine by Test strip"
        },
        "valueQuantity": {
          "system": "http://unitsofmeasure.org",
          "value": 6,
          "unit": "pH",
          "code": "pH"
        },
        "referenceRange": [
          {
            "low": {
              "value": 4.5,
              "code": "pH",
              "system": "http://unitsofmeasure.org"
            }
          },
          {
            "high": {
              "value": 7.5,
              "code": "pH",
              "system": "http://unitsofmeasure.org"
            }
          }
        ],
        "text": {
          "status": "generated",
          "div": "<div xmlns=\"http://www.w3.org/1999/xhtml\"><table class=\"hl7__eu__lab__report\"><tr><th>Test</th><th>06-Dec-2022</th><th>Reference&#xA0;Range</th><th>Unit</th></tr><tr><td>pH of Urine by Test strip</td><td>6.0</td><td>4.5 - 7.5</td><td></td><td>pH</td></tr></table></div>"
        },
        "status": "final",
        "subject": {
          "reference": "urn:uuid:f34efb7d-489b-4dbb-ac49-2bc016c22ab1",
          "display": "Hortense Gallet"
        },
        "effectiveDateTime": "2022-12-06T20:16:45Z",
        "specimen": {
          "reference": "urn:uuid:4b82d9c3-7df5-4088-a3e8-cabfdbcfe7a7"
        }
      }
    },
    {
      "fullUrl": "urn:uuid:f7fb89da-2415-47ac-9a4f-7dc9f9965f3d",
      "resource": {
        "resourceType": "Observation",
        "id": "f7fb89da-2415-47ac-9a4f-7dc9f9965f3d",
        "meta": {
          "profile": [
            "http://hl7.eu/fhir/laboratory/StructureDefinition/Observation-resultslab-eu-lab"
          ]
        },
        "performer": [
          {
            "display": "The Central European Lab"
          }
        ],
        "category": [
          {
            "coding": [
              {
                "system": "http://terminology.hl7.org/CodeSystem/observation-category",
                "code": "laboratory"
              }
            ]
          }
        ],
        "code": {
          "coding": [
            {
              "code": "5804-0",
              "system": "http://loinc.org",
              "display": "Protein [Mass/volume] in Urine by Test strip"
            }
          ],
          "text": "Protein [Mass/volume] in Urine by Test strip"
        },
        "valueQuantity": {
          "system": "http://unitsofmeasure.org",
          "value": 80.7,
          "unit": "mg/dL",
          "code": "mg/dL"
        },
        "referenceRange": [
          {
            "low": {
              "value": 0,
              "code": "mg/dL",
              "system": "http://unitsofmeasure.org"
            }
          },
          {
            "high": {
              "value": 15,
              "code": "mg/dL",
              "system": "http://unitsofmeasure.org"
            }
          }
        ],
        "interpretation": [
          {
            "coding": [
              {
                "code": "H",
                "system": "http://terminology.hl7.org/CodeSystem/v3-ObservationInterpretation",
                "display": "High"
              }
            ]
          }
        ],
        "text": {
          "status": "generated",
          "div": "<div xmlns=\"http://www.w3.org/1999/xhtml\"><table class=\"hl7__eu__lab__report\"><tr><th>Test</th><th>06-Dec-2022</th><th>Reference&#xA0;Range</th><th>Unit</th></tr><tr><td>Protein [Mass/volume] in Urine by Test strip</td><td>80.7</td><td>0 - 15</td><td>H</td><td>mg/dL</td></tr></table></div>"
        },
        "status": "final",
        "subject": {
          "reference": "urn:uuid:f34efb7d-489b-4dbb-ac49-2bc016c22ab1",
          "display": "Hortense Gallet"
        },
        "effectiveDateTime": "2022-12-06T20:16:45Z",
        "specimen": {
          "reference": "urn:uuid:4b82d9c3-7df5-4088-a3e8-cabfdbcfe7a7"
        }
      }
    },
    {
      "fullUrl": "urn:uuid:e23d45ef-f60e-451a-9222-3583c0a94bb3",
      "resource": {
        "resourceType": "Observation",
        "id": "e23d45ef-f60e-451a-9222-3583c0a94bb3",
        "meta": {
          "profile": [
            "http://hl7.eu/fhir/laboratory/StructureDefinition/Observation-resultslab-eu-lab"
          ]
        },
        "performer": [
          {
            "display": "The Central European Lab"
          }
        ],
        "category": [
          {
            "coding": [
              {
                "system": "http://terminology.hl7.org/CodeSystem/observation-category",
                "code": "laboratory"
              }
            ]
          }
        ],
        "code": {
          "coding": [
            {
              "code": "20454-5",
              "system": "http://loinc.org",
              "display": "Protein [Presence] in Urine by Test strip"
            }
          ],
          "text": "Protein [Presence] in Urine by Test strip"
        },
        "text": {
          "status": "generated",
          "div": "<div xmlns=\"http://www.w3.org/1999/xhtml\"><table class=\"hl7__eu__lab__report\"><tr><th>Test</th><th>06-Dec-2022</th><th>Reference&#xA0;Range</th><th>Unit</th></tr><tr><td>Protein [Presence] in Urine by Test strip</td></tr></table></div>"
        },
        "status": "final",
        "subject": {
          "reference": "urn:uuid:f34efb7d-489b-4dbb-ac49-2bc016c22ab1",
          "display": "Hortense Gallet"
        },
        "effectiveDateTime": "2022-12-06T20:16:45Z",
        "specimen": {
          "reference": "urn:uuid:4b82d9c3-7df5-4088-a3e8-cabfdbcfe7a7"
        }
      }
    },
    {
      "fullUrl": "urn:uuid:0f650c5b-66be-440f-a7fc-16a06a589b97",
      "resource": {
        "resourceType": "Observation",
        "id": "0f650c5b-66be-440f-a7fc-16a06a589b97",
        "meta": {
          "profile": [
            "http://hl7.eu/fhir/laboratory/StructureDefinition/Observation-resultslab-eu-lab"
          ]
        },
        "performer": [
          {
            "display": "The Central European Lab"
          }
        ],
        "category": [
          {
            "coding": [
              {
                "system": "http://terminology.hl7.org/CodeSystem/observation-category",
                "code": "laboratory"
              }
            ]
          }
        ],
        "code": {
          "coding": [
            {
              "code": "5802-4",
              "system": "http://loinc.org",
              "display": "Nitrite [Presence] in Urine by Test strip"
            }
          ],
          "text": "Nitrite [Presence] in Urine by Test strip"
        },
        "text": {
          "status": "generated",
          "div": "<div xmlns=\"http://www.w3.org/1999/xhtml\"><table class=\"hl7__eu__lab__report\"><tr><th>Test</th><th>06-Dec-2022</th><th>Reference&#xA0;Range</th><th>Unit</th></tr><tr><td>Nitrite [Presence] in Urine by Test strip</td></tr></table></div>"
        },
        "status": "final",
        "subject": {
          "reference": "urn:uuid:f34efb7d-489b-4dbb-ac49-2bc016c22ab1",
          "display": "Hortense Gallet"
        },
        "effectiveDateTime": "2022-12-06T20:16:45Z",
        "specimen": {
          "reference": "urn:uuid:4b82d9c3-7df5-4088-a3e8-cabfdbcfe7a7"
        }
      }
    },
    {
      "fullUrl": "urn:uuid:4ab8c407-11aa-4776-a0c5-49f6da2bb17f",
      "resource": {
        "resourceType": "Observation",
        "id": "4ab8c407-11aa-4776-a0c5-49f6da2bb17f",
        "meta": {
          "profile": [
            "http://hl7.eu/fhir/laboratory/StructureDefinition/Observation-resultslab-eu-lab"
          ]
        },
        "performer": [
          {
            "display": "The Central European Lab"
          }
        ],
        "category": [
          {
            "coding": [
              {
                "system": "http://terminology.hl7.org/CodeSystem/observation-category",
                "code": "laboratory"
              }
            ]
          }
        ],
        "code": {
          "coding": [
            {
              "code": "5794-3",
              "system": "http://loinc.org",
              "display": "Hemoglobin [Presence] in Urine by Test strip"
            }
          ],
          "text": "Hemoglobin [Presence] in Urine by Test strip"
        },
        "text": {
          "status": "generated",
          "div": "<div xmlns=\"http://www.w3.org/1999/xhtml\"><table class=\"hl7__eu__lab__report\"><tr><th>Test</th><th>06-Dec-2022</th><th>Reference&#xA0;Range</th><th>Unit</th></tr><tr><td>Hemoglobin [Presence] in Urine by Test strip</td></tr></table></div>"
        },
        "status": "final",
        "subject": {
          "reference": "urn:uuid:f34efb7d-489b-4dbb-ac49-2bc016c22ab1",
          "display": "Hortense Gallet"
        },
        "effectiveDateTime": "2022-12-06T20:16:45Z",
        "specimen": {
          "reference": "urn:uuid:4b82d9c3-7df5-4088-a3e8-cabfdbcfe7a7"
        }
      }
    },
    {
      "fullUrl": "urn:uuid:0abc5cce-e381-4dc6-bef3-c7aa589d2c78",
      "resource": {
        "resourceType": "Observation",
        "id": "0abc5cce-e381-4dc6-bef3-c7aa589d2c78",
        "meta": {
          "profile": [
            "http://hl7.eu/fhir/laboratory/StructureDefinition/Observation-resultslab-eu-lab"
          ]
        },
        "performer": [
          {
            "display": "The Central European Lab"
          }
        ],
        "category": [
          {
            "coding": [
              {
                "system": "http://terminology.hl7.org/CodeSystem/observation-category",
                "code": "laboratory"
              }
            ]
          }
        ],
        "code": {
          "coding": [
            {
              "code": "5799-2",
              "system": "http://loinc.org",
              "display": "Leukocyte esterase [Presence] in Urine by Test strip"
            }
          ],
          "text": "Leukocyte esterase [Presence] in Urine by Test strip"
        },
        "text": {
          "status": "generated",
          "div": "<div xmlns=\"http://www.w3.org/1999/xhtml\"><table class=\"hl7__eu__lab__report\"><tr><th>Test</th><th>06-Dec-2022</th><th>Reference&#xA0;Range</th><th>Unit</th></tr><tr><td>Leukocyte esterase [Presence] in Urine by Test strip</td></tr></table></div>"
        },
        "status": "final",
        "subject": {
          "reference": "urn:uuid:f34efb7d-489b-4dbb-ac49-2bc016c22ab1",
          "display": "Hortense Gallet"
        },
        "effectiveDateTime": "2022-12-06T20:16:45Z",
        "specimen": {
          "reference": "urn:uuid:4b82d9c3-7df5-4088-a3e8-cabfdbcfe7a7"
        }
      }
    },
    {
      "fullUrl": "urn:uuid:a4f0d04c-3c3e-4d87-9b82-30b455add5e8",
      "resource": {
        "resourceType": "Device",
        "id": "a4f0d04c-3c3e-4d87-9b82-30b455add5e8",
        "deviceName": [
          {
            "name": "SYNDERAI Synthetic Generator",
            "type": "manufacturer-name"
          }
        ],
        "version": [
          {
            "value": "5.0"
          }
        ],
        "text": {
          "status": "generated",
          "div": "<div xmlns=\"http://www.w3.org/1999/xhtml\">SYNDERAI Synthetic Generator v5.0</div>"
        },
        "status": "active\"",
        "distinctIdentifier": "synderai-generator-50",
        "manufacturer": "SYNDERAI Project"
      }
    },
    {
      "fullUrl": "urn:uuid:43d6ba02-9475-4bdd-997e-6dd415c082c0",
      "resource": {
        "resourceType": "Provenance",
        "id": "43d6ba02-9475-4bdd-997e-6dd415c082c0",
        "target": [
          {
            "reference": "Patient/f34efb7d-489b-4dbb-ac49-2bc016c22ab1"
          },
          {
            "reference": "Bundle/6882f6d1-bca6-447e-929b-39c778768e9e"
          },
          {
            "reference": "Composition/c3b89ef0-0aed-47e6-a6de-12809d5e1f02"
          },
          {
            "reference": "PractitionerRole/70b737e2-cea4-4f99-ba03-8ea57ed2c4f0"
          },
          {
            "reference": "Practitioner/30284e9d-765f-4ea5-97f4-9ab3d1aee689"
          },
          {
            "reference": "PractitionerRole/c0c365aa-9ef2-4d2e-9949-1eff557c51a6"
          },
          {
            "reference": "Organization/48700472-1d51-4535-be94-171ccb0b9a70"
          }
        ],
        "activity": {
          "text": "Synthetic Example Data Generation"
        },
        "policy": [
          "https://synderai.net/synderai-synthetic-data-policy"
        ],
        "agent": [
          {
            "type": {
              "text": "author"
            },
            "who": {
              "reference": "Device/a4f0d04c-3c3e-4d87-9b82-30b455add5e8"
            }
          }
        ],
        "reason": [
          {
            "text": "Interoperability Testing and Training (non-clinical use)"
          }
        ],
        "text": {
          "status": "generated",
          "div": "<div xmlns=\"http://www.w3.org/1999/xhtml\">Provenance for SYNDERAI Synthetic Example Data Resource</div>"
        },
        "recorded": "2022-12-06T21:16:45Z"
      }
    },
    {
      "fullUrl": "urn:uuid:70b737e2-cea4-4f99-ba03-8ea57ed2c4f0",
      "resource": {
        "resourceType": "PractitionerRole",
        "id": "70b737e2-cea4-4f99-ba03-8ea57ed2c4f0",
        "meta": {
          "profile": [
            "http://hl7.eu/fhir/base/StructureDefinition/practitionerRole-eu"
          ]
        },
        "text": {
          "status": "generated",
          "div": "<div xmlns=\"http://www.w3.org/1999/xhtml\">Laboratory Role Id: 70b737e2-cea4-4f99-ba03-8ea57ed2c4f0</div>"
        },
        "practitioner": {
          "reference": "urn:uuid:30284e9d-765f-4ea5-97f4-9ab3d1aee689"
        }
      }
    },
    {
      "fullUrl": "urn:uuid:30284e9d-765f-4ea5-97f4-9ab3d1aee689",
      "resource": {
        "resourceType": "Practitioner",
        "id": "30284e9d-765f-4ea5-97f4-9ab3d1aee689",
        "meta": {
          "profile": [
            "http://hl7.eu/fhir/base/StructureDefinition/practitioner-eu"
          ]
        },
        "identifier": [
          {
            "assigner": {
              "display": "HL7 Europe"
            },
            "system": "urn:oid:2.16.840.1.113883.2.51.999",
            "value": "1ffb2ee6-aa68-4369-a19d-14b03bdb246c"
          }
        ],
        "name": [
          {
            "prefix": [
              "dr"
            ],
            "given": [
              "Ex"
            ],
            "family": "Ample"
          }
        ],
        "address": [
          {
            "line": [
              "Laboratoire Central Européenne",
              "Boulevard du Jardin Botanique 32"
            ],
            "postalCode": "1000",
            "city": "Brussels",
            "country": "Belgium"
          }
        ],
        "text": {
          "status": "generated",
          "div": "<div xmlns=\"http://www.w3.org/1999/xhtml\">Laboratory: Laboratoire Central Européenne, 1000 Brussels, Belgium</div>"
        }
      }
    }
  ],
  "type": "document",
  "timestamp": "2022-12-06T21:16:45Z"
}
