{
  "resourceType": "Bundle",
  "id": "7a19cc75-0f26-4fcf-b398-818f4950c686",
  "meta": {
    "profile": [
      "http://hl7.eu/fhir/laboratory/StructureDefinition/Bundle-eu-lab"
    ]
  },
  "identifier": {
    "assigner": {
      "display": "HL7 Europe"
    },
    "system": "urn:oid:2.16.840.1.113883.2.51.999",
    "value": "48008641-6a19-4f8b-9efa-6fb8a5ba3b31"
  },
  "entry": [
    {
      "fullUrl": "urn:uuid:eedbb90d-fc0e-4336-be9b-4e9f512811bc",
      "resource": {
        "resourceType": "Composition",
        "id": "eedbb90d-fc0e-4336-be9b-4e9f512811bc",
        "meta": {
          "profile": [
            "http://hl7.eu/fhir/laboratory/StructureDefinition/Composition-eu-lab"
          ]
        },
        "identifier": {
          "assigner": {
            "display": "HL7 Europe"
          },
          "system": "urn:oid:2.16.840.1.113883.2.51.999",
          "value": "b697ab62-5a30-4a4a-85cf-9da85001d2de"
        },
        "author": [
          {
            "reference": "urn:uuid:b71f91b0-5873-4d14-b94c-2142938c8523"
          }
        ],
        "category": [
          {
            "coding": [
              {
                "code": "26436-6",
                "system": "http://loinc.org",
                "display": "Laboratory studies (set)"
              }
            ]
          }
        ],
        "type": {
          "coding": [
            {
              "code": "11502-2",
              "system": "http://loinc.org",
              "display": "Laboratory report"
            }
          ],
          "text": "Laboratory Report"
        },
        "section": [
          {
            "code": {
              "coding": [
                {
                  "code": "26436-6",
                  "system": "http://loinc.org",
                  "display": "Laboratory studies (set)"
                }
              ],
              "text": "Laboratory studies"
            },
            "section": [
              {
                "code": {
                  "coding": [
                    {
                      "code": "$18719-5",
                      "system": "http://loinc.org",
                      "display": "Chemistry studies (set)"
                    }
                  ],
                  "text": "Chemistry"
                },
                "entry": [
                  {
                    "reference": "urn:uuid:d53d056d-0a97-42a5-bc3e-9974d30683c6"
                  },
                  {
                    "reference": "urn:uuid:6edd0088-64dd-4371-96b3-4f6905f453ad"
                  },
                  {
                    "reference": "urn:uuid:c03e8ddd-7ab1-423a-8e3e-dc8bbf17f71f"
                  },
                  {
                    "reference": "urn:uuid:534b3463-9d90-4f7c-b77a-a16ac35def4c"
                  },
                  {
                    "reference": "urn:uuid:036ef0f8-1455-4558-8744-f4b87c8b084d"
                  },
                  {
                    "reference": "urn:uuid:e5cc7c04-d054-43d0-b360-8a5c50915d4e"
                  },
                  {
                    "reference": "urn:uuid:c97fff11-bcba-421e-b272-a07c69fcd210"
                  },
                  {
                    "reference": "urn:uuid:92edfcb7-1bc7-4e33-8ee3-0428f0a43828"
                  },
                  {
                    "reference": "urn:uuid:75fb83e0-5837-4c24-a0c6-ac1d7ad776e1"
                  }
                ],
                "text": {
                  "status": "generated",
                  "div": "<div xmlns=\"http://www.w3.org/1999/xhtml\"><h3>Chemistry</h3><table class=\"hl7__eu__lab__report\"><thead><tr><th>Test</th><th>19-DEC-2024</th><th>Reference&#xA0;Range</th><th>Unit</th></tr></thead><tbody><tr><td>Glucose [Mass/volume] in Serum or Plasma</td><td><strong>67.4 L</strong></td><td>70 - 140</td><td>mg/dL</td></tr><tr><td>Urea nitrogen [Mass/volume] in Serum or Plasma</td><td>8.3</td><td>7 - 50</td><td>mg/dL</td></tr><tr><td>Creatinine [Mass/volume] in Serum or Plasma</td><td><strong>2.0 H</strong></td><td>0.6 - 1.1</td><td>mg/dL</td></tr><tr><td>Calcium [Mass/volume] in Serum or Plasma</td><td>9.8</td><td>8.5 - 10.5</td><td>mg/dL</td></tr><tr><td>Sodium [Moles/volume] in Serum or Plasma</td><td>141.1</td><td>135 - 145</td><td>mmol/L</td></tr><tr><td>Potassium [Moles/volume] in Serum or Plasma</td><td>4.3</td><td>3.5 - 5.1</td><td>mmol/L</td></tr><tr><td>Chloride [Moles/volume] in Serum or Plasma</td><td>103.3</td><td>98 - 108</td><td>mmol/L</td></tr><tr><td>Carbon dioxide, total [Moles/volume] in Serum or Plasma</td><td>28.2</td><td>22 - 32</td><td>mmol/L</td></tr><tr><td>Ketones [Presence] in Urine by Test strip</td><td>Urine ketone test = +</td><td></td><td></td></tr></tbody></table></div>"
                },
                "title": "Chemistry"
              },
              {
                "code": {
                  "coding": [
                    {
                      "code": "$18729-4",
                      "system": "http://loinc.org",
                      "display": "Urinalysis studies (set)"
                    }
                  ],
                  "text": "Urinalysis"
                },
                "entry": [
                  {
                    "reference": "urn:uuid:d40c99ad-0061-41f6-bcee-cfb582640f64"
                  },
                  {
                    "reference": "urn:uuid:f704bb51-472b-47ca-8719-ea1e1991c48a"
                  },
                  {
                    "reference": "urn:uuid:1d12249d-139c-494c-b92e-5638f75288ad"
                  },
                  {
                    "reference": "urn:uuid:2ffe083c-e37c-44ba-85af-57a09b885651"
                  },
                  {
                    "reference": "urn:uuid:4ed3b0ac-bc78-4ebf-98b5-4b28063a34d0"
                  },
                  {
                    "reference": "urn:uuid:b7d16f55-0a76-435b-92dc-6058a2139576"
                  },
                  {
                    "reference": "urn:uuid:7066a26e-c6ed-4ea3-b40f-f9ee43271822"
                  },
                  {
                    "reference": "urn:uuid:28b0cfd2-cecc-4e45-9d6c-0083efef39de"
                  },
                  {
                    "reference": "urn:uuid:786289ff-943b-4512-ac01-80181e875f42"
                  },
                  {
                    "reference": "urn:uuid:0cd8e9e8-4aa9-4ee8-9bee-1a3708fadf83"
                  },
                  {
                    "reference": "urn:uuid:0904fcce-3752-4899-86da-f717f96ef130"
                  },
                  {
                    "reference": "urn:uuid:bb916ab3-50c7-4432-9e2c-72695170569e"
                  }
                ],
                "text": {
                  "status": "generated",
                  "div": "<div xmlns=\"http://www.w3.org/1999/xhtml\"><h3>Urinalysis</h3><table class=\"hl7__eu__lab__report\"><thead><tr><th>Test</th><th>19-DEC-2024</th><th>Reference&#xA0;Range</th><th>Unit</th></tr></thead><tbody><tr><td>Glucose [Mass/volume] in Urine by Test strip</td><td><strong>1.9 H</strong></td><td>0.8 - 0</td><td>mg/dL</td></tr><tr><td>Glucose [Presence] in Urine by Test strip</td><td>++</td><td></td><td></td></tr><tr><td>Bilirubin.total [Mass/volume] in Urine by Test strip</td><td>0.9</td><td>0 - 1</td><td>mg/dL</td></tr><tr><td>Bilirubin.total [Presence] in Urine by Test strip</td><td>Finding of bilirubin in urine</td><td></td><td></td></tr><tr><td>Ketones [Mass/volume] in Urine by Test strip</td><td>11.6</td><td>0 - 20</td><td>mg/dL</td></tr><tr><td>Specific gravity of Urine by Test strip</td><td><strong>1.0 L</strong></td><td>1.01 - 1.03</td><td>{nominal}</td></tr><tr><td>pH of Urine by Test strip</td><td>5.0</td><td>4.6 - 7</td><td>pH</td></tr><tr><td>Protein [Mass/volume] in Urine by Test strip</td><td><strong>223.1 H</strong></td><td>0 - 15</td><td>mg/dL</td></tr><tr><td>Protein [Presence] in Urine by Test strip</td><td>Urine protein test = ++</td><td></td><td></td></tr><tr><td>Nitrite [Presence] in Urine by Test strip</td><td>Urine nitrite negative</td><td></td><td></td></tr><tr><td>Hemoglobin [Presence] in Urine by Test strip</td><td>Urine blood test = negative</td><td></td><td></td></tr><tr><td>Leukocyte esterase [Presence] in Urine by Test strip</td><td>Urine leukocyte test negative</td><td></td><td></td></tr></tbody></table></div>"
                },
                "title": "Urinalysis"
              },
              {
                "code": {
                  "coding": [
                    {
                      "code": "$LP7846-1",
                      "system": "http://loinc.org",
                      "display": "Specimen information"
                    }
                  ],
                  "text": "Specimen information"
                },
                "entry": [
                  {
                    "reference": "urn:uuid:0723c621-109c-4069-87d4-dbda9d2d520f"
                  },
                  {
                    "reference": "urn:uuid:cede9402-8561-4ba1-823a-4d60011d6f6d"
                  },
                  {
                    "reference": "urn:uuid:a9e1ec5b-9416-45be-b3a7-1ad4be8dc24d"
                  },
                  {
                    "reference": "urn:uuid:5938cb0a-f294-4ebe-90b0-4566db79bb07"
                  }
                ],
                "text": {
                  "status": "generated",
                  "div": "<div xmlns=\"http://www.w3.org/1999/xhtml\"><h3>Specimen information</h3><table class=\"hl7__eu__lab__report\"><thead><tr><th>Test</th><th>19-DEC-2024</th><th>Specimen</th><th></th></tr></thead><tbody><tr><td>Appearance of Urine</td><td>Cloudy urine</td><td>Urine</td><td></td></tr><tr><td>Odor of Urine</td><td>Urine smell ammoniacal</td><td>Urine</td><td></td></tr><tr><td>Clarity of Urine</td><td>Translucent</td><td>Urine</td><td></td></tr><tr><td>Color of Urine</td><td>Brown color</td><td>Urine</td><td></td></tr></tbody></table></div>"
                },
                "title": "Specimen information"
              }
            ],
            "title": "Laboratory Report"
          },
          {
            "text": {
              "status": "generated",
              "div": "<div xmlns=\"http://www.w3.org/1999/xhtml\"><h3>Annotation</h3><table class=\"hl7__eu__lab__report\"><tr><th>Conclusion and Recommendations based on this report and previous findings known to us</th></tr><tr><td>The patient shows mild hypoglycemia, elevated serum creatinine suggesting impaired renal function, and significant proteinuria with low urine specific gravity, indicating possible nephrotic syndrome or glomerular pathology. Urine is brown, cloudy, and ammoniacal, but without evidence of infection (negative nitrites/leukocytes). Glycosuria is present despite low serum glucose, which may indicate tubular dysfunction. Further nephrological evaluation is recommended.</td></tr></table></div>"
            },
            "code": {
              "coding": [
                {
                  "system": "http://loinc.org",
                  "code": "48767-8",
                  "display": "Annotation comment"
                }
              ]
            },
            "title": "Annotation comment"
          }
        ],
        "status": "final",
        "subject": {
          "reference": "urn:uuid:42e47c41-f4d4-443a-af74-ff33a0d21bc1",
          "display": "Marthe Gallet"
        },
        "date": "2024-12-19T20:05:43Z",
        "title": "Laboratory Report",
        "confidentiality": "N"
      }
    },
    {
      "fullUrl": "urn:uuid:ffdc61b2-fdb4-4e34-a228-33cf9b8a4101",
      "resource": {
        "resourceType": "DiagnosticReport",
        "id": "ffdc61b2-fdb4-4e34-a228-33cf9b8a4101",
        "meta": {
          "profile": [
            "http://hl7.eu/fhir/laboratory/StructureDefinition/DiagnosticReport-eu-lab"
          ]
        },
        "identifier": [
          {
            "assigner": {
              "display": "HL7 Europe"
            },
            "system": "urn:oid:2.16.840.1.113883.2.51.999",
            "value": "b21b5b6a-faa2-4e19-9611-78804379923a"
          }
        ],
        "extension": [
          {
            "url": "http://hl7.org/fhir/5.0/StructureDefinition/extension-DiagnosticReport.composition",
            "valueReference": {
              "reference": "urn:uuid:b697ab62-5a30-4a4a-85cf-9da85001d2de"
            }
          }
        ],
        "category": [
          {
            "coding": [
              {
                "code": "26436-6",
                "system": "http://loinc.org",
                "display": "Laboratory studies (set)"
              }
            ]
          }
        ],
        "specimen": [
          {
            "reference": "urn:uuid:14e1da46-fde4-4d01-b660-d31d3f2b2097"
          },
          {
            "reference": "urn:uuid:38955bda-0219-4ed8-8535-559758f96a05"
          }
        ],
        "result": [
          {
            "reference": "urn:uuid:d53d056d-0a97-42a5-bc3e-9974d30683c6"
          },
          {
            "reference": "urn:uuid:6edd0088-64dd-4371-96b3-4f6905f453ad"
          },
          {
            "reference": "urn:uuid:c03e8ddd-7ab1-423a-8e3e-dc8bbf17f71f"
          },
          {
            "reference": "urn:uuid:534b3463-9d90-4f7c-b77a-a16ac35def4c"
          },
          {
            "reference": "urn:uuid:036ef0f8-1455-4558-8744-f4b87c8b084d"
          },
          {
            "reference": "urn:uuid:e5cc7c04-d054-43d0-b360-8a5c50915d4e"
          },
          {
            "reference": "urn:uuid:c97fff11-bcba-421e-b272-a07c69fcd210"
          },
          {
            "reference": "urn:uuid:92edfcb7-1bc7-4e33-8ee3-0428f0a43828"
          },
          {
            "reference": "urn:uuid:0723c621-109c-4069-87d4-dbda9d2d520f"
          },
          {
            "reference": "urn:uuid:cede9402-8561-4ba1-823a-4d60011d6f6d"
          },
          {
            "reference": "urn:uuid:a9e1ec5b-9416-45be-b3a7-1ad4be8dc24d"
          },
          {
            "reference": "urn:uuid:5938cb0a-f294-4ebe-90b0-4566db79bb07"
          },
          {
            "reference": "urn:uuid:d40c99ad-0061-41f6-bcee-cfb582640f64"
          },
          {
            "reference": "urn:uuid:f704bb51-472b-47ca-8719-ea1e1991c48a"
          },
          {
            "reference": "urn:uuid:1d12249d-139c-494c-b92e-5638f75288ad"
          },
          {
            "reference": "urn:uuid:2ffe083c-e37c-44ba-85af-57a09b885651"
          },
          {
            "reference": "urn:uuid:4ed3b0ac-bc78-4ebf-98b5-4b28063a34d0"
          },
          {
            "reference": "urn:uuid:75fb83e0-5837-4c24-a0c6-ac1d7ad776e1"
          },
          {
            "reference": "urn:uuid:b7d16f55-0a76-435b-92dc-6058a2139576"
          },
          {
            "reference": "urn:uuid:7066a26e-c6ed-4ea3-b40f-f9ee43271822"
          },
          {
            "reference": "urn:uuid:28b0cfd2-cecc-4e45-9d6c-0083efef39de"
          },
          {
            "reference": "urn:uuid:786289ff-943b-4512-ac01-80181e875f42"
          },
          {
            "reference": "urn:uuid:0cd8e9e8-4aa9-4ee8-9bee-1a3708fadf83"
          },
          {
            "reference": "urn:uuid:0904fcce-3752-4899-86da-f717f96ef130"
          },
          {
            "reference": "urn:uuid:bb916ab3-50c7-4432-9e2c-72695170569e"
          }
        ],
        "status": "registered",
        "code": {
          "coding": [
            {
              "code": "11502-2",
              "system": "http://loinc.org",
              "display": "Laboratory report"
            }
          ]
        },
        "subject": {
          "reference": "urn:uuid:42e47c41-f4d4-443a-af74-ff33a0d21bc1",
          "display": "Marthe Gallet"
        }
      }
    },
    {
      "fullUrl": "urn:uuid:42e47c41-f4d4-443a-af74-ff33a0d21bc1",
      "resource": {
        "resourceType": "Patient",
        "id": "42e47c41-f4d4-443a-af74-ff33a0d21bc1",
        "meta": {
          "security": [
            {
              "system": "http://terminology.hl7.org/CodeSystem/v3-ActReason",
              "code": "HTEST"
            },
            {
              "system": "http://terminology.hl7.org/CodeSystem/v3-ActReason",
              "code": "TRAIN"
            }
          ],
          "tag": [
            {
              "system": "https://synderai.net/fhir/CodeSystem/tags",
              "code": "synthetic",
              "display": "SYNDERAI Synthetic data"
            }
          ],
          "profile": [
            "http://hl7.eu/fhir/base/StructureDefinition/patient-eu-core"
          ]
        },
        "identifier": [
          {
            "type": {
              "coding": [
                {
                  "code": "PT",
                  "system": "http://terminology.hl7.org/CodeSystem/v2-0203"
                }
              ]
            },
            "system": "http://ec.europa.eu/identifier/eci",
            "value": "9444-947487-6"
          },
          {
            "type": {
              "coding": [
                {
                  "code": "MR",
                  "system": "http://terminology.hl7.org/CodeSystem/v2-0203"
                }
              ]
            },
            "system": "http://local.setting.eu/identifier",
            "value": "854228d5-a476-2d9c-a1d7-c3202375a617"
          }
        ],
        "name": [
          {
            "family": "Gallet"
          },
          {
            "given": [
              "Marthe"
            ]
          },
          {
            "text": "Marthe Gallet"
          }
        ],
        "address": [
          {
            "line": [
              "3, rue Emmanuel Goncalves"
            ],
            "use": "home",
            "type": "physical",
            "postalCode": "49490",
            "city": "Briand",
            "country": "France"
          }
        ],
        "telecom": [
          {
            "system": "phone",
            "value": "+33 1 70 99 82 74"
          }
        ],
        "extension": [
          {
            "url": "http://hl7.org/fhir/StructureDefinition/patient-nationality",
            "valueCodeableConcept": {
              "coding": [
                {
                  "code": "FR",
                  "system": "http://hl7.org/fhir/ValueSet/country"
                }
              ]
            }
          }
        ],
        "text": {
          "status": "generated",
          "div": "<div xmlns=\"http://www.w3.org/1999/xhtml\"><table class=\"hl7__ips\"><tr><td>Marthe Gallet</td><td>female</td><td>29-Oct-1950</td></tr></table></div>"
        },
        "gender": "female",
        "birthDate": "1950-10-29"
      }
    },
    {
      "fullUrl": "urn:uuid:e327139f-dfa9-4421-9766-a859479f2428",
      "resource": {
        "resourceType": "ServiceRequest",
        "id": "e327139f-dfa9-4421-9766-a859479f2428",
        "meta": {
          "profile": [
            "http://hl7.eu/fhir/laboratory/StructureDefinition/ServiceRequest-eu-lab"
          ]
        },
        "identifier": [
          {
            "system": "http://example.org",
            "value": "dbbd709a-5afe-49d1-964f-22842f09ceb7"
          }
        ],
        "specimen": [
          {
            "reference": "urn:uuid:14e1da46-fde4-4d01-b660-d31d3f2b2097"
          },
          {
            "reference": "urn:uuid:38955bda-0219-4ed8-8535-559758f96a05"
          }
        ],
        "reasonCode": [
          {
            "coding": [
              {
                "code": "431856006",
                "system": "http://snomed.info/sct",
                "display": "Chronic kidney disease stage 2"
              }
            ]
          },
          {
            "coding": [
              {
                "code": "90781000119102",
                "system": "http://snomed.info/sct",
                "display": "Microalbuminuria due to type 2 diabetes mellitus"
              }
            ]
          },
          {
            "coding": [
              {
                "code": "127013003",
                "system": "http://snomed.info/sct",
                "display": "Disorder of kidney due to diabetes mellitus"
              }
            ]
          },
          {
            "coding": [
              {
                "code": "431855005",
                "system": "http://snomed.info/sct",
                "display": "Chronic kidney disease stage 1"
              }
            ]
          },
          {
            "coding": [
              {
                "code": "55822004",
                "system": "http://snomed.info/sct",
                "display": "Hyperlipidemia"
              }
            ]
          },
          {
            "coding": [
              {
                "code": "59621000",
                "system": "http://snomed.info/sct",
                "display": "Essential hypertension"
              }
            ]
          }
        ],
        "status": "active",
        "intent": "order",
        "code": {
          "coding": [
            {
              "code": "108252007",
              "system": "http://snomed.info/sct",
              "display": "Laboratory procedure"
            }
          ]
        },
        "subject": {
          "reference": "urn:uuid:42e47c41-f4d4-443a-af74-ff33a0d21bc1",
          "display": "Marthe Gallet"
        },
        "requester": {
          "reference": "urn:uuid:663b3b94-8ecf-4bc3-81a6-04a3b015f7e9"
        }
      }
    },
    {
      "fullUrl": "urn:uuid:663b3b94-8ecf-4bc3-81a6-04a3b015f7e9",
      "resource": {
        "resourceType": "PractitionerRole",
        "id": "663b3b94-8ecf-4bc3-81a6-04a3b015f7e9",
        "meta": {
          "profile": [
            "http://hl7.eu/fhir/base/StructureDefinition/practitionerRole-eu"
          ]
        },
        "text": {
          "status": "generated",
          "div": "<div xmlns=\"http://www.w3.org/1999/xhtml\">Provider Role Id: 663b3b94-8ecf-4bc3-81a6-04a3b015f7e9</div>"
        },
        "organization": {
          "reference": "urn:uuid:101e33d3-6399-4ae0-bf16-7473a40722fb"
        }
      }
    },
    {
      "fullUrl": "urn:uuid:101e33d3-6399-4ae0-bf16-7473a40722fb",
      "resource": {
        "resourceType": "Organization",
        "id": "101e33d3-6399-4ae0-bf16-7473a40722fb",
        "meta": {
          "profile": [
            "http://hl7.eu/fhir/base/StructureDefinition/organization-eu"
          ]
        },
        "identifier": [
          {
            "assigner": {
              "display": "HL7 Europe"
            },
            "system": "urn:oid:2.16.840.1.113883.2.51.999",
            "value": "a958c8eb-ae46-4a18-a0ac-41654a0655c4"
          }
        ],
        "address": [
          {
            "line": [
              "Rue Larrey nan"
            ],
            "city": "Angers",
            "postalCode": "49100",
            "country": "France"
          }
        ],
        "text": {
          "status": "generated",
          "div": "<div xmlns=\"http://www.w3.org/1999/xhtml\">Provider Organization: CHU d&#039;Angers</div>"
        },
        "name": "CHU d&#039;Angers"
      }
    },
    {
      "fullUrl": "urn:uuid:14e1da46-fde4-4d01-b660-d31d3f2b2097",
      "resource": {
        "resourceType": "Specimen",
        "id": "14e1da46-fde4-4d01-b660-d31d3f2b2097",
        "meta": {
          "profile": [
            "http://hl7.eu/fhir/laboratory/StructureDefinition/Specimen-eu-lab"
          ]
        },
        "collection": {
          "collectedDateTime": "2024-12-19"
        },
        "text": {
          "status": "generated",
          "div": "<div xmlns=\"http://www.w3.org/1999/xhtml\"><table class=\"hl7__eu__lab__report\"><tr><th>Specimen</th><th>Collection Date</th></tr><tr><td>Acellular blood (serum or plasma) specimen</td><td><span class=\"nb\">19-Dec-2024</span></td></tr></table></div>"
        },
        "type": {
          "coding": [
            {
              "code": "122592007",
              "system": "http://snomed.info/sct",
              "display": "Acellular blood (serum or plasma) specimen"
            }
          ]
        }
      }
    },
    {
      "fullUrl": "urn:uuid:38955bda-0219-4ed8-8535-559758f96a05",
      "resource": {
        "resourceType": "Specimen",
        "id": "38955bda-0219-4ed8-8535-559758f96a05",
        "meta": {
          "profile": [
            "http://hl7.eu/fhir/laboratory/StructureDefinition/Specimen-eu-lab"
          ]
        },
        "collection": {
          "collectedDateTime": "2024-12-19"
        },
        "text": {
          "status": "generated",
          "div": "<div xmlns=\"http://www.w3.org/1999/xhtml\"><table class=\"hl7__eu__lab__report\"><tr><th>Specimen</th><th>Collection Date</th></tr><tr><td>Urine specimen</td><td><span class=\"nb\">19-Dec-2024</span></td></tr></table></div>"
        },
        "type": {
          "coding": [
            {
              "code": "122575003",
              "system": "http://snomed.info/sct",
              "display": "Urine specimen"
            }
          ]
        }
      }
    },
    {
      "fullUrl": "urn:uuid:d53d056d-0a97-42a5-bc3e-9974d30683c6",
      "resource": {
        "resourceType": "Observation",
        "id": "d53d056d-0a97-42a5-bc3e-9974d30683c6",
        "meta": {
          "profile": [
            "http://hl7.eu/fhir/laboratory/StructureDefinition/Observation-resultslab-eu-lab"
          ]
        },
        "performer": [
          {
            "display": "The Central European Lab"
          }
        ],
        "category": [
          {
            "coding": [
              {
                "system": "http://terminology.hl7.org/CodeSystem/observation-category",
                "code": "laboratory"
              }
            ]
          }
        ],
        "code": {
          "coding": [
            {
              "code": "2345-7",
              "system": "http://loinc.org",
              "display": "Glucose [Mass/volume] in Serum or Plasma"
            }
          ],
          "text": "Glucose [Mass/volume] in Serum or Plasma"
        },
        "valueQuantity": {
          "system": "http://unitsofmeasure.org",
          "value": 67.4,
          "unit": "mg/dL",
          "code": "mg/dL"
        },
        "referenceRange": [
          {
            "low": {
              "value": 70,
              "code": "mg/dL",
              "system": "http://unitsofmeasure.org"
            }
          },
          {
            "high": {
              "value": 140,
              "code": "mg/dL",
              "system": "http://unitsofmeasure.org"
            }
          }
        ],
        "interpretation": [
          {
            "coding": [
              {
                "code": "L",
                "system": "http://terminology.hl7.org/CodeSystem/v3-ObservationInterpretation",
                "display": "Low"
              }
            ]
          }
        ],
        "text": {
          "status": "generated",
          "div": "<div xmlns=\"http://www.w3.org/1999/xhtml\"><table class=\"hl7__eu__lab__report\"><tr><th>Test</th><th>19-Dec-2024</th><th>Reference&#xA0;Range</th><th>Unit</th></tr><tr><td>Glucose [Mass/volume] in Serum or Plasma</td><td>67.4</td><td>70 - 140</td><td>L</td><td>mg/dL</td></tr></table></div>"
        },
        "status": "final",
        "subject": {
          "reference": "urn:uuid:42e47c41-f4d4-443a-af74-ff33a0d21bc1",
          "display": "Marthe Gallet"
        },
        "effectiveDateTime": "2024-12-19T19:05:43Z",
        "specimen": {
          "reference": "urn:uuid:14e1da46-fde4-4d01-b660-d31d3f2b2097"
        }
      }
    },
    {
      "fullUrl": "urn:uuid:6edd0088-64dd-4371-96b3-4f6905f453ad",
      "resource": {
        "resourceType": "Observation",
        "id": "6edd0088-64dd-4371-96b3-4f6905f453ad",
        "meta": {
          "profile": [
            "http://hl7.eu/fhir/laboratory/StructureDefinition/Observation-resultslab-eu-lab"
          ]
        },
        "performer": [
          {
            "display": "The Central European Lab"
          }
        ],
        "category": [
          {
            "coding": [
              {
                "system": "http://terminology.hl7.org/CodeSystem/observation-category",
                "code": "laboratory"
              }
            ]
          }
        ],
        "code": {
          "coding": [
            {
              "code": "3094-0",
              "system": "http://loinc.org",
              "display": "Urea nitrogen [Mass/volume] in Serum or Plasma"
            }
          ],
          "text": "Urea nitrogen [Mass/volume] in Serum or Plasma"
        },
        "valueQuantity": {
          "system": "http://unitsofmeasure.org",
          "value": 8.3,
          "unit": "mg/dL",
          "code": "mg/dL"
        },
        "referenceRange": [
          {
            "low": {
              "value": 7,
              "code": "mg/dL",
              "system": "http://unitsofmeasure.org"
            }
          },
          {
            "high": {
              "value": 50,
              "code": "mg/dL",
              "system": "http://unitsofmeasure.org"
            }
          }
        ],
        "text": {
          "status": "generated",
          "div": "<div xmlns=\"http://www.w3.org/1999/xhtml\"><table class=\"hl7__eu__lab__report\"><tr><th>Test</th><th>19-Dec-2024</th><th>Reference&#xA0;Range</th><th>Unit</th></tr><tr><td>Urea nitrogen [Mass/volume] in Serum or Plasma</td><td>8.3</td><td>7 - 50</td><td></td><td>mg/dL</td></tr></table></div>"
        },
        "status": "final",
        "subject": {
          "reference": "urn:uuid:42e47c41-f4d4-443a-af74-ff33a0d21bc1",
          "display": "Marthe Gallet"
        },
        "effectiveDateTime": "2024-12-19T19:05:43Z",
        "specimen": {
          "reference": "urn:uuid:14e1da46-fde4-4d01-b660-d31d3f2b2097"
        }
      }
    },
    {
      "fullUrl": "urn:uuid:c03e8ddd-7ab1-423a-8e3e-dc8bbf17f71f",
      "resource": {
        "resourceType": "Observation",
        "id": "c03e8ddd-7ab1-423a-8e3e-dc8bbf17f71f",
        "meta": {
          "profile": [
            "http://hl7.eu/fhir/laboratory/StructureDefinition/Observation-resultslab-eu-lab"
          ]
        },
        "performer": [
          {
            "display": "The Central European Lab"
          }
        ],
        "category": [
          {
            "coding": [
              {
                "system": "http://terminology.hl7.org/CodeSystem/observation-category",
                "code": "laboratory"
              }
            ]
          }
        ],
        "code": {
          "coding": [
            {
              "code": "2160-0",
              "system": "http://loinc.org",
              "display": "Creatinine [Mass/volume] in Serum or Plasma"
            }
          ],
          "text": "Creatinine [Mass/volume] in Serum or Plasma"
        },
        "valueQuantity": {
          "system": "http://unitsofmeasure.org",
          "value": 2,
          "unit": "mg/dL",
          "code": "mg/dL"
        },
        "referenceRange": [
          {
            "low": {
              "value": 0.6,
              "code": "mg/dL",
              "system": "http://unitsofmeasure.org"
            }
          },
          {
            "high": {
              "value": 1.1,
              "code": "mg/dL",
              "system": "http://unitsofmeasure.org"
            }
          }
        ],
        "interpretation": [
          {
            "coding": [
              {
                "code": "H",
                "system": "http://terminology.hl7.org/CodeSystem/v3-ObservationInterpretation",
                "display": "High"
              }
            ]
          }
        ],
        "text": {
          "status": "generated",
          "div": "<div xmlns=\"http://www.w3.org/1999/xhtml\"><table class=\"hl7__eu__lab__report\"><tr><th>Test</th><th>19-Dec-2024</th><th>Reference&#xA0;Range</th><th>Unit</th></tr><tr><td>Creatinine [Mass/volume] in Serum or Plasma</td><td>2.0</td><td>0.6 - 1.1</td><td>H</td><td>mg/dL</td></tr></table></div>"
        },
        "status": "final",
        "subject": {
          "reference": "urn:uuid:42e47c41-f4d4-443a-af74-ff33a0d21bc1",
          "display": "Marthe Gallet"
        },
        "effectiveDateTime": "2024-12-19T19:05:43Z",
        "specimen": {
          "reference": "urn:uuid:14e1da46-fde4-4d01-b660-d31d3f2b2097"
        }
      }
    },
    {
      "fullUrl": "urn:uuid:534b3463-9d90-4f7c-b77a-a16ac35def4c",
      "resource": {
        "resourceType": "Observation",
        "id": "534b3463-9d90-4f7c-b77a-a16ac35def4c",
        "meta": {
          "profile": [
            "http://hl7.eu/fhir/laboratory/StructureDefinition/Observation-resultslab-eu-lab"
          ]
        },
        "performer": [
          {
            "display": "The Central European Lab"
          }
        ],
        "category": [
          {
            "coding": [
              {
                "system": "http://terminology.hl7.org/CodeSystem/observation-category",
                "code": "laboratory"
              }
            ]
          }
        ],
        "code": {
          "coding": [
            {
              "code": "17861-6",
              "system": "http://loinc.org",
              "display": "Calcium [Mass/volume] in Serum or Plasma"
            }
          ],
          "text": "Calcium [Mass/volume] in Serum or Plasma"
        },
        "valueQuantity": {
          "system": "http://unitsofmeasure.org",
          "value": 9.8,
          "unit": "mg/dL",
          "code": "mg/dL"
        },
        "referenceRange": [
          {
            "low": {
              "value": 8.5,
              "code": "mg/dL",
              "system": "http://unitsofmeasure.org"
            }
          },
          {
            "high": {
              "value": 10.5,
              "code": "mg/dL",
              "system": "http://unitsofmeasure.org"
            }
          }
        ],
        "text": {
          "status": "generated",
          "div": "<div xmlns=\"http://www.w3.org/1999/xhtml\"><table class=\"hl7__eu__lab__report\"><tr><th>Test</th><th>19-Dec-2024</th><th>Reference&#xA0;Range</th><th>Unit</th></tr><tr><td>Calcium [Mass/volume] in Serum or Plasma</td><td>9.8</td><td>8.5 - 10.5</td><td></td><td>mg/dL</td></tr></table></div>"
        },
        "status": "final",
        "subject": {
          "reference": "urn:uuid:42e47c41-f4d4-443a-af74-ff33a0d21bc1",
          "display": "Marthe Gallet"
        },
        "effectiveDateTime": "2024-12-19T19:05:43Z",
        "specimen": {
          "reference": "urn:uuid:14e1da46-fde4-4d01-b660-d31d3f2b2097"
        }
      }
    },
    {
      "fullUrl": "urn:uuid:036ef0f8-1455-4558-8744-f4b87c8b084d",
      "resource": {
        "resourceType": "Observation",
        "id": "036ef0f8-1455-4558-8744-f4b87c8b084d",
        "meta": {
          "profile": [
            "http://hl7.eu/fhir/laboratory/StructureDefinition/Observation-resultslab-eu-lab"
          ]
        },
        "performer": [
          {
            "display": "The Central European Lab"
          }
        ],
        "category": [
          {
            "coding": [
              {
                "system": "http://terminology.hl7.org/CodeSystem/observation-category",
                "code": "laboratory"
              }
            ]
          }
        ],
        "code": {
          "coding": [
            {
              "code": "2951-2",
              "system": "http://loinc.org",
              "display": "Sodium [Moles/volume] in Serum or Plasma"
            }
          ],
          "text": "Sodium [Moles/volume] in Serum or Plasma"
        },
        "valueQuantity": {
          "system": "http://unitsofmeasure.org",
          "value": 141.1,
          "unit": "mmol/L",
          "code": "mmol/L"
        },
        "referenceRange": [
          {
            "low": {
              "value": 135,
              "code": "mmol/L",
              "system": "http://unitsofmeasure.org"
            }
          },
          {
            "high": {
              "value": 145,
              "code": "mmol/L",
              "system": "http://unitsofmeasure.org"
            }
          }
        ],
        "text": {
          "status": "generated",
          "div": "<div xmlns=\"http://www.w3.org/1999/xhtml\"><table class=\"hl7__eu__lab__report\"><tr><th>Test</th><th>19-Dec-2024</th><th>Reference&#xA0;Range</th><th>Unit</th></tr><tr><td>Sodium [Moles/volume] in Serum or Plasma</td><td>141.1</td><td>135 - 145</td><td></td><td>mmol/L</td></tr></table></div>"
        },
        "status": "final",
        "subject": {
          "reference": "urn:uuid:42e47c41-f4d4-443a-af74-ff33a0d21bc1",
          "display": "Marthe Gallet"
        },
        "effectiveDateTime": "2024-12-19T19:05:43Z",
        "specimen": {
          "reference": "urn:uuid:14e1da46-fde4-4d01-b660-d31d3f2b2097"
        }
      }
    },
    {
      "fullUrl": "urn:uuid:e5cc7c04-d054-43d0-b360-8a5c50915d4e",
      "resource": {
        "resourceType": "Observation",
        "id": "e5cc7c04-d054-43d0-b360-8a5c50915d4e",
        "meta": {
          "profile": [
            "http://hl7.eu/fhir/laboratory/StructureDefinition/Observation-resultslab-eu-lab"
          ]
        },
        "performer": [
          {
            "display": "The Central European Lab"
          }
        ],
        "category": [
          {
            "coding": [
              {
                "system": "http://terminology.hl7.org/CodeSystem/observation-category",
                "code": "laboratory"
              }
            ]
          }
        ],
        "code": {
          "coding": [
            {
              "code": "2823-3",
              "system": "http://loinc.org",
              "display": "Potassium [Moles/volume] in Serum or Plasma"
            }
          ],
          "text": "Potassium [Moles/volume] in Serum or Plasma"
        },
        "valueQuantity": {
          "system": "http://unitsofmeasure.org",
          "value": 4.3,
          "unit": "mmol/L",
          "code": "mmol/L"
        },
        "referenceRange": [
          {
            "low": {
              "value": 3.5,
              "code": "mmol/L",
              "system": "http://unitsofmeasure.org"
            }
          },
          {
            "high": {
              "value": 5.1,
              "code": "mmol/L",
              "system": "http://unitsofmeasure.org"
            }
          }
        ],
        "text": {
          "status": "generated",
          "div": "<div xmlns=\"http://www.w3.org/1999/xhtml\"><table class=\"hl7__eu__lab__report\"><tr><th>Test</th><th>19-Dec-2024</th><th>Reference&#xA0;Range</th><th>Unit</th></tr><tr><td>Potassium [Moles/volume] in Serum or Plasma</td><td>4.3</td><td>3.5 - 5.1</td><td></td><td>mmol/L</td></tr></table></div>"
        },
        "status": "final",
        "subject": {
          "reference": "urn:uuid:42e47c41-f4d4-443a-af74-ff33a0d21bc1",
          "display": "Marthe Gallet"
        },
        "effectiveDateTime": "2024-12-19T19:05:43Z",
        "specimen": {
          "reference": "urn:uuid:14e1da46-fde4-4d01-b660-d31d3f2b2097"
        }
      }
    },
    {
      "fullUrl": "urn:uuid:c97fff11-bcba-421e-b272-a07c69fcd210",
      "resource": {
        "resourceType": "Observation",
        "id": "c97fff11-bcba-421e-b272-a07c69fcd210",
        "meta": {
          "profile": [
            "http://hl7.eu/fhir/laboratory/StructureDefinition/Observation-resultslab-eu-lab"
          ]
        },
        "performer": [
          {
            "display": "The Central European Lab"
          }
        ],
        "category": [
          {
            "coding": [
              {
                "system": "http://terminology.hl7.org/CodeSystem/observation-category",
                "code": "laboratory"
              }
            ]
          }
        ],
        "code": {
          "coding": [
            {
              "code": "2075-0",
              "system": "http://loinc.org",
              "display": "Chloride [Moles/volume] in Serum or Plasma"
            }
          ],
          "text": "Chloride [Moles/volume] in Serum or Plasma"
        },
        "valueQuantity": {
          "system": "http://unitsofmeasure.org",
          "value": 103.3,
          "unit": "mmol/L",
          "code": "mmol/L"
        },
        "referenceRange": [
          {
            "low": {
              "value": 98,
              "code": "mmol/L",
              "system": "http://unitsofmeasure.org"
            }
          },
          {
            "high": {
              "value": 108,
              "code": "mmol/L",
              "system": "http://unitsofmeasure.org"
            }
          }
        ],
        "text": {
          "status": "generated",
          "div": "<div xmlns=\"http://www.w3.org/1999/xhtml\"><table class=\"hl7__eu__lab__report\"><tr><th>Test</th><th>19-Dec-2024</th><th>Reference&#xA0;Range</th><th>Unit</th></tr><tr><td>Chloride [Moles/volume] in Serum or Plasma</td><td>103.3</td><td>98 - 108</td><td></td><td>mmol/L</td></tr></table></div>"
        },
        "status": "final",
        "subject": {
          "reference": "urn:uuid:42e47c41-f4d4-443a-af74-ff33a0d21bc1",
          "display": "Marthe Gallet"
        },
        "effectiveDateTime": "2024-12-19T19:05:43Z",
        "specimen": {
          "reference": "urn:uuid:14e1da46-fde4-4d01-b660-d31d3f2b2097"
        }
      }
    },
    {
      "fullUrl": "urn:uuid:92edfcb7-1bc7-4e33-8ee3-0428f0a43828",
      "resource": {
        "resourceType": "Observation",
        "id": "92edfcb7-1bc7-4e33-8ee3-0428f0a43828",
        "meta": {
          "profile": [
            "http://hl7.eu/fhir/laboratory/StructureDefinition/Observation-resultslab-eu-lab"
          ]
        },
        "performer": [
          {
            "display": "The Central European Lab"
          }
        ],
        "category": [
          {
            "coding": [
              {
                "system": "http://terminology.hl7.org/CodeSystem/observation-category",
                "code": "laboratory"
              }
            ]
          }
        ],
        "code": {
          "coding": [
            {
              "code": "2028-9",
              "system": "http://loinc.org",
              "display": "Carbon dioxide, total [Moles/volume] in Serum or Plasma"
            }
          ],
          "text": "Carbon dioxide, total [Moles/volume] in Serum or Plasma"
        },
        "valueQuantity": {
          "system": "http://unitsofmeasure.org",
          "value": 28.2,
          "unit": "mmol/L",
          "code": "mmol/L"
        },
        "referenceRange": [
          {
            "low": {
              "value": 22,
              "code": "mmol/L",
              "system": "http://unitsofmeasure.org"
            }
          },
          {
            "high": {
              "value": 32,
              "code": "mmol/L",
              "system": "http://unitsofmeasure.org"
            }
          }
        ],
        "text": {
          "status": "generated",
          "div": "<div xmlns=\"http://www.w3.org/1999/xhtml\"><table class=\"hl7__eu__lab__report\"><tr><th>Test</th><th>19-Dec-2024</th><th>Reference&#xA0;Range</th><th>Unit</th></tr><tr><td>Carbon dioxide, total [Moles/volume] in Serum or Plasma</td><td>28.2</td><td>22 - 32</td><td></td><td>mmol/L</td></tr></table></div>"
        },
        "status": "final",
        "subject": {
          "reference": "urn:uuid:42e47c41-f4d4-443a-af74-ff33a0d21bc1",
          "display": "Marthe Gallet"
        },
        "effectiveDateTime": "2024-12-19T19:05:43Z",
        "specimen": {
          "reference": "urn:uuid:14e1da46-fde4-4d01-b660-d31d3f2b2097"
        }
      }
    },
    {
      "fullUrl": "urn:uuid:0723c621-109c-4069-87d4-dbda9d2d520f",
      "resource": {
        "resourceType": "Observation",
        "id": "0723c621-109c-4069-87d4-dbda9d2d520f",
        "meta": {
          "profile": [
            "http://hl7.eu/fhir/laboratory/StructureDefinition/Observation-resultslab-eu-lab"
          ]
        },
        "performer": [
          {
            "display": "The Central European Lab"
          }
        ],
        "category": [
          {
            "coding": [
              {
                "system": "http://terminology.hl7.org/CodeSystem/observation-category",
                "code": "laboratory"
              }
            ]
          }
        ],
        "code": {
          "coding": [
            {
              "code": "5767-9",
              "system": "http://loinc.org",
              "display": "Appearance of Urine"
            }
          ],
          "text": "Appearance of Urine"
        },
        "text": {
          "status": "generated",
          "div": "<div xmlns=\"http://www.w3.org/1999/xhtml\"><table class=\"hl7__eu__lab__report\"><tr><th>Test</th><th>19-Dec-2024</th><th>Reference&#xA0;Range</th><th>Unit</th></tr><tr><td>Appearance of Urine</td></tr></table></div>"
        },
        "status": "final",
        "subject": {
          "reference": "urn:uuid:42e47c41-f4d4-443a-af74-ff33a0d21bc1",
          "display": "Marthe Gallet"
        },
        "effectiveDateTime": "2024-12-19T19:05:43Z",
        "specimen": {
          "reference": "urn:uuid:38955bda-0219-4ed8-8535-559758f96a05"
        }
      }
    },
    {
      "fullUrl": "urn:uuid:cede9402-8561-4ba1-823a-4d60011d6f6d",
      "resource": {
        "resourceType": "Observation",
        "id": "cede9402-8561-4ba1-823a-4d60011d6f6d",
        "meta": {
          "profile": [
            "http://hl7.eu/fhir/laboratory/StructureDefinition/Observation-resultslab-eu-lab"
          ]
        },
        "performer": [
          {
            "display": "The Central European Lab"
          }
        ],
        "category": [
          {
            "coding": [
              {
                "system": "http://terminology.hl7.org/CodeSystem/observation-category",
                "code": "laboratory"
              }
            ]
          }
        ],
        "code": {
          "coding": [
            {
              "code": "34533-0",
              "system": "http://loinc.org",
              "display": "Odor of Urine"
            }
          ],
          "text": "Odor of Urine"
        },
        "text": {
          "status": "generated",
          "div": "<div xmlns=\"http://www.w3.org/1999/xhtml\"><table class=\"hl7__eu__lab__report\"><tr><th>Test</th><th>19-Dec-2024</th><th>Reference&#xA0;Range</th><th>Unit</th></tr><tr><td>Odor of Urine</td></tr></table></div>"
        },
        "status": "final",
        "subject": {
          "reference": "urn:uuid:42e47c41-f4d4-443a-af74-ff33a0d21bc1",
          "display": "Marthe Gallet"
        },
        "effectiveDateTime": "2024-12-19T19:05:43Z",
        "specimen": {
          "reference": "urn:uuid:38955bda-0219-4ed8-8535-559758f96a05"
        }
      }
    },
    {
      "fullUrl": "urn:uuid:a9e1ec5b-9416-45be-b3a7-1ad4be8dc24d",
      "resource": {
        "resourceType": "Observation",
        "id": "a9e1ec5b-9416-45be-b3a7-1ad4be8dc24d",
        "meta": {
          "profile": [
            "http://hl7.eu/fhir/laboratory/StructureDefinition/Observation-resultslab-eu-lab"
          ]
        },
        "performer": [
          {
            "display": "The Central European Lab"
          }
        ],
        "category": [
          {
            "coding": [
              {
                "system": "http://terminology.hl7.org/CodeSystem/observation-category",
                "code": "laboratory"
              }
            ]
          }
        ],
        "code": {
          "coding": [
            {
              "code": "32167-9",
              "system": "http://loinc.org",
              "display": "Clarity of Urine"
            }
          ],
          "text": "Clarity of Urine"
        },
        "text": {
          "status": "generated",
          "div": "<div xmlns=\"http://www.w3.org/1999/xhtml\"><table class=\"hl7__eu__lab__report\"><tr><th>Test</th><th>19-Dec-2024</th><th>Reference&#xA0;Range</th><th>Unit</th></tr><tr><td>Clarity of Urine</td></tr></table></div>"
        },
        "status": "final",
        "subject": {
          "reference": "urn:uuid:42e47c41-f4d4-443a-af74-ff33a0d21bc1",
          "display": "Marthe Gallet"
        },
        "effectiveDateTime": "2024-12-19T19:05:43Z",
        "specimen": {
          "reference": "urn:uuid:38955bda-0219-4ed8-8535-559758f96a05"
        }
      }
    },
    {
      "fullUrl": "urn:uuid:5938cb0a-f294-4ebe-90b0-4566db79bb07",
      "resource": {
        "resourceType": "Observation",
        "id": "5938cb0a-f294-4ebe-90b0-4566db79bb07",
        "meta": {
          "profile": [
            "http://hl7.eu/fhir/laboratory/StructureDefinition/Observation-resultslab-eu-lab"
          ]
        },
        "performer": [
          {
            "display": "The Central European Lab"
          }
        ],
        "category": [
          {
            "coding": [
              {
                "system": "http://terminology.hl7.org/CodeSystem/observation-category",
                "code": "laboratory"
              }
            ]
          }
        ],
        "code": {
          "coding": [
            {
              "code": "5778-6",
              "system": "http://loinc.org",
              "display": "Color of Urine"
            }
          ],
          "text": "Color of Urine"
        },
        "text": {
          "status": "generated",
          "div": "<div xmlns=\"http://www.w3.org/1999/xhtml\"><table class=\"hl7__eu__lab__report\"><tr><th>Test</th><th>19-Dec-2024</th><th>Reference&#xA0;Range</th><th>Unit</th></tr><tr><td>Color of Urine</td></tr></table></div>"
        },
        "status": "final",
        "subject": {
          "reference": "urn:uuid:42e47c41-f4d4-443a-af74-ff33a0d21bc1",
          "display": "Marthe Gallet"
        },
        "effectiveDateTime": "2024-12-19T19:05:43Z",
        "specimen": {
          "reference": "urn:uuid:38955bda-0219-4ed8-8535-559758f96a05"
        }
      }
    },
    {
      "fullUrl": "urn:uuid:d40c99ad-0061-41f6-bcee-cfb582640f64",
      "resource": {
        "resourceType": "Observation",
        "id": "d40c99ad-0061-41f6-bcee-cfb582640f64",
        "meta": {
          "profile": [
            "http://hl7.eu/fhir/laboratory/StructureDefinition/Observation-resultslab-eu-lab"
          ]
        },
        "performer": [
          {
            "display": "The Central European Lab"
          }
        ],
        "category": [
          {
            "coding": [
              {
                "system": "http://terminology.hl7.org/CodeSystem/observation-category",
                "code": "laboratory"
              }
            ]
          }
        ],
        "code": {
          "coding": [
            {
              "code": "5792-7",
              "system": "http://loinc.org",
              "display": "Glucose [Mass/volume] in Urine by Test strip"
            }
          ],
          "text": "Glucose [Mass/volume] in Urine by Test strip"
        },
        "valueQuantity": {
          "system": "http://unitsofmeasure.org",
          "value": 1.9,
          "unit": "mg/dL",
          "code": "mg/dL"
        },
        "referenceRange": [
          {
            "low": {
              "value": 0.8,
              "code": "mg/dL",
              "system": "http://unitsofmeasure.org"
            }
          },
          {
            "high": {
              "value": 0,
              "code": "mg/dL",
              "system": "http://unitsofmeasure.org"
            }
          }
        ],
        "interpretation": [
          {
            "coding": [
              {
                "code": "H",
                "system": "http://terminology.hl7.org/CodeSystem/v3-ObservationInterpretation",
                "display": "High"
              }
            ]
          }
        ],
        "text": {
          "status": "generated",
          "div": "<div xmlns=\"http://www.w3.org/1999/xhtml\"><table class=\"hl7__eu__lab__report\"><tr><th>Test</th><th>19-Dec-2024</th><th>Reference&#xA0;Range</th><th>Unit</th></tr><tr><td>Glucose [Mass/volume] in Urine by Test strip</td><td>1.9</td><td>0.8 - 0</td><td>H</td><td>mg/dL</td></tr></table></div>"
        },
        "status": "final",
        "subject": {
          "reference": "urn:uuid:42e47c41-f4d4-443a-af74-ff33a0d21bc1",
          "display": "Marthe Gallet"
        },
        "effectiveDateTime": "2024-12-19T19:05:43Z",
        "specimen": {
          "reference": "urn:uuid:38955bda-0219-4ed8-8535-559758f96a05"
        }
      }
    },
    {
      "fullUrl": "urn:uuid:f704bb51-472b-47ca-8719-ea1e1991c48a",
      "resource": {
        "resourceType": "Observation",
        "id": "f704bb51-472b-47ca-8719-ea1e1991c48a",
        "meta": {
          "profile": [
            "http://hl7.eu/fhir/laboratory/StructureDefinition/Observation-resultslab-eu-lab"
          ]
        },
        "performer": [
          {
            "display": "The Central European Lab"
          }
        ],
        "category": [
          {
            "coding": [
              {
                "system": "http://terminology.hl7.org/CodeSystem/observation-category",
                "code": "laboratory"
              }
            ]
          }
        ],
        "code": {
          "coding": [
            {
              "code": "25428-4",
              "system": "http://loinc.org",
              "display": "Glucose [Presence] in Urine by Test strip"
            }
          ],
          "text": "Glucose [Presence] in Urine by Test strip"
        },
        "text": {
          "status": "generated",
          "div": "<div xmlns=\"http://www.w3.org/1999/xhtml\"><table class=\"hl7__eu__lab__report\"><tr><th>Test</th><th>19-Dec-2024</th><th>Reference&#xA0;Range</th><th>Unit</th></tr><tr><td>Glucose [Presence] in Urine by Test strip</td></tr></table></div>"
        },
        "status": "final",
        "subject": {
          "reference": "urn:uuid:42e47c41-f4d4-443a-af74-ff33a0d21bc1",
          "display": "Marthe Gallet"
        },
        "effectiveDateTime": "2024-12-19T19:05:43Z",
        "specimen": {
          "reference": "urn:uuid:38955bda-0219-4ed8-8535-559758f96a05"
        }
      }
    },
    {
      "fullUrl": "urn:uuid:1d12249d-139c-494c-b92e-5638f75288ad",
      "resource": {
        "resourceType": "Observation",
        "id": "1d12249d-139c-494c-b92e-5638f75288ad",
        "meta": {
          "profile": [
            "http://hl7.eu/fhir/laboratory/StructureDefinition/Observation-resultslab-eu-lab"
          ]
        },
        "performer": [
          {
            "display": "The Central European Lab"
          }
        ],
        "category": [
          {
            "coding": [
              {
                "system": "http://terminology.hl7.org/CodeSystem/observation-category",
                "code": "laboratory"
              }
            ]
          }
        ],
        "code": {
          "coding": [
            {
              "code": "20505-4",
              "system": "http://loinc.org",
              "display": "Bilirubin.total [Mass/volume] in Urine by Test strip"
            }
          ],
          "text": "Bilirubin.total [Mass/volume] in Urine by Test strip"
        },
        "valueQuantity": {
          "system": "http://unitsofmeasure.org",
          "value": 0.9,
          "unit": "mg/dL",
          "code": "mg/dL"
        },
        "referenceRange": [
          {
            "low": {
              "value": 0,
              "code": "mg/dL",
              "system": "http://unitsofmeasure.org"
            }
          },
          {
            "high": {
              "value": 1,
              "code": "mg/dL",
              "system": "http://unitsofmeasure.org"
            }
          }
        ],
        "text": {
          "status": "generated",
          "div": "<div xmlns=\"http://www.w3.org/1999/xhtml\"><table class=\"hl7__eu__lab__report\"><tr><th>Test</th><th>19-Dec-2024</th><th>Reference&#xA0;Range</th><th>Unit</th></tr><tr><td>Bilirubin.total [Mass/volume] in Urine by Test strip</td><td>0.9</td><td>0 - 1</td><td></td><td>mg/dL</td></tr></table></div>"
        },
        "status": "final",
        "subject": {
          "reference": "urn:uuid:42e47c41-f4d4-443a-af74-ff33a0d21bc1",
          "display": "Marthe Gallet"
        },
        "effectiveDateTime": "2024-12-19T19:05:43Z",
        "specimen": {
          "reference": "urn:uuid:38955bda-0219-4ed8-8535-559758f96a05"
        }
      }
    },
    {
      "fullUrl": "urn:uuid:2ffe083c-e37c-44ba-85af-57a09b885651",
      "resource": {
        "resourceType": "Observation",
        "id": "2ffe083c-e37c-44ba-85af-57a09b885651",
        "meta": {
          "profile": [
            "http://hl7.eu/fhir/laboratory/StructureDefinition/Observation-resultslab-eu-lab"
          ]
        },
        "performer": [
          {
            "display": "The Central European Lab"
          }
        ],
        "category": [
          {
            "coding": [
              {
                "system": "http://terminology.hl7.org/CodeSystem/observation-category",
                "code": "laboratory"
              }
            ]
          }
        ],
        "code": {
          "coding": [
            {
              "code": "5770-3",
              "system": "http://loinc.org",
              "display": "Bilirubin.total [Presence] in Urine by Test strip"
            }
          ],
          "text": "Bilirubin.total [Presence] in Urine by Test strip"
        },
        "text": {
          "status": "generated",
          "div": "<div xmlns=\"http://www.w3.org/1999/xhtml\"><table class=\"hl7__eu__lab__report\"><tr><th>Test</th><th>19-Dec-2024</th><th>Reference&#xA0;Range</th><th>Unit</th></tr><tr><td>Bilirubin.total [Presence] in Urine by Test strip</td></tr></table></div>"
        },
        "status": "final",
        "subject": {
          "reference": "urn:uuid:42e47c41-f4d4-443a-af74-ff33a0d21bc1",
          "display": "Marthe Gallet"
        },
        "effectiveDateTime": "2024-12-19T19:05:43Z",
        "specimen": {
          "reference": "urn:uuid:38955bda-0219-4ed8-8535-559758f96a05"
        }
      }
    },
    {
      "fullUrl": "urn:uuid:4ed3b0ac-bc78-4ebf-98b5-4b28063a34d0",
      "resource": {
        "resourceType": "Observation",
        "id": "4ed3b0ac-bc78-4ebf-98b5-4b28063a34d0",
        "meta": {
          "profile": [
            "http://hl7.eu/fhir/laboratory/StructureDefinition/Observation-resultslab-eu-lab"
          ]
        },
        "performer": [
          {
            "display": "The Central European Lab"
          }
        ],
        "category": [
          {
            "coding": [
              {
                "system": "http://terminology.hl7.org/CodeSystem/observation-category",
                "code": "laboratory"
              }
            ]
          }
        ],
        "code": {
          "coding": [
            {
              "code": "5797-6",
              "system": "http://loinc.org",
              "display": "Ketones [Mass/volume] in Urine by Test strip"
            }
          ],
          "text": "Ketones [Mass/volume] in Urine by Test strip"
        },
        "valueQuantity": {
          "system": "http://unitsofmeasure.org",
          "value": 11.6,
          "unit": "mg/dL",
          "code": "mg/dL"
        },
        "referenceRange": [
          {
            "low": {
              "value": 0,
              "code": "mg/dL",
              "system": "http://unitsofmeasure.org"
            }
          },
          {
            "high": {
              "value": 20,
              "code": "mg/dL",
              "system": "http://unitsofmeasure.org"
            }
          }
        ],
        "text": {
          "status": "generated",
          "div": "<div xmlns=\"http://www.w3.org/1999/xhtml\"><table class=\"hl7__eu__lab__report\"><tr><th>Test</th><th>19-Dec-2024</th><th>Reference&#xA0;Range</th><th>Unit</th></tr><tr><td>Ketones [Mass/volume] in Urine by Test strip</td><td>11.6</td><td>0 - 20</td><td></td><td>mg/dL</td></tr></table></div>"
        },
        "status": "final",
        "subject": {
          "reference": "urn:uuid:42e47c41-f4d4-443a-af74-ff33a0d21bc1",
          "display": "Marthe Gallet"
        },
        "effectiveDateTime": "2024-12-19T19:05:43Z",
        "specimen": {
          "reference": "urn:uuid:38955bda-0219-4ed8-8535-559758f96a05"
        }
      }
    },
    {
      "fullUrl": "urn:uuid:75fb83e0-5837-4c24-a0c6-ac1d7ad776e1",
      "resource": {
        "resourceType": "Observation",
        "id": "75fb83e0-5837-4c24-a0c6-ac1d7ad776e1",
        "meta": {
          "profile": [
            "http://hl7.eu/fhir/laboratory/StructureDefinition/Observation-resultslab-eu-lab"
          ]
        },
        "performer": [
          {
            "display": "The Central European Lab"
          }
        ],
        "category": [
          {
            "coding": [
              {
                "system": "http://terminology.hl7.org/CodeSystem/observation-category",
                "code": "laboratory"
              }
            ]
          }
        ],
        "code": {
          "coding": [
            {
              "code": "2514-8",
              "system": "http://loinc.org",
              "display": "Ketones [Presence] in Urine by Test strip"
            }
          ],
          "text": "Ketones [Presence] in Urine by Test strip"
        },
        "text": {
          "status": "generated",
          "div": "<div xmlns=\"http://www.w3.org/1999/xhtml\"><table class=\"hl7__eu__lab__report\"><tr><th>Test</th><th>19-Dec-2024</th><th>Reference&#xA0;Range</th><th>Unit</th></tr><tr><td>Ketones [Presence] in Urine by Test strip</td></tr></table></div>"
        },
        "status": "final",
        "subject": {
          "reference": "urn:uuid:42e47c41-f4d4-443a-af74-ff33a0d21bc1",
          "display": "Marthe Gallet"
        },
        "effectiveDateTime": "2024-12-19T19:05:43Z",
        "specimen": {
          "reference": "urn:uuid:38955bda-0219-4ed8-8535-559758f96a05"
        }
      }
    },
    {
      "fullUrl": "urn:uuid:b7d16f55-0a76-435b-92dc-6058a2139576",
      "resource": {
        "resourceType": "Observation",
        "id": "b7d16f55-0a76-435b-92dc-6058a2139576",
        "meta": {
          "profile": [
            "http://hl7.eu/fhir/laboratory/StructureDefinition/Observation-resultslab-eu-lab"
          ]
        },
        "performer": [
          {
            "display": "The Central European Lab"
          }
        ],
        "category": [
          {
            "coding": [
              {
                "system": "http://terminology.hl7.org/CodeSystem/observation-category",
                "code": "laboratory"
              }
            ]
          }
        ],
        "code": {
          "coding": [
            {
              "code": "5811-5",
              "system": "http://loinc.org",
              "display": "Specific gravity of Urine by Test strip"
            }
          ],
          "text": "Specific gravity of Urine by Test strip"
        },
        "valueQuantity": {
          "system": "http://unitsofmeasure.org",
          "value": 1,
          "unit": "{nominal}",
          "code": "{nominal}"
        },
        "referenceRange": [
          {
            "low": {
              "value": 1.01,
              "code": "g/mL",
              "system": "http://unitsofmeasure.org"
            }
          },
          {
            "high": {
              "value": 1.03,
              "code": "g/mL",
              "system": "http://unitsofmeasure.org"
            }
          }
        ],
        "interpretation": [
          {
            "coding": [
              {
                "code": "L",
                "system": "http://terminology.hl7.org/CodeSystem/v3-ObservationInterpretation",
                "display": "Low"
              }
            ]
          }
        ],
        "text": {
          "status": "generated",
          "div": "<div xmlns=\"http://www.w3.org/1999/xhtml\"><table class=\"hl7__eu__lab__report\"><tr><th>Test</th><th>19-Dec-2024</th><th>Reference&#xA0;Range</th><th>Unit</th></tr><tr><td>Specific gravity of Urine by Test strip</td><td>1.0</td><td>1.01 - 1.03</td><td>L</td><td>{nominal}</td></tr></table></div>"
        },
        "status": "final",
        "subject": {
          "reference": "urn:uuid:42e47c41-f4d4-443a-af74-ff33a0d21bc1",
          "display": "Marthe Gallet"
        },
        "effectiveDateTime": "2024-12-19T19:05:43Z",
        "specimen": {
          "reference": "urn:uuid:38955bda-0219-4ed8-8535-559758f96a05"
        }
      }
    },
    {
      "fullUrl": "urn:uuid:7066a26e-c6ed-4ea3-b40f-f9ee43271822",
      "resource": {
        "resourceType": "Observation",
        "id": "7066a26e-c6ed-4ea3-b40f-f9ee43271822",
        "meta": {
          "profile": [
            "http://hl7.eu/fhir/laboratory/StructureDefinition/Observation-resultslab-eu-lab"
          ]
        },
        "performer": [
          {
            "display": "The Central European Lab"
          }
        ],
        "category": [
          {
            "coding": [
              {
                "system": "http://terminology.hl7.org/CodeSystem/observation-category",
                "code": "laboratory"
              }
            ]
          }
        ],
        "code": {
          "coding": [
            {
              "code": "5803-2",
              "system": "http://loinc.org",
              "display": "pH of Urine by Test strip"
            }
          ],
          "text": "pH of Urine by Test strip"
        },
        "valueQuantity": {
          "system": "http://unitsofmeasure.org",
          "value": 5,
          "unit": "pH",
          "code": "pH"
        },
        "referenceRange": [
          {
            "low": {
              "value": 4.6,
              "code": "pH",
              "system": "http://unitsofmeasure.org"
            }
          },
          {
            "high": {
              "value": 7,
              "code": "pH",
              "system": "http://unitsofmeasure.org"
            }
          }
        ],
        "text": {
          "status": "generated",
          "div": "<div xmlns=\"http://www.w3.org/1999/xhtml\"><table class=\"hl7__eu__lab__report\"><tr><th>Test</th><th>19-Dec-2024</th><th>Reference&#xA0;Range</th><th>Unit</th></tr><tr><td>pH of Urine by Test strip</td><td>5.0</td><td>4.6 - 7</td><td></td><td>pH</td></tr></table></div>"
        },
        "status": "final",
        "subject": {
          "reference": "urn:uuid:42e47c41-f4d4-443a-af74-ff33a0d21bc1",
          "display": "Marthe Gallet"
        },
        "effectiveDateTime": "2024-12-19T19:05:43Z",
        "specimen": {
          "reference": "urn:uuid:38955bda-0219-4ed8-8535-559758f96a05"
        }
      }
    },
    {
      "fullUrl": "urn:uuid:28b0cfd2-cecc-4e45-9d6c-0083efef39de",
      "resource": {
        "resourceType": "Observation",
        "id": "28b0cfd2-cecc-4e45-9d6c-0083efef39de",
        "meta": {
          "profile": [
            "http://hl7.eu/fhir/laboratory/StructureDefinition/Observation-resultslab-eu-lab"
          ]
        },
        "performer": [
          {
            "display": "The Central European Lab"
          }
        ],
        "category": [
          {
            "coding": [
              {
                "system": "http://terminology.hl7.org/CodeSystem/observation-category",
                "code": "laboratory"
              }
            ]
          }
        ],
        "code": {
          "coding": [
            {
              "code": "5804-0",
              "system": "http://loinc.org",
              "display": "Protein [Mass/volume] in Urine by Test strip"
            }
          ],
          "text": "Protein [Mass/volume] in Urine by Test strip"
        },
        "valueQuantity": {
          "system": "http://unitsofmeasure.org",
          "value": 223.1,
          "unit": "mg/dL",
          "code": "mg/dL"
        },
        "referenceRange": [
          {
            "low": {
              "value": 0,
              "code": "mg/dL",
              "system": "http://unitsofmeasure.org"
            }
          },
          {
            "high": {
              "value": 15,
              "code": "mg/dL",
              "system": "http://unitsofmeasure.org"
            }
          }
        ],
        "interpretation": [
          {
            "coding": [
              {
                "code": "H",
                "system": "http://terminology.hl7.org/CodeSystem/v3-ObservationInterpretation",
                "display": "High"
              }
            ]
          }
        ],
        "text": {
          "status": "generated",
          "div": "<div xmlns=\"http://www.w3.org/1999/xhtml\"><table class=\"hl7__eu__lab__report\"><tr><th>Test</th><th>19-Dec-2024</th><th>Reference&#xA0;Range</th><th>Unit</th></tr><tr><td>Protein [Mass/volume] in Urine by Test strip</td><td>223.1</td><td>0 - 15</td><td>H</td><td>mg/dL</td></tr></table></div>"
        },
        "status": "final",
        "subject": {
          "reference": "urn:uuid:42e47c41-f4d4-443a-af74-ff33a0d21bc1",
          "display": "Marthe Gallet"
        },
        "effectiveDateTime": "2024-12-19T19:05:43Z",
        "specimen": {
          "reference": "urn:uuid:38955bda-0219-4ed8-8535-559758f96a05"
        }
      }
    },
    {
      "fullUrl": "urn:uuid:786289ff-943b-4512-ac01-80181e875f42",
      "resource": {
        "resourceType": "Observation",
        "id": "786289ff-943b-4512-ac01-80181e875f42",
        "meta": {
          "profile": [
            "http://hl7.eu/fhir/laboratory/StructureDefinition/Observation-resultslab-eu-lab"
          ]
        },
        "performer": [
          {
            "display": "The Central European Lab"
          }
        ],
        "category": [
          {
            "coding": [
              {
                "system": "http://terminology.hl7.org/CodeSystem/observation-category",
                "code": "laboratory"
              }
            ]
          }
        ],
        "code": {
          "coding": [
            {
              "code": "20454-5",
              "system": "http://loinc.org",
              "display": "Protein [Presence] in Urine by Test strip"
            }
          ],
          "text": "Protein [Presence] in Urine by Test strip"
        },
        "text": {
          "status": "generated",
          "div": "<div xmlns=\"http://www.w3.org/1999/xhtml\"><table class=\"hl7__eu__lab__report\"><tr><th>Test</th><th>19-Dec-2024</th><th>Reference&#xA0;Range</th><th>Unit</th></tr><tr><td>Protein [Presence] in Urine by Test strip</td></tr></table></div>"
        },
        "status": "final",
        "subject": {
          "reference": "urn:uuid:42e47c41-f4d4-443a-af74-ff33a0d21bc1",
          "display": "Marthe Gallet"
        },
        "effectiveDateTime": "2024-12-19T19:05:43Z",
        "specimen": {
          "reference": "urn:uuid:38955bda-0219-4ed8-8535-559758f96a05"
        }
      }
    },
    {
      "fullUrl": "urn:uuid:0cd8e9e8-4aa9-4ee8-9bee-1a3708fadf83",
      "resource": {
        "resourceType": "Observation",
        "id": "0cd8e9e8-4aa9-4ee8-9bee-1a3708fadf83",
        "meta": {
          "profile": [
            "http://hl7.eu/fhir/laboratory/StructureDefinition/Observation-resultslab-eu-lab"
          ]
        },
        "performer": [
          {
            "display": "The Central European Lab"
          }
        ],
        "category": [
          {
            "coding": [
              {
                "system": "http://terminology.hl7.org/CodeSystem/observation-category",
                "code": "laboratory"
              }
            ]
          }
        ],
        "code": {
          "coding": [
            {
              "code": "5802-4",
              "system": "http://loinc.org",
              "display": "Nitrite [Presence] in Urine by Test strip"
            }
          ],
          "text": "Nitrite [Presence] in Urine by Test strip"
        },
        "text": {
          "status": "generated",
          "div": "<div xmlns=\"http://www.w3.org/1999/xhtml\"><table class=\"hl7__eu__lab__report\"><tr><th>Test</th><th>19-Dec-2024</th><th>Reference&#xA0;Range</th><th>Unit</th></tr><tr><td>Nitrite [Presence] in Urine by Test strip</td></tr></table></div>"
        },
        "status": "final",
        "subject": {
          "reference": "urn:uuid:42e47c41-f4d4-443a-af74-ff33a0d21bc1",
          "display": "Marthe Gallet"
        },
        "effectiveDateTime": "2024-12-19T19:05:43Z",
        "specimen": {
          "reference": "urn:uuid:38955bda-0219-4ed8-8535-559758f96a05"
        }
      }
    },
    {
      "fullUrl": "urn:uuid:0904fcce-3752-4899-86da-f717f96ef130",
      "resource": {
        "resourceType": "Observation",
        "id": "0904fcce-3752-4899-86da-f717f96ef130",
        "meta": {
          "profile": [
            "http://hl7.eu/fhir/laboratory/StructureDefinition/Observation-resultslab-eu-lab"
          ]
        },
        "performer": [
          {
            "display": "The Central European Lab"
          }
        ],
        "category": [
          {
            "coding": [
              {
                "system": "http://terminology.hl7.org/CodeSystem/observation-category",
                "code": "laboratory"
              }
            ]
          }
        ],
        "code": {
          "coding": [
            {
              "code": "5794-3",
              "system": "http://loinc.org",
              "display": "Hemoglobin [Presence] in Urine by Test strip"
            }
          ],
          "text": "Hemoglobin [Presence] in Urine by Test strip"
        },
        "text": {
          "status": "generated",
          "div": "<div xmlns=\"http://www.w3.org/1999/xhtml\"><table class=\"hl7__eu__lab__report\"><tr><th>Test</th><th>19-Dec-2024</th><th>Reference&#xA0;Range</th><th>Unit</th></tr><tr><td>Hemoglobin [Presence] in Urine by Test strip</td></tr></table></div>"
        },
        "status": "final",
        "subject": {
          "reference": "urn:uuid:42e47c41-f4d4-443a-af74-ff33a0d21bc1",
          "display": "Marthe Gallet"
        },
        "effectiveDateTime": "2024-12-19T19:05:43Z",
        "specimen": {
          "reference": "urn:uuid:38955bda-0219-4ed8-8535-559758f96a05"
        }
      }
    },
    {
      "fullUrl": "urn:uuid:bb916ab3-50c7-4432-9e2c-72695170569e",
      "resource": {
        "resourceType": "Observation",
        "id": "bb916ab3-50c7-4432-9e2c-72695170569e",
        "meta": {
          "profile": [
            "http://hl7.eu/fhir/laboratory/StructureDefinition/Observation-resultslab-eu-lab"
          ]
        },
        "performer": [
          {
            "display": "The Central European Lab"
          }
        ],
        "category": [
          {
            "coding": [
              {
                "system": "http://terminology.hl7.org/CodeSystem/observation-category",
                "code": "laboratory"
              }
            ]
          }
        ],
        "code": {
          "coding": [
            {
              "code": "5799-2",
              "system": "http://loinc.org",
              "display": "Leukocyte esterase [Presence] in Urine by Test strip"
            }
          ],
          "text": "Leukocyte esterase [Presence] in Urine by Test strip"
        },
        "text": {
          "status": "generated",
          "div": "<div xmlns=\"http://www.w3.org/1999/xhtml\"><table class=\"hl7__eu__lab__report\"><tr><th>Test</th><th>19-Dec-2024</th><th>Reference&#xA0;Range</th><th>Unit</th></tr><tr><td>Leukocyte esterase [Presence] in Urine by Test strip</td></tr></table></div>"
        },
        "status": "final",
        "subject": {
          "reference": "urn:uuid:42e47c41-f4d4-443a-af74-ff33a0d21bc1",
          "display": "Marthe Gallet"
        },
        "effectiveDateTime": "2024-12-19T19:05:43Z",
        "specimen": {
          "reference": "urn:uuid:38955bda-0219-4ed8-8535-559758f96a05"
        }
      }
    },
    {
      "fullUrl": "urn:uuid:2992fd69-169b-45dc-8583-da28b4c53d6d",
      "resource": {
        "resourceType": "Device",
        "id": "2992fd69-169b-45dc-8583-da28b4c53d6d",
        "deviceName": [
          {
            "name": "SYNDERAI Synthetic Generator",
            "type": "manufacturer-name"
          }
        ],
        "version": [
          {
            "value": "5.0"
          }
        ],
        "text": {
          "status": "generated",
          "div": "<div xmlns=\"http://www.w3.org/1999/xhtml\">SYNDERAI Synthetic Generator v5.0</div>"
        },
        "status": "active\"",
        "distinctIdentifier": "synderai-generator-50",
        "manufacturer": "SYNDERAI Project"
      }
    },
    {
      "fullUrl": "urn:uuid:8548cb48-e4b7-4c93-ab4f-f89c0854d46a",
      "resource": {
        "resourceType": "Provenance",
        "id": "8548cb48-e4b7-4c93-ab4f-f89c0854d46a",
        "target": [
          {
            "reference": "Patient/42e47c41-f4d4-443a-af74-ff33a0d21bc1"
          },
          {
            "reference": "Bundle/7a19cc75-0f26-4fcf-b398-818f4950c686"
          },
          {
            "reference": "Composition/eedbb90d-fc0e-4336-be9b-4e9f512811bc"
          },
          {
            "reference": "PractitionerRole/b71f91b0-5873-4d14-b94c-2142938c8523"
          },
          {
            "reference": "Practitioner/ed23fac0-16c6-4a58-adab-069bd99afc1c"
          },
          {
            "reference": "PractitionerRole/663b3b94-8ecf-4bc3-81a6-04a3b015f7e9"
          },
          {
            "reference": "Organization/101e33d3-6399-4ae0-bf16-7473a40722fb"
          }
        ],
        "activity": {
          "text": "Synthetic Example Data Generation"
        },
        "policy": [
          "https://synderai.net/synderai-synthetic-data-policy"
        ],
        "agent": [
          {
            "type": {
              "text": "author"
            },
            "who": {
              "reference": "Device/2992fd69-169b-45dc-8583-da28b4c53d6d"
            }
          }
        ],
        "reason": [
          {
            "text": "Interoperability Testing and Training (non-clinical use)"
          }
        ],
        "text": {
          "status": "generated",
          "div": "<div xmlns=\"http://www.w3.org/1999/xhtml\">Provenance for SYNDERAI Synthetic Example Data Resource</div>"
        },
        "recorded": "2024-12-19T20:05:43Z"
      }
    },
    {
      "fullUrl": "urn:uuid:b71f91b0-5873-4d14-b94c-2142938c8523",
      "resource": {
        "resourceType": "PractitionerRole",
        "id": "b71f91b0-5873-4d14-b94c-2142938c8523",
        "meta": {
          "profile": [
            "http://hl7.eu/fhir/base/StructureDefinition/practitionerRole-eu"
          ]
        },
        "text": {
          "status": "generated",
          "div": "<div xmlns=\"http://www.w3.org/1999/xhtml\">Laboratory Role Id: b71f91b0-5873-4d14-b94c-2142938c8523</div>"
        },
        "practitioner": {
          "reference": "urn:uuid:ed23fac0-16c6-4a58-adab-069bd99afc1c"
        }
      }
    },
    {
      "fullUrl": "urn:uuid:ed23fac0-16c6-4a58-adab-069bd99afc1c",
      "resource": {
        "resourceType": "Practitioner",
        "id": "ed23fac0-16c6-4a58-adab-069bd99afc1c",
        "meta": {
          "profile": [
            "http://hl7.eu/fhir/base/StructureDefinition/practitioner-eu"
          ]
        },
        "identifier": [
          {
            "assigner": {
              "display": "HL7 Europe"
            },
            "system": "urn:oid:2.16.840.1.113883.2.51.999",
            "value": "6d87795d-a3b5-4050-89d3-80164be06187"
          }
        ],
        "name": [
          {
            "prefix": [
              "dr"
            ],
            "given": [
              "Ex"
            ],
            "family": "Ample"
          }
        ],
        "address": [
          {
            "line": [
              "Laboratoire Central Européenne",
              "Boulevard du Jardin Botanique 32"
            ],
            "postalCode": "1000",
            "city": "Brussels",
            "country": "Belgium"
          }
        ],
        "text": {
          "status": "generated",
          "div": "<div xmlns=\"http://www.w3.org/1999/xhtml\">Laboratory: Laboratoire Central Européenne, 1000 Brussels, Belgium</div>"
        }
      }
    }
  ],
  "type": "document",
  "timestamp": "2024-12-19T20:05:43Z"
}
