{
  "resourceType": "Bundle",
  "id": "36748aea-c76f-4c16-b1d2-e28fcbbc39fa",
  "meta": {
    "profile": [
      "http://hl7.eu/fhir/laboratory/StructureDefinition/Bundle-eu-lab"
    ]
  },
  "identifier": {
    "assigner": {
      "display": "HL7 Europe"
    },
    "system": "urn:oid:2.16.840.1.113883.2.51.999",
    "value": "8d50ad14-e9e7-43f9-91fe-1ff6835623c2"
  },
  "entry": [
    {
      "fullUrl": "urn:uuid:c154ad2f-ad1c-46b3-bf83-e052e8c83c52",
      "resource": {
        "resourceType": "Composition",
        "id": "c154ad2f-ad1c-46b3-bf83-e052e8c83c52",
        "meta": {
          "profile": [
            "http://hl7.eu/fhir/laboratory/StructureDefinition/Composition-eu-lab"
          ]
        },
        "identifier": {
          "assigner": {
            "display": "HL7 Europe"
          },
          "system": "urn:oid:2.16.840.1.113883.2.51.999",
          "value": "71c87ff8-be37-4e0b-9391-355a0b46ee9f"
        },
        "author": [
          {
            "reference": "urn:uuid:2256873f-1d5d-49cb-a7e3-506fb5ee8157"
          }
        ],
        "category": [
          {
            "coding": [
              {
                "code": "26436-6",
                "system": "http://loinc.org",
                "display": "Laboratory studies (set)"
              }
            ]
          }
        ],
        "type": {
          "coding": [
            {
              "code": "11502-2",
              "system": "http://loinc.org",
              "display": "Laboratory report"
            }
          ],
          "text": "Laboratory Report"
        },
        "section": [
          {
            "code": {
              "coding": [
                {
                  "code": "26436-6",
                  "system": "http://loinc.org",
                  "display": "Laboratory studies (set)"
                }
              ],
              "text": "Laboratory studies"
            },
            "section": [
              {
                "code": {
                  "coding": [
                    {
                      "code": "$18719-5",
                      "system": "http://loinc.org",
                      "display": "Chemistry studies (set)"
                    }
                  ],
                  "text": "Chemistry"
                },
                "entry": [
                  {
                    "reference": "urn:uuid:09dd54f7-41ef-4c03-8352-5c2c2ecf55e1"
                  },
                  {
                    "reference": "urn:uuid:1865c0d7-b159-45d4-9d2f-4683c8b0dbf5"
                  },
                  {
                    "reference": "urn:uuid:bfaae96b-bc93-46dd-86d3-98a4adb28eb7"
                  },
                  {
                    "reference": "urn:uuid:7c91307d-23c3-4d60-9598-44f57b1d6d04"
                  },
                  {
                    "reference": "urn:uuid:506ce039-e136-4384-ade2-b6a83456e40c"
                  },
                  {
                    "reference": "urn:uuid:1b459019-f7e2-41e8-9475-0f670f91e54a"
                  },
                  {
                    "reference": "urn:uuid:0ac6618e-2f43-444b-a5e6-d51017fff2e3"
                  },
                  {
                    "reference": "urn:uuid:bfd12e3c-87dd-4979-9d08-a9da2f28d392"
                  },
                  {
                    "reference": "urn:uuid:9fb08284-1f69-4c73-9f5c-e66dd023f589"
                  },
                  {
                    "reference": "urn:uuid:d119045d-16fe-47d8-addd-0a6e65ee058b"
                  },
                  {
                    "reference": "urn:uuid:49199689-ac6f-40de-8c1f-0d038edcbde4"
                  },
                  {
                    "reference": "urn:uuid:8a3c33a5-b988-4650-a533-c93f74abcb86"
                  },
                  {
                    "reference": "urn:uuid:62bf9753-859e-42ac-a203-8879542c05da"
                  },
                  {
                    "reference": "urn:uuid:d78ec618-3fd8-4e28-9286-ab378a944ba6"
                  },
                  {
                    "reference": "urn:uuid:9e7a2248-4cf8-4f90-bf66-fb697fbc67e9"
                  },
                  {
                    "reference": "urn:uuid:6ce51b26-9766-469f-9626-d12b2325210d"
                  },
                  {
                    "reference": "urn:uuid:313c5d25-cd42-4f1f-a361-20030eca2e74"
                  },
                  {
                    "reference": "urn:uuid:fe5a5c07-1d48-49df-8fc3-bc1d1ec17151"
                  }
                ],
                "text": {
                  "status": "generated",
                  "div": "<div xmlns=\"http://www.w3.org/1999/xhtml\"><h3>Chemistry</h3><table class=\"hl7__eu__lab__report\"><thead><tr><th>Test</th><th>12-JAN-2024</th><th>Reference&#xA0;Range</th><th>Unit</th></tr></thead><tbody><tr><td>Glucose [Mass/volume] in Serum or Plasma</td><td>72.8</td><td>70 - 140</td><td>mg/dL</td></tr><tr><td>Urea nitrogen [Mass/volume] in Serum or Plasma</td><td>15.5</td><td>7 - 20</td><td>mg/dL</td></tr><tr><td>Creatinine [Mass/volume] in Serum or Plasma</td><td><strong>2.1 H</strong></td><td>0.9 - 1.3</td><td>mg/dL</td></tr><tr><td>Calcium [Mass/volume] in Serum or Plasma</td><td>10.2</td><td>8.5 - 10.5</td><td>mg/dL</td></tr><tr><td>Sodium [Moles/volume] in Serum or Plasma</td><td>141.8</td><td>135 - 145</td><td>mmol/L</td></tr><tr><td>Potassium [Moles/volume] in Serum or Plasma</td><td>4.1</td><td>3.5 - 5.3</td><td>mmol/L</td></tr><tr><td>Chloride [Moles/volume] in Serum or Plasma</td><td>101.1</td><td>98 - 107</td><td>mmol/L</td></tr><tr><td>Carbon dioxide, total [Moles/volume] in Serum or Plasma</td><td><strong>21.9 L</strong></td><td>22 - 33</td><td>mmol/L</td></tr><tr><td>Ketones [Presence] in Urine by Test strip</td><td>Urine ketone test = ++</td><td></td><td></td></tr><tr><td>Hemoglobin A1c/Hemoglobin.total in Blood</td><td><strong>3.0 L</strong></td><td>4.3 - 6</td><td>%</td></tr><tr><td>Glucose [Mass/volume] in Blood</td><td>72.8</td><td>70 - 140</td><td>mg/dL</td></tr><tr><td>Urea nitrogen [Mass/volume] in Blood</td><td>15.5</td><td>7 - 20</td><td>mg/dL</td></tr><tr><td>Creatinine [Mass/volume] in Blood</td><td><strong>4.5 H</strong></td><td>0.9 - 1.3</td><td>mg/dL</td></tr><tr><td>Calcium [Mass/volume] in Blood</td><td>10.2</td><td>8.5 - 10.5</td><td>mg/dL</td></tr><tr><td>Sodium [Moles/volume] in Blood</td><td>141.8</td><td>135 - 145</td><td>mmol/L</td></tr><tr><td>Potassium [Moles/volume] in Blood</td><td>4.1</td><td>3.5 - 5.1</td><td>mmol/L</td></tr><tr><td>Chloride [Moles/volume] in Blood</td><td>101.1</td><td>98 - 108</td><td>mmol/L</td></tr><tr><td>Carbon dioxide, total [Moles/volume] in Blood</td><td><strong>21.9 L</strong></td><td>22 - 29</td><td>mmol/L</td></tr></tbody></table></div>"
                },
                "title": "Chemistry"
              },
              {
                "code": {
                  "coding": [
                    {
                      "code": "$18729-4",
                      "system": "http://loinc.org",
                      "display": "Urinalysis studies (set)"
                    }
                  ],
                  "text": "Urinalysis"
                },
                "entry": [
                  {
                    "reference": "urn:uuid:8b8bef7d-6be8-401b-b937-43ef12c76cf0"
                  },
                  {
                    "reference": "urn:uuid:d98aecec-11e6-455e-8a93-797dcce42894"
                  },
                  {
                    "reference": "urn:uuid:f6549665-09aa-448b-8b50-a6cfe24411c9"
                  },
                  {
                    "reference": "urn:uuid:e0a64f96-b08e-4b05-9ce2-20d62adcbbbf"
                  },
                  {
                    "reference": "urn:uuid:3bea6c33-84c3-47be-8212-9d0a943507c8"
                  },
                  {
                    "reference": "urn:uuid:146e8c77-573f-4f69-ad8a-5b6fe8edc5a7"
                  },
                  {
                    "reference": "urn:uuid:43ab336a-633a-4149-a79a-b25eb9440c89"
                  },
                  {
                    "reference": "urn:uuid:11bc85a1-0e6d-4701-b349-083e06971e58"
                  },
                  {
                    "reference": "urn:uuid:ff8c18fb-60b3-4d1e-bdb9-c85f145f2ab7"
                  },
                  {
                    "reference": "urn:uuid:202122bf-42f6-4395-9df5-dd93e746f9d2"
                  },
                  {
                    "reference": "urn:uuid:a4d7d08a-2a89-4e43-bd68-d8af4c234e54"
                  },
                  {
                    "reference": "urn:uuid:c4edd9e4-4f73-4b08-9923-30dfa9d6706b"
                  }
                ],
                "text": {
                  "status": "generated",
                  "div": "<div xmlns=\"http://www.w3.org/1999/xhtml\"><h3>Urinalysis</h3><table class=\"hl7__eu__lab__report\"><thead><tr><th>Test</th><th>12-JAN-2024</th><th>Reference&#xA0;Range</th><th>Unit</th></tr></thead><tbody><tr><td>Glucose [Mass/volume] in Urine by Test strip</td><td><strong>1.3 H</strong></td><td>0 - 0.8</td><td>mg/dL</td></tr><tr><td>Glucose [Presence] in Urine by Test strip</td><td>++</td><td></td><td></td></tr><tr><td>Bilirubin.total [Mass/volume] in Urine by Test strip</td><td>0.3</td><td>0 - 1.9</td><td>mg/dL</td></tr><tr><td>Bilirubin.total [Presence] in Urine by Test strip</td><td>Finding of bilirubin in urine</td><td></td><td></td></tr><tr><td>Ketones [Mass/volume] in Urine by Test strip</td><td>1.9</td><td>0 - 3</td><td>mg/dL</td></tr><tr><td>Specific gravity of Urine by Test strip</td><td><strong>1.0 L</strong></td><td>1.01 - 1.03</td><td>{nominal}</td></tr><tr><td>pH of Urine by Test strip</td><td>5.4</td><td>4.5 - 7.5</td><td>pH</td></tr><tr><td>Protein [Mass/volume] in Urine by Test strip</td><td><strong>201.3 H</strong></td><td>0 - 149</td><td>mg/dL</td></tr><tr><td>Protein [Presence] in Urine by Test strip</td><td>Urine protein test = ++</td><td></td><td></td></tr><tr><td>Nitrite [Presence] in Urine by Test strip</td><td>Urine nitrite negative</td><td></td><td></td></tr><tr><td>Hemoglobin [Presence] in Urine by Test strip</td><td>Urine blood test = negative</td><td></td><td></td></tr><tr><td>Leukocyte esterase [Presence] in Urine by Test strip</td><td>Urine leukocyte test negative</td><td></td><td></td></tr></tbody></table></div>"
                },
                "title": "Urinalysis"
              },
              {
                "code": {
                  "coding": [
                    {
                      "code": "$LP7846-1",
                      "system": "http://loinc.org",
                      "display": "Specimen information"
                    }
                  ],
                  "text": "Specimen information"
                },
                "entry": [
                  {
                    "reference": "urn:uuid:a0176196-6b81-4eee-8a26-c7bbb0e5444f"
                  },
                  {
                    "reference": "urn:uuid:b5bb9e36-a040-4678-80a6-ec183e558478"
                  },
                  {
                    "reference": "urn:uuid:d9568daa-9389-426c-bbff-917850fcb14a"
                  },
                  {
                    "reference": "urn:uuid:87747dd1-5cef-46f2-a04a-9610d9256fe9"
                  }
                ],
                "text": {
                  "status": "generated",
                  "div": "<div xmlns=\"http://www.w3.org/1999/xhtml\"><h3>Specimen information</h3><table class=\"hl7__eu__lab__report\"><thead><tr><th>Test</th><th>12-JAN-2024</th><th>Specimen</th><th></th></tr></thead><tbody><tr><td>Appearance of Urine</td><td>Cloudy urine</td><td>Urine</td><td></td></tr><tr><td>Odor of Urine</td><td>Urine smell ammoniacal</td><td>Urine</td><td></td></tr><tr><td>Clarity of Urine</td><td>Translucent</td><td>Urine</td><td></td></tr><tr><td>Color of Urine</td><td>Brown color</td><td>Urine</td><td></td></tr></tbody></table></div>"
                },
                "title": "Specimen information"
              }
            ],
            "title": "Laboratory Report"
          },
          {
            "text": {
              "status": "generated",
              "div": "<div xmlns=\"http://www.w3.org/1999/xhtml\"><h3>Annotation</h3><table class=\"hl7__eu__lab__report\"><tr><th>Conclusion and Recommendations based on this report and previous findings known to us</th></tr><tr><td>The patient shows significantly elevated creatinine, indicating impaired renal function, and low total CO₂, suggesting possible metabolic acidosis. Urinalysis reveals proteinuria, glycosuria, ketonuria, low specific gravity, and abnormal urine appearance, supporting renal dysfunction and possible tubular damage. HbA1c is low, excluding chronic hyperglycemia. No evidence of urinary infection. Recommend urgent clinical evaluation for acute or chronic kidney disease and further assessment of metabolic status.</td></tr></table></div>"
            },
            "code": {
              "coding": [
                {
                  "system": "http://loinc.org",
                  "code": "48767-8",
                  "display": "Annotation comment"
                }
              ]
            },
            "title": "Annotation comment"
          }
        ],
        "status": "final",
        "subject": {
          "reference": "urn:uuid:0b7be5c6-8efb-4850-bbe9-bac1e1833cd9",
          "display": "Victor Lagarde"
        },
        "date": "2024-01-12T05:48:18Z",
        "title": "Laboratory Report",
        "confidentiality": "N"
      }
    },
    {
      "fullUrl": "urn:uuid:6c1b4097-5c28-4ea2-8dbb-959322e35ddf",
      "resource": {
        "resourceType": "DiagnosticReport",
        "id": "6c1b4097-5c28-4ea2-8dbb-959322e35ddf",
        "meta": {
          "profile": [
            "http://hl7.eu/fhir/laboratory/StructureDefinition/DiagnosticReport-eu-lab"
          ]
        },
        "identifier": [
          {
            "assigner": {
              "display": "HL7 Europe"
            },
            "system": "urn:oid:2.16.840.1.113883.2.51.999",
            "value": "b107a1ef-437a-4d37-b7ac-8d96ee841048"
          }
        ],
        "extension": [
          {
            "url": "http://hl7.org/fhir/5.0/StructureDefinition/extension-DiagnosticReport.composition",
            "valueReference": {
              "reference": "urn:uuid:71c87ff8-be37-4e0b-9391-355a0b46ee9f"
            }
          }
        ],
        "category": [
          {
            "coding": [
              {
                "code": "26436-6",
                "system": "http://loinc.org",
                "display": "Laboratory studies (set)"
              }
            ]
          }
        ],
        "specimen": [
          {
            "reference": "urn:uuid:c2542c13-8847-4e89-87c3-eb6b3329fdaa"
          },
          {
            "reference": "urn:uuid:d6e281b4-f603-4e3a-8ce1-9953162031fe"
          },
          {
            "reference": "urn:uuid:611fa5fa-269a-49c9-abf1-7813d5d05700"
          }
        ],
        "result": [
          {
            "reference": "urn:uuid:09dd54f7-41ef-4c03-8352-5c2c2ecf55e1"
          },
          {
            "reference": "urn:uuid:1865c0d7-b159-45d4-9d2f-4683c8b0dbf5"
          },
          {
            "reference": "urn:uuid:bfaae96b-bc93-46dd-86d3-98a4adb28eb7"
          },
          {
            "reference": "urn:uuid:7c91307d-23c3-4d60-9598-44f57b1d6d04"
          },
          {
            "reference": "urn:uuid:506ce039-e136-4384-ade2-b6a83456e40c"
          },
          {
            "reference": "urn:uuid:1b459019-f7e2-41e8-9475-0f670f91e54a"
          },
          {
            "reference": "urn:uuid:0ac6618e-2f43-444b-a5e6-d51017fff2e3"
          },
          {
            "reference": "urn:uuid:bfd12e3c-87dd-4979-9d08-a9da2f28d392"
          },
          {
            "reference": "urn:uuid:a0176196-6b81-4eee-8a26-c7bbb0e5444f"
          },
          {
            "reference": "urn:uuid:b5bb9e36-a040-4678-80a6-ec183e558478"
          },
          {
            "reference": "urn:uuid:d9568daa-9389-426c-bbff-917850fcb14a"
          },
          {
            "reference": "urn:uuid:87747dd1-5cef-46f2-a04a-9610d9256fe9"
          },
          {
            "reference": "urn:uuid:8b8bef7d-6be8-401b-b937-43ef12c76cf0"
          },
          {
            "reference": "urn:uuid:d98aecec-11e6-455e-8a93-797dcce42894"
          },
          {
            "reference": "urn:uuid:f6549665-09aa-448b-8b50-a6cfe24411c9"
          },
          {
            "reference": "urn:uuid:e0a64f96-b08e-4b05-9ce2-20d62adcbbbf"
          },
          {
            "reference": "urn:uuid:3bea6c33-84c3-47be-8212-9d0a943507c8"
          },
          {
            "reference": "urn:uuid:9fb08284-1f69-4c73-9f5c-e66dd023f589"
          },
          {
            "reference": "urn:uuid:146e8c77-573f-4f69-ad8a-5b6fe8edc5a7"
          },
          {
            "reference": "urn:uuid:43ab336a-633a-4149-a79a-b25eb9440c89"
          },
          {
            "reference": "urn:uuid:11bc85a1-0e6d-4701-b349-083e06971e58"
          },
          {
            "reference": "urn:uuid:ff8c18fb-60b3-4d1e-bdb9-c85f145f2ab7"
          },
          {
            "reference": "urn:uuid:202122bf-42f6-4395-9df5-dd93e746f9d2"
          },
          {
            "reference": "urn:uuid:a4d7d08a-2a89-4e43-bd68-d8af4c234e54"
          },
          {
            "reference": "urn:uuid:c4edd9e4-4f73-4b08-9923-30dfa9d6706b"
          },
          {
            "reference": "urn:uuid:d119045d-16fe-47d8-addd-0a6e65ee058b"
          },
          {
            "reference": "urn:uuid:49199689-ac6f-40de-8c1f-0d038edcbde4"
          },
          {
            "reference": "urn:uuid:8a3c33a5-b988-4650-a533-c93f74abcb86"
          },
          {
            "reference": "urn:uuid:62bf9753-859e-42ac-a203-8879542c05da"
          },
          {
            "reference": "urn:uuid:d78ec618-3fd8-4e28-9286-ab378a944ba6"
          },
          {
            "reference": "urn:uuid:9e7a2248-4cf8-4f90-bf66-fb697fbc67e9"
          },
          {
            "reference": "urn:uuid:6ce51b26-9766-469f-9626-d12b2325210d"
          },
          {
            "reference": "urn:uuid:313c5d25-cd42-4f1f-a361-20030eca2e74"
          },
          {
            "reference": "urn:uuid:fe5a5c07-1d48-49df-8fc3-bc1d1ec17151"
          }
        ],
        "status": "registered",
        "code": {
          "coding": [
            {
              "code": "11502-2",
              "system": "http://loinc.org",
              "display": "Laboratory report"
            }
          ]
        },
        "subject": {
          "reference": "urn:uuid:0b7be5c6-8efb-4850-bbe9-bac1e1833cd9",
          "display": "Victor Lagarde"
        }
      }
    },
    {
      "fullUrl": "urn:uuid:0b7be5c6-8efb-4850-bbe9-bac1e1833cd9",
      "resource": {
        "resourceType": "Patient",
        "id": "0b7be5c6-8efb-4850-bbe9-bac1e1833cd9",
        "meta": {
          "security": [
            {
              "system": "http://terminology.hl7.org/CodeSystem/v3-ActReason",
              "code": "HTEST"
            },
            {
              "system": "http://terminology.hl7.org/CodeSystem/v3-ActReason",
              "code": "TRAIN"
            }
          ],
          "tag": [
            {
              "system": "https://synderai.net/fhir/CodeSystem/tags",
              "code": "synthetic",
              "display": "SYNDERAI Synthetic data"
            }
          ],
          "profile": [
            "http://hl7.eu/fhir/base/StructureDefinition/patient-eu-core"
          ]
        },
        "identifier": [
          {
            "type": {
              "coding": [
                {
                  "code": "PT",
                  "system": "http://terminology.hl7.org/CodeSystem/v2-0203"
                }
              ]
            },
            "system": "http://ec.europa.eu/identifier/eci",
            "value": "9925-001801-9"
          },
          {
            "type": {
              "coding": [
                {
                  "code": "MR",
                  "system": "http://terminology.hl7.org/CodeSystem/v2-0203"
                }
              ]
            },
            "system": "http://local.setting.eu/identifier",
            "value": "22c2dfd0-ac57-8833-2532-848f180896a4"
          }
        ],
        "name": [
          {
            "family": "Lagarde"
          },
          {
            "given": [
              "Victor"
            ]
          },
          {
            "text": "Victor Lagarde"
          }
        ],
        "address": [
          {
            "line": [
              "avenue Robert"
            ],
            "use": "home",
            "type": "physical",
            "postalCode": "80300",
            "city": "Albert",
            "country": "France"
          }
        ],
        "telecom": [
          {
            "system": "phone",
            "value": "0177941801"
          }
        ],
        "extension": [
          {
            "url": "http://hl7.org/fhir/StructureDefinition/patient-nationality",
            "valueCodeableConcept": {
              "coding": [
                {
                  "code": "FR",
                  "system": "http://hl7.org/fhir/ValueSet/country"
                }
              ]
            }
          }
        ],
        "text": {
          "status": "generated",
          "div": "<div xmlns=\"http://www.w3.org/1999/xhtml\"><table class=\"hl7__ips\"><tr><td>Victor Lagarde</td><td>male</td><td>31-Aug-1939</td></tr></table></div>"
        },
        "gender": "male",
        "birthDate": "1939-08-31"
      }
    },
    {
      "fullUrl": "urn:uuid:ffcb9037-33f0-4f6a-860b-50536c907476",
      "resource": {
        "resourceType": "ServiceRequest",
        "id": "ffcb9037-33f0-4f6a-860b-50536c907476",
        "meta": {
          "profile": [
            "http://hl7.eu/fhir/laboratory/StructureDefinition/ServiceRequest-eu-lab"
          ]
        },
        "identifier": [
          {
            "system": "http://example.org",
            "value": "95aaf62c-f210-443c-b2c5-a323f4970eba"
          }
        ],
        "specimen": [
          {
            "reference": "urn:uuid:c2542c13-8847-4e89-87c3-eb6b3329fdaa"
          },
          {
            "reference": "urn:uuid:d6e281b4-f603-4e3a-8ce1-9953162031fe"
          },
          {
            "reference": "urn:uuid:611fa5fa-269a-49c9-abf1-7813d5d05700"
          }
        ],
        "reasonCode": [
          {
            "coding": [
              {
                "code": "433144002",
                "system": "http://snomed.info/sct",
                "display": "Chronic kidney disease stage 3"
              }
            ]
          },
          {
            "coding": [
              {
                "code": "157141000119108",
                "system": "http://snomed.info/sct",
                "display": "Proteinuria due to type 2 diabetes mellitus"
              }
            ]
          },
          {
            "coding": [
              {
                "code": "431856006",
                "system": "http://snomed.info/sct",
                "display": "Chronic kidney disease stage 2"
              }
            ]
          },
          {
            "coding": [
              {
                "code": "90781000119102",
                "system": "http://snomed.info/sct",
                "display": "Microalbuminuria due to type 2 diabetes mellitus"
              }
            ]
          },
          {
            "coding": [
              {
                "code": "127013003",
                "system": "http://snomed.info/sct",
                "display": "Disorder of kidney due to diabetes mellitus"
              }
            ]
          },
          {
            "coding": [
              {
                "code": "431855005",
                "system": "http://snomed.info/sct",
                "display": "Chronic kidney disease stage 1"
              }
            ]
          },
          {
            "coding": [
              {
                "code": "55822004",
                "system": "http://snomed.info/sct",
                "display": "Hyperlipidemia"
              }
            ]
          },
          {
            "coding": [
              {
                "code": "59621000",
                "system": "http://snomed.info/sct",
                "display": "Essential hypertension"
              }
            ]
          },
          {
            "coding": [
              {
                "code": "237602007",
                "system": "http://snomed.info/sct",
                "display": "Metabolic syndrome X"
              }
            ]
          },
          {
            "coding": [
              {
                "code": "414545008",
                "system": "http://snomed.info/sct",
                "display": "Ischemic heart disease"
              }
            ]
          },
          {
            "coding": [
              {
                "code": "40055000",
                "system": "http://snomed.info/sct",
                "display": "Chronic sinusitis"
              }
            ]
          },
          {
            "coding": [
              {
                "code": "15777000",
                "system": "http://snomed.info/sct",
                "display": "Prediabetes"
              }
            ]
          },
          {
            "coding": [
              {
                "code": "271737000",
                "system": "http://snomed.info/sct",
                "display": "Anemia"
              }
            ]
          }
        ],
        "status": "active",
        "intent": "order",
        "code": {
          "coding": [
            {
              "code": "108252007",
              "system": "http://snomed.info/sct",
              "display": "Laboratory procedure"
            }
          ]
        },
        "subject": {
          "reference": "urn:uuid:0b7be5c6-8efb-4850-bbe9-bac1e1833cd9",
          "display": "Victor Lagarde"
        },
        "requester": {
          "reference": "urn:uuid:aac6b160-5b16-4685-88e6-9de54f43ede2"
        }
      }
    },
    {
      "fullUrl": "urn:uuid:aac6b160-5b16-4685-88e6-9de54f43ede2",
      "resource": {
        "resourceType": "PractitionerRole",
        "id": "aac6b160-5b16-4685-88e6-9de54f43ede2",
        "meta": {
          "profile": [
            "http://hl7.eu/fhir/base/StructureDefinition/practitionerRole-eu"
          ]
        },
        "text": {
          "status": "generated",
          "div": "<div xmlns=\"http://www.w3.org/1999/xhtml\">Provider Role Id: aac6b160-5b16-4685-88e6-9de54f43ede2</div>"
        },
        "organization": {
          "reference": "urn:uuid:d0b9ed07-173b-4071-9088-de3350a62ba3"
        }
      }
    },
    {
      "fullUrl": "urn:uuid:d0b9ed07-173b-4071-9088-de3350a62ba3",
      "resource": {
        "resourceType": "Organization",
        "id": "d0b9ed07-173b-4071-9088-de3350a62ba3",
        "meta": {
          "profile": [
            "http://hl7.eu/fhir/base/StructureDefinition/organization-eu"
          ]
        },
        "identifier": [
          {
            "assigner": {
              "display": "HL7 Europe"
            },
            "system": "urn:oid:2.16.840.1.113883.2.51.999",
            "value": "749c8cd5-e6b9-48be-a75c-9cd12fa3842b"
          }
        ],
        "address": [
          {
            "city": "Auxerre",
            "postalCode": "89000",
            "country": "France"
          }
        ],
        "text": {
          "status": "generated",
          "div": "<div xmlns=\"http://www.w3.org/1999/xhtml\">Provider Organization: Thiriot Didier (Cardiologie)</div>"
        },
        "name": "Thiriot Didier (Cardiologie)"
      }
    },
    {
      "fullUrl": "urn:uuid:c2542c13-8847-4e89-87c3-eb6b3329fdaa",
      "resource": {
        "resourceType": "Specimen",
        "id": "c2542c13-8847-4e89-87c3-eb6b3329fdaa",
        "meta": {
          "profile": [
            "http://hl7.eu/fhir/laboratory/StructureDefinition/Specimen-eu-lab"
          ]
        },
        "collection": {
          "collectedDateTime": "2024-01-12"
        },
        "text": {
          "status": "generated",
          "div": "<div xmlns=\"http://www.w3.org/1999/xhtml\"><table class=\"hl7__eu__lab__report\"><tr><th>Specimen</th><th>Collection Date</th></tr><tr><td>Acellular blood (serum or plasma) specimen</td><td><span class=\"nb\">12-Jan-2024</span></td></tr></table></div>"
        },
        "type": {
          "coding": [
            {
              "code": "122592007",
              "system": "http://snomed.info/sct",
              "display": "Acellular blood (serum or plasma) specimen"
            }
          ]
        }
      }
    },
    {
      "fullUrl": "urn:uuid:d6e281b4-f603-4e3a-8ce1-9953162031fe",
      "resource": {
        "resourceType": "Specimen",
        "id": "d6e281b4-f603-4e3a-8ce1-9953162031fe",
        "meta": {
          "profile": [
            "http://hl7.eu/fhir/laboratory/StructureDefinition/Specimen-eu-lab"
          ]
        },
        "collection": {
          "collectedDateTime": "2024-01-12"
        },
        "text": {
          "status": "generated",
          "div": "<div xmlns=\"http://www.w3.org/1999/xhtml\"><table class=\"hl7__eu__lab__report\"><tr><th>Specimen</th><th>Collection Date</th></tr><tr><td>Urine specimen</td><td><span class=\"nb\">12-Jan-2024</span></td></tr></table></div>"
        },
        "type": {
          "coding": [
            {
              "code": "122575003",
              "system": "http://snomed.info/sct",
              "display": "Urine specimen"
            }
          ]
        }
      }
    },
    {
      "fullUrl": "urn:uuid:611fa5fa-269a-49c9-abf1-7813d5d05700",
      "resource": {
        "resourceType": "Specimen",
        "id": "611fa5fa-269a-49c9-abf1-7813d5d05700",
        "meta": {
          "profile": [
            "http://hl7.eu/fhir/laboratory/StructureDefinition/Specimen-eu-lab"
          ]
        },
        "collection": {
          "collectedDateTime": "2024-01-12"
        },
        "text": {
          "status": "generated",
          "div": "<div xmlns=\"http://www.w3.org/1999/xhtml\"><table class=\"hl7__eu__lab__report\"><tr><th>Specimen</th><th>Collection Date</th></tr><tr><td>Whole blood specimen (specimen)</td><td><span class=\"nb\">12-Jan-2024</span></td></tr></table></div>"
        },
        "type": {
          "coding": [
            {
              "code": "258580003",
              "system": "http://snomed.info/sct",
              "display": "Whole blood specimen (specimen)"
            }
          ]
        }
      }
    },
    {
      "fullUrl": "urn:uuid:09dd54f7-41ef-4c03-8352-5c2c2ecf55e1",
      "resource": {
        "resourceType": "Observation",
        "id": "09dd54f7-41ef-4c03-8352-5c2c2ecf55e1",
        "meta": {
          "profile": [
            "http://hl7.eu/fhir/laboratory/StructureDefinition/Observation-resultslab-eu-lab"
          ]
        },
        "performer": [
          {
            "display": "The Central European Lab"
          }
        ],
        "category": [
          {
            "coding": [
              {
                "system": "http://terminology.hl7.org/CodeSystem/observation-category",
                "code": "laboratory"
              }
            ]
          }
        ],
        "code": {
          "coding": [
            {
              "code": "2345-7",
              "system": "http://loinc.org",
              "display": "Glucose [Mass/volume] in Serum or Plasma"
            }
          ],
          "text": "Glucose [Mass/volume] in Serum or Plasma"
        },
        "valueQuantity": {
          "system": "http://unitsofmeasure.org",
          "value": 72.8,
          "unit": "mg/dL",
          "code": "mg/dL"
        },
        "referenceRange": [
          {
            "low": {
              "value": 70,
              "code": "mg/dL",
              "system": "http://unitsofmeasure.org"
            }
          },
          {
            "high": {
              "value": 140,
              "code": "mg/dL",
              "system": "http://unitsofmeasure.org"
            }
          }
        ],
        "text": {
          "status": "generated",
          "div": "<div xmlns=\"http://www.w3.org/1999/xhtml\"><table class=\"hl7__eu__lab__report\"><tr><th>Test</th><th>12-Jan-2024</th><th>Reference&#xA0;Range</th><th>Unit</th></tr><tr><td>Glucose [Mass/volume] in Serum or Plasma</td><td>72.8</td><td>70 - 140</td><td></td><td>mg/dL</td></tr></table></div>"
        },
        "status": "final",
        "subject": {
          "reference": "urn:uuid:0b7be5c6-8efb-4850-bbe9-bac1e1833cd9",
          "display": "Victor Lagarde"
        },
        "effectiveDateTime": "2024-01-12T04:48:18Z",
        "specimen": {
          "reference": "urn:uuid:c2542c13-8847-4e89-87c3-eb6b3329fdaa"
        }
      }
    },
    {
      "fullUrl": "urn:uuid:1865c0d7-b159-45d4-9d2f-4683c8b0dbf5",
      "resource": {
        "resourceType": "Observation",
        "id": "1865c0d7-b159-45d4-9d2f-4683c8b0dbf5",
        "meta": {
          "profile": [
            "http://hl7.eu/fhir/laboratory/StructureDefinition/Observation-resultslab-eu-lab"
          ]
        },
        "performer": [
          {
            "display": "The Central European Lab"
          }
        ],
        "category": [
          {
            "coding": [
              {
                "system": "http://terminology.hl7.org/CodeSystem/observation-category",
                "code": "laboratory"
              }
            ]
          }
        ],
        "code": {
          "coding": [
            {
              "code": "3094-0",
              "system": "http://loinc.org",
              "display": "Urea nitrogen [Mass/volume] in Serum or Plasma"
            }
          ],
          "text": "Urea nitrogen [Mass/volume] in Serum or Plasma"
        },
        "valueQuantity": {
          "system": "http://unitsofmeasure.org",
          "value": 15.5,
          "unit": "mg/dL",
          "code": "mg/dL"
        },
        "referenceRange": [
          {
            "low": {
              "value": 7,
              "code": "mg/dL",
              "system": "http://unitsofmeasure.org"
            }
          },
          {
            "high": {
              "value": 20,
              "code": "mg/dL",
              "system": "http://unitsofmeasure.org"
            }
          }
        ],
        "text": {
          "status": "generated",
          "div": "<div xmlns=\"http://www.w3.org/1999/xhtml\"><table class=\"hl7__eu__lab__report\"><tr><th>Test</th><th>12-Jan-2024</th><th>Reference&#xA0;Range</th><th>Unit</th></tr><tr><td>Urea nitrogen [Mass/volume] in Serum or Plasma</td><td>15.5</td><td>7 - 20</td><td></td><td>mg/dL</td></tr></table></div>"
        },
        "status": "final",
        "subject": {
          "reference": "urn:uuid:0b7be5c6-8efb-4850-bbe9-bac1e1833cd9",
          "display": "Victor Lagarde"
        },
        "effectiveDateTime": "2024-01-12T04:48:18Z",
        "specimen": {
          "reference": "urn:uuid:c2542c13-8847-4e89-87c3-eb6b3329fdaa"
        }
      }
    },
    {
      "fullUrl": "urn:uuid:bfaae96b-bc93-46dd-86d3-98a4adb28eb7",
      "resource": {
        "resourceType": "Observation",
        "id": "bfaae96b-bc93-46dd-86d3-98a4adb28eb7",
        "meta": {
          "profile": [
            "http://hl7.eu/fhir/laboratory/StructureDefinition/Observation-resultslab-eu-lab"
          ]
        },
        "performer": [
          {
            "display": "The Central European Lab"
          }
        ],
        "category": [
          {
            "coding": [
              {
                "system": "http://terminology.hl7.org/CodeSystem/observation-category",
                "code": "laboratory"
              }
            ]
          }
        ],
        "code": {
          "coding": [
            {
              "code": "2160-0",
              "system": "http://loinc.org",
              "display": "Creatinine [Mass/volume] in Serum or Plasma"
            }
          ],
          "text": "Creatinine [Mass/volume] in Serum or Plasma"
        },
        "valueQuantity": {
          "system": "http://unitsofmeasure.org",
          "value": 2.1,
          "unit": "mg/dL",
          "code": "mg/dL"
        },
        "referenceRange": [
          {
            "low": {
              "value": 0.9,
              "code": "mg/dL",
              "system": "http://unitsofmeasure.org"
            }
          },
          {
            "high": {
              "value": 1.3,
              "code": "mg/dL",
              "system": "http://unitsofmeasure.org"
            }
          }
        ],
        "interpretation": [
          {
            "coding": [
              {
                "code": "H",
                "system": "http://terminology.hl7.org/CodeSystem/v3-ObservationInterpretation",
                "display": "High"
              }
            ]
          }
        ],
        "text": {
          "status": "generated",
          "div": "<div xmlns=\"http://www.w3.org/1999/xhtml\"><table class=\"hl7__eu__lab__report\"><tr><th>Test</th><th>12-Jan-2024</th><th>Reference&#xA0;Range</th><th>Unit</th></tr><tr><td>Creatinine [Mass/volume] in Serum or Plasma</td><td>2.1</td><td>0.9 - 1.3</td><td>H</td><td>mg/dL</td></tr></table></div>"
        },
        "status": "final",
        "subject": {
          "reference": "urn:uuid:0b7be5c6-8efb-4850-bbe9-bac1e1833cd9",
          "display": "Victor Lagarde"
        },
        "effectiveDateTime": "2024-01-12T04:48:18Z",
        "specimen": {
          "reference": "urn:uuid:c2542c13-8847-4e89-87c3-eb6b3329fdaa"
        }
      }
    },
    {
      "fullUrl": "urn:uuid:7c91307d-23c3-4d60-9598-44f57b1d6d04",
      "resource": {
        "resourceType": "Observation",
        "id": "7c91307d-23c3-4d60-9598-44f57b1d6d04",
        "meta": {
          "profile": [
            "http://hl7.eu/fhir/laboratory/StructureDefinition/Observation-resultslab-eu-lab"
          ]
        },
        "performer": [
          {
            "display": "The Central European Lab"
          }
        ],
        "category": [
          {
            "coding": [
              {
                "system": "http://terminology.hl7.org/CodeSystem/observation-category",
                "code": "laboratory"
              }
            ]
          }
        ],
        "code": {
          "coding": [
            {
              "code": "17861-6",
              "system": "http://loinc.org",
              "display": "Calcium [Mass/volume] in Serum or Plasma"
            }
          ],
          "text": "Calcium [Mass/volume] in Serum or Plasma"
        },
        "valueQuantity": {
          "system": "http://unitsofmeasure.org",
          "value": 10.2,
          "unit": "mg/dL",
          "code": "mg/dL"
        },
        "referenceRange": [
          {
            "low": {
              "value": 8.5,
              "code": "mg/dL",
              "system": "http://unitsofmeasure.org"
            }
          },
          {
            "high": {
              "value": 10.5,
              "code": "mg/dL",
              "system": "http://unitsofmeasure.org"
            }
          }
        ],
        "text": {
          "status": "generated",
          "div": "<div xmlns=\"http://www.w3.org/1999/xhtml\"><table class=\"hl7__eu__lab__report\"><tr><th>Test</th><th>12-Jan-2024</th><th>Reference&#xA0;Range</th><th>Unit</th></tr><tr><td>Calcium [Mass/volume] in Serum or Plasma</td><td>10.2</td><td>8.5 - 10.5</td><td></td><td>mg/dL</td></tr></table></div>"
        },
        "status": "final",
        "subject": {
          "reference": "urn:uuid:0b7be5c6-8efb-4850-bbe9-bac1e1833cd9",
          "display": "Victor Lagarde"
        },
        "effectiveDateTime": "2024-01-12T04:48:18Z",
        "specimen": {
          "reference": "urn:uuid:c2542c13-8847-4e89-87c3-eb6b3329fdaa"
        }
      }
    },
    {
      "fullUrl": "urn:uuid:506ce039-e136-4384-ade2-b6a83456e40c",
      "resource": {
        "resourceType": "Observation",
        "id": "506ce039-e136-4384-ade2-b6a83456e40c",
        "meta": {
          "profile": [
            "http://hl7.eu/fhir/laboratory/StructureDefinition/Observation-resultslab-eu-lab"
          ]
        },
        "performer": [
          {
            "display": "The Central European Lab"
          }
        ],
        "category": [
          {
            "coding": [
              {
                "system": "http://terminology.hl7.org/CodeSystem/observation-category",
                "code": "laboratory"
              }
            ]
          }
        ],
        "code": {
          "coding": [
            {
              "code": "2951-2",
              "system": "http://loinc.org",
              "display": "Sodium [Moles/volume] in Serum or Plasma"
            }
          ],
          "text": "Sodium [Moles/volume] in Serum or Plasma"
        },
        "valueQuantity": {
          "system": "http://unitsofmeasure.org",
          "value": 141.8,
          "unit": "mmol/L",
          "code": "mmol/L"
        },
        "referenceRange": [
          {
            "low": {
              "value": 135,
              "code": "mmol/L",
              "system": "http://unitsofmeasure.org"
            }
          },
          {
            "high": {
              "value": 145,
              "code": "mmol/L",
              "system": "http://unitsofmeasure.org"
            }
          }
        ],
        "text": {
          "status": "generated",
          "div": "<div xmlns=\"http://www.w3.org/1999/xhtml\"><table class=\"hl7__eu__lab__report\"><tr><th>Test</th><th>12-Jan-2024</th><th>Reference&#xA0;Range</th><th>Unit</th></tr><tr><td>Sodium [Moles/volume] in Serum or Plasma</td><td>141.8</td><td>135 - 145</td><td></td><td>mmol/L</td></tr></table></div>"
        },
        "status": "final",
        "subject": {
          "reference": "urn:uuid:0b7be5c6-8efb-4850-bbe9-bac1e1833cd9",
          "display": "Victor Lagarde"
        },
        "effectiveDateTime": "2024-01-12T04:48:18Z",
        "specimen": {
          "reference": "urn:uuid:c2542c13-8847-4e89-87c3-eb6b3329fdaa"
        }
      }
    },
    {
      "fullUrl": "urn:uuid:1b459019-f7e2-41e8-9475-0f670f91e54a",
      "resource": {
        "resourceType": "Observation",
        "id": "1b459019-f7e2-41e8-9475-0f670f91e54a",
        "meta": {
          "profile": [
            "http://hl7.eu/fhir/laboratory/StructureDefinition/Observation-resultslab-eu-lab"
          ]
        },
        "performer": [
          {
            "display": "The Central European Lab"
          }
        ],
        "category": [
          {
            "coding": [
              {
                "system": "http://terminology.hl7.org/CodeSystem/observation-category",
                "code": "laboratory"
              }
            ]
          }
        ],
        "code": {
          "coding": [
            {
              "code": "2823-3",
              "system": "http://loinc.org",
              "display": "Potassium [Moles/volume] in Serum or Plasma"
            }
          ],
          "text": "Potassium [Moles/volume] in Serum or Plasma"
        },
        "valueQuantity": {
          "system": "http://unitsofmeasure.org",
          "value": 4.1,
          "unit": "mmol/L",
          "code": "mmol/L"
        },
        "referenceRange": [
          {
            "low": {
              "value": 3.5,
              "code": "mmol/L",
              "system": "http://unitsofmeasure.org"
            }
          },
          {
            "high": {
              "value": 5.3,
              "code": "mmol/L",
              "system": "http://unitsofmeasure.org"
            }
          }
        ],
        "text": {
          "status": "generated",
          "div": "<div xmlns=\"http://www.w3.org/1999/xhtml\"><table class=\"hl7__eu__lab__report\"><tr><th>Test</th><th>12-Jan-2024</th><th>Reference&#xA0;Range</th><th>Unit</th></tr><tr><td>Potassium [Moles/volume] in Serum or Plasma</td><td>4.1</td><td>3.5 - 5.3</td><td></td><td>mmol/L</td></tr></table></div>"
        },
        "status": "final",
        "subject": {
          "reference": "urn:uuid:0b7be5c6-8efb-4850-bbe9-bac1e1833cd9",
          "display": "Victor Lagarde"
        },
        "effectiveDateTime": "2024-01-12T04:48:18Z",
        "specimen": {
          "reference": "urn:uuid:c2542c13-8847-4e89-87c3-eb6b3329fdaa"
        }
      }
    },
    {
      "fullUrl": "urn:uuid:0ac6618e-2f43-444b-a5e6-d51017fff2e3",
      "resource": {
        "resourceType": "Observation",
        "id": "0ac6618e-2f43-444b-a5e6-d51017fff2e3",
        "meta": {
          "profile": [
            "http://hl7.eu/fhir/laboratory/StructureDefinition/Observation-resultslab-eu-lab"
          ]
        },
        "performer": [
          {
            "display": "The Central European Lab"
          }
        ],
        "category": [
          {
            "coding": [
              {
                "system": "http://terminology.hl7.org/CodeSystem/observation-category",
                "code": "laboratory"
              }
            ]
          }
        ],
        "code": {
          "coding": [
            {
              "code": "2075-0",
              "system": "http://loinc.org",
              "display": "Chloride [Moles/volume] in Serum or Plasma"
            }
          ],
          "text": "Chloride [Moles/volume] in Serum or Plasma"
        },
        "valueQuantity": {
          "system": "http://unitsofmeasure.org",
          "value": 101.1,
          "unit": "mmol/L",
          "code": "mmol/L"
        },
        "referenceRange": [
          {
            "low": {
              "value": 98,
              "code": "mmol/L",
              "system": "http://unitsofmeasure.org"
            }
          },
          {
            "high": {
              "value": 107,
              "code": "mmol/L",
              "system": "http://unitsofmeasure.org"
            }
          }
        ],
        "text": {
          "status": "generated",
          "div": "<div xmlns=\"http://www.w3.org/1999/xhtml\"><table class=\"hl7__eu__lab__report\"><tr><th>Test</th><th>12-Jan-2024</th><th>Reference&#xA0;Range</th><th>Unit</th></tr><tr><td>Chloride [Moles/volume] in Serum or Plasma</td><td>101.1</td><td>98 - 107</td><td></td><td>mmol/L</td></tr></table></div>"
        },
        "status": "final",
        "subject": {
          "reference": "urn:uuid:0b7be5c6-8efb-4850-bbe9-bac1e1833cd9",
          "display": "Victor Lagarde"
        },
        "effectiveDateTime": "2024-01-12T04:48:18Z",
        "specimen": {
          "reference": "urn:uuid:c2542c13-8847-4e89-87c3-eb6b3329fdaa"
        }
      }
    },
    {
      "fullUrl": "urn:uuid:bfd12e3c-87dd-4979-9d08-a9da2f28d392",
      "resource": {
        "resourceType": "Observation",
        "id": "bfd12e3c-87dd-4979-9d08-a9da2f28d392",
        "meta": {
          "profile": [
            "http://hl7.eu/fhir/laboratory/StructureDefinition/Observation-resultslab-eu-lab"
          ]
        },
        "performer": [
          {
            "display": "The Central European Lab"
          }
        ],
        "category": [
          {
            "coding": [
              {
                "system": "http://terminology.hl7.org/CodeSystem/observation-category",
                "code": "laboratory"
              }
            ]
          }
        ],
        "code": {
          "coding": [
            {
              "code": "2028-9",
              "system": "http://loinc.org",
              "display": "Carbon dioxide, total [Moles/volume] in Serum or Plasma"
            }
          ],
          "text": "Carbon dioxide, total [Moles/volume] in Serum or Plasma"
        },
        "valueQuantity": {
          "system": "http://unitsofmeasure.org",
          "value": 21.9,
          "unit": "mmol/L",
          "code": "mmol/L"
        },
        "referenceRange": [
          {
            "low": {
              "value": 22,
              "code": "mmol/L",
              "system": "http://unitsofmeasure.org"
            }
          },
          {
            "high": {
              "value": 33,
              "code": "mmol/L",
              "system": "http://unitsofmeasure.org"
            }
          }
        ],
        "interpretation": [
          {
            "coding": [
              {
                "code": "L",
                "system": "http://terminology.hl7.org/CodeSystem/v3-ObservationInterpretation",
                "display": "Low"
              }
            ]
          }
        ],
        "text": {
          "status": "generated",
          "div": "<div xmlns=\"http://www.w3.org/1999/xhtml\"><table class=\"hl7__eu__lab__report\"><tr><th>Test</th><th>12-Jan-2024</th><th>Reference&#xA0;Range</th><th>Unit</th></tr><tr><td>Carbon dioxide, total [Moles/volume] in Serum or Plasma</td><td>21.9</td><td>22 - 33</td><td>L</td><td>mmol/L</td></tr></table></div>"
        },
        "status": "final",
        "subject": {
          "reference": "urn:uuid:0b7be5c6-8efb-4850-bbe9-bac1e1833cd9",
          "display": "Victor Lagarde"
        },
        "effectiveDateTime": "2024-01-12T04:48:18Z",
        "specimen": {
          "reference": "urn:uuid:c2542c13-8847-4e89-87c3-eb6b3329fdaa"
        }
      }
    },
    {
      "fullUrl": "urn:uuid:a0176196-6b81-4eee-8a26-c7bbb0e5444f",
      "resource": {
        "resourceType": "Observation",
        "id": "a0176196-6b81-4eee-8a26-c7bbb0e5444f",
        "meta": {
          "profile": [
            "http://hl7.eu/fhir/laboratory/StructureDefinition/Observation-resultslab-eu-lab"
          ]
        },
        "performer": [
          {
            "display": "The Central European Lab"
          }
        ],
        "category": [
          {
            "coding": [
              {
                "system": "http://terminology.hl7.org/CodeSystem/observation-category",
                "code": "laboratory"
              }
            ]
          }
        ],
        "code": {
          "coding": [
            {
              "code": "5767-9",
              "system": "http://loinc.org",
              "display": "Appearance of Urine"
            }
          ],
          "text": "Appearance of Urine"
        },
        "text": {
          "status": "generated",
          "div": "<div xmlns=\"http://www.w3.org/1999/xhtml\"><table class=\"hl7__eu__lab__report\"><tr><th>Test</th><th>12-Jan-2024</th><th>Reference&#xA0;Range</th><th>Unit</th></tr><tr><td>Appearance of Urine</td></tr></table></div>"
        },
        "status": "final",
        "subject": {
          "reference": "urn:uuid:0b7be5c6-8efb-4850-bbe9-bac1e1833cd9",
          "display": "Victor Lagarde"
        },
        "effectiveDateTime": "2024-01-12T04:48:18Z",
        "specimen": {
          "reference": "urn:uuid:d6e281b4-f603-4e3a-8ce1-9953162031fe"
        }
      }
    },
    {
      "fullUrl": "urn:uuid:b5bb9e36-a040-4678-80a6-ec183e558478",
      "resource": {
        "resourceType": "Observation",
        "id": "b5bb9e36-a040-4678-80a6-ec183e558478",
        "meta": {
          "profile": [
            "http://hl7.eu/fhir/laboratory/StructureDefinition/Observation-resultslab-eu-lab"
          ]
        },
        "performer": [
          {
            "display": "The Central European Lab"
          }
        ],
        "category": [
          {
            "coding": [
              {
                "system": "http://terminology.hl7.org/CodeSystem/observation-category",
                "code": "laboratory"
              }
            ]
          }
        ],
        "code": {
          "coding": [
            {
              "code": "34533-0",
              "system": "http://loinc.org",
              "display": "Odor of Urine"
            }
          ],
          "text": "Odor of Urine"
        },
        "text": {
          "status": "generated",
          "div": "<div xmlns=\"http://www.w3.org/1999/xhtml\"><table class=\"hl7__eu__lab__report\"><tr><th>Test</th><th>12-Jan-2024</th><th>Reference&#xA0;Range</th><th>Unit</th></tr><tr><td>Odor of Urine</td></tr></table></div>"
        },
        "status": "final",
        "subject": {
          "reference": "urn:uuid:0b7be5c6-8efb-4850-bbe9-bac1e1833cd9",
          "display": "Victor Lagarde"
        },
        "effectiveDateTime": "2024-01-12T04:48:18Z",
        "specimen": {
          "reference": "urn:uuid:d6e281b4-f603-4e3a-8ce1-9953162031fe"
        }
      }
    },
    {
      "fullUrl": "urn:uuid:d9568daa-9389-426c-bbff-917850fcb14a",
      "resource": {
        "resourceType": "Observation",
        "id": "d9568daa-9389-426c-bbff-917850fcb14a",
        "meta": {
          "profile": [
            "http://hl7.eu/fhir/laboratory/StructureDefinition/Observation-resultslab-eu-lab"
          ]
        },
        "performer": [
          {
            "display": "The Central European Lab"
          }
        ],
        "category": [
          {
            "coding": [
              {
                "system": "http://terminology.hl7.org/CodeSystem/observation-category",
                "code": "laboratory"
              }
            ]
          }
        ],
        "code": {
          "coding": [
            {
              "code": "32167-9",
              "system": "http://loinc.org",
              "display": "Clarity of Urine"
            }
          ],
          "text": "Clarity of Urine"
        },
        "text": {
          "status": "generated",
          "div": "<div xmlns=\"http://www.w3.org/1999/xhtml\"><table class=\"hl7__eu__lab__report\"><tr><th>Test</th><th>12-Jan-2024</th><th>Reference&#xA0;Range</th><th>Unit</th></tr><tr><td>Clarity of Urine</td></tr></table></div>"
        },
        "status": "final",
        "subject": {
          "reference": "urn:uuid:0b7be5c6-8efb-4850-bbe9-bac1e1833cd9",
          "display": "Victor Lagarde"
        },
        "effectiveDateTime": "2024-01-12T04:48:18Z",
        "specimen": {
          "reference": "urn:uuid:d6e281b4-f603-4e3a-8ce1-9953162031fe"
        }
      }
    },
    {
      "fullUrl": "urn:uuid:87747dd1-5cef-46f2-a04a-9610d9256fe9",
      "resource": {
        "resourceType": "Observation",
        "id": "87747dd1-5cef-46f2-a04a-9610d9256fe9",
        "meta": {
          "profile": [
            "http://hl7.eu/fhir/laboratory/StructureDefinition/Observation-resultslab-eu-lab"
          ]
        },
        "performer": [
          {
            "display": "The Central European Lab"
          }
        ],
        "category": [
          {
            "coding": [
              {
                "system": "http://terminology.hl7.org/CodeSystem/observation-category",
                "code": "laboratory"
              }
            ]
          }
        ],
        "code": {
          "coding": [
            {
              "code": "5778-6",
              "system": "http://loinc.org",
              "display": "Color of Urine"
            }
          ],
          "text": "Color of Urine"
        },
        "text": {
          "status": "generated",
          "div": "<div xmlns=\"http://www.w3.org/1999/xhtml\"><table class=\"hl7__eu__lab__report\"><tr><th>Test</th><th>12-Jan-2024</th><th>Reference&#xA0;Range</th><th>Unit</th></tr><tr><td>Color of Urine</td></tr></table></div>"
        },
        "status": "final",
        "subject": {
          "reference": "urn:uuid:0b7be5c6-8efb-4850-bbe9-bac1e1833cd9",
          "display": "Victor Lagarde"
        },
        "effectiveDateTime": "2024-01-12T04:48:18Z",
        "specimen": {
          "reference": "urn:uuid:d6e281b4-f603-4e3a-8ce1-9953162031fe"
        }
      }
    },
    {
      "fullUrl": "urn:uuid:8b8bef7d-6be8-401b-b937-43ef12c76cf0",
      "resource": {
        "resourceType": "Observation",
        "id": "8b8bef7d-6be8-401b-b937-43ef12c76cf0",
        "meta": {
          "profile": [
            "http://hl7.eu/fhir/laboratory/StructureDefinition/Observation-resultslab-eu-lab"
          ]
        },
        "performer": [
          {
            "display": "The Central European Lab"
          }
        ],
        "category": [
          {
            "coding": [
              {
                "system": "http://terminology.hl7.org/CodeSystem/observation-category",
                "code": "laboratory"
              }
            ]
          }
        ],
        "code": {
          "coding": [
            {
              "code": "5792-7",
              "system": "http://loinc.org",
              "display": "Glucose [Mass/volume] in Urine by Test strip"
            }
          ],
          "text": "Glucose [Mass/volume] in Urine by Test strip"
        },
        "valueQuantity": {
          "system": "http://unitsofmeasure.org",
          "value": 1.3,
          "unit": "mg/dL",
          "code": "mg/dL"
        },
        "referenceRange": [
          {
            "low": {
              "value": 0,
              "code": "mg/dL",
              "system": "http://unitsofmeasure.org"
            }
          },
          {
            "high": {
              "value": 0.8,
              "code": "mg/dL",
              "system": "http://unitsofmeasure.org"
            }
          }
        ],
        "interpretation": [
          {
            "coding": [
              {
                "code": "H",
                "system": "http://terminology.hl7.org/CodeSystem/v3-ObservationInterpretation",
                "display": "High"
              }
            ]
          }
        ],
        "text": {
          "status": "generated",
          "div": "<div xmlns=\"http://www.w3.org/1999/xhtml\"><table class=\"hl7__eu__lab__report\"><tr><th>Test</th><th>12-Jan-2024</th><th>Reference&#xA0;Range</th><th>Unit</th></tr><tr><td>Glucose [Mass/volume] in Urine by Test strip</td><td>1.3</td><td>0 - 0.8</td><td>H</td><td>mg/dL</td></tr></table></div>"
        },
        "status": "final",
        "subject": {
          "reference": "urn:uuid:0b7be5c6-8efb-4850-bbe9-bac1e1833cd9",
          "display": "Victor Lagarde"
        },
        "effectiveDateTime": "2024-01-12T04:48:18Z",
        "specimen": {
          "reference": "urn:uuid:d6e281b4-f603-4e3a-8ce1-9953162031fe"
        }
      }
    },
    {
      "fullUrl": "urn:uuid:d98aecec-11e6-455e-8a93-797dcce42894",
      "resource": {
        "resourceType": "Observation",
        "id": "d98aecec-11e6-455e-8a93-797dcce42894",
        "meta": {
          "profile": [
            "http://hl7.eu/fhir/laboratory/StructureDefinition/Observation-resultslab-eu-lab"
          ]
        },
        "performer": [
          {
            "display": "The Central European Lab"
          }
        ],
        "category": [
          {
            "coding": [
              {
                "system": "http://terminology.hl7.org/CodeSystem/observation-category",
                "code": "laboratory"
              }
            ]
          }
        ],
        "code": {
          "coding": [
            {
              "code": "25428-4",
              "system": "http://loinc.org",
              "display": "Glucose [Presence] in Urine by Test strip"
            }
          ],
          "text": "Glucose [Presence] in Urine by Test strip"
        },
        "text": {
          "status": "generated",
          "div": "<div xmlns=\"http://www.w3.org/1999/xhtml\"><table class=\"hl7__eu__lab__report\"><tr><th>Test</th><th>12-Jan-2024</th><th>Reference&#xA0;Range</th><th>Unit</th></tr><tr><td>Glucose [Presence] in Urine by Test strip</td></tr></table></div>"
        },
        "status": "final",
        "subject": {
          "reference": "urn:uuid:0b7be5c6-8efb-4850-bbe9-bac1e1833cd9",
          "display": "Victor Lagarde"
        },
        "effectiveDateTime": "2024-01-12T04:48:18Z",
        "specimen": {
          "reference": "urn:uuid:d6e281b4-f603-4e3a-8ce1-9953162031fe"
        }
      }
    },
    {
      "fullUrl": "urn:uuid:f6549665-09aa-448b-8b50-a6cfe24411c9",
      "resource": {
        "resourceType": "Observation",
        "id": "f6549665-09aa-448b-8b50-a6cfe24411c9",
        "meta": {
          "profile": [
            "http://hl7.eu/fhir/laboratory/StructureDefinition/Observation-resultslab-eu-lab"
          ]
        },
        "performer": [
          {
            "display": "The Central European Lab"
          }
        ],
        "category": [
          {
            "coding": [
              {
                "system": "http://terminology.hl7.org/CodeSystem/observation-category",
                "code": "laboratory"
              }
            ]
          }
        ],
        "code": {
          "coding": [
            {
              "code": "20505-4",
              "system": "http://loinc.org",
              "display": "Bilirubin.total [Mass/volume] in Urine by Test strip"
            }
          ],
          "text": "Bilirubin.total [Mass/volume] in Urine by Test strip"
        },
        "valueQuantity": {
          "system": "http://unitsofmeasure.org",
          "value": 0.3,
          "unit": "mg/dL",
          "code": "mg/dL"
        },
        "referenceRange": [
          {
            "low": {
              "value": 0,
              "code": "mg/dL",
              "system": "http://unitsofmeasure.org"
            }
          },
          {
            "high": {
              "value": 1.9,
              "code": "mg/dL",
              "system": "http://unitsofmeasure.org"
            }
          }
        ],
        "text": {
          "status": "generated",
          "div": "<div xmlns=\"http://www.w3.org/1999/xhtml\"><table class=\"hl7__eu__lab__report\"><tr><th>Test</th><th>12-Jan-2024</th><th>Reference&#xA0;Range</th><th>Unit</th></tr><tr><td>Bilirubin.total [Mass/volume] in Urine by Test strip</td><td>0.3</td><td>0 - 1.9</td><td></td><td>mg/dL</td></tr></table></div>"
        },
        "status": "final",
        "subject": {
          "reference": "urn:uuid:0b7be5c6-8efb-4850-bbe9-bac1e1833cd9",
          "display": "Victor Lagarde"
        },
        "effectiveDateTime": "2024-01-12T04:48:18Z",
        "specimen": {
          "reference": "urn:uuid:d6e281b4-f603-4e3a-8ce1-9953162031fe"
        }
      }
    },
    {
      "fullUrl": "urn:uuid:e0a64f96-b08e-4b05-9ce2-20d62adcbbbf",
      "resource": {
        "resourceType": "Observation",
        "id": "e0a64f96-b08e-4b05-9ce2-20d62adcbbbf",
        "meta": {
          "profile": [
            "http://hl7.eu/fhir/laboratory/StructureDefinition/Observation-resultslab-eu-lab"
          ]
        },
        "performer": [
          {
            "display": "The Central European Lab"
          }
        ],
        "category": [
          {
            "coding": [
              {
                "system": "http://terminology.hl7.org/CodeSystem/observation-category",
                "code": "laboratory"
              }
            ]
          }
        ],
        "code": {
          "coding": [
            {
              "code": "5770-3",
              "system": "http://loinc.org",
              "display": "Bilirubin.total [Presence] in Urine by Test strip"
            }
          ],
          "text": "Bilirubin.total [Presence] in Urine by Test strip"
        },
        "text": {
          "status": "generated",
          "div": "<div xmlns=\"http://www.w3.org/1999/xhtml\"><table class=\"hl7__eu__lab__report\"><tr><th>Test</th><th>12-Jan-2024</th><th>Reference&#xA0;Range</th><th>Unit</th></tr><tr><td>Bilirubin.total [Presence] in Urine by Test strip</td></tr></table></div>"
        },
        "status": "final",
        "subject": {
          "reference": "urn:uuid:0b7be5c6-8efb-4850-bbe9-bac1e1833cd9",
          "display": "Victor Lagarde"
        },
        "effectiveDateTime": "2024-01-12T04:48:18Z",
        "specimen": {
          "reference": "urn:uuid:d6e281b4-f603-4e3a-8ce1-9953162031fe"
        }
      }
    },
    {
      "fullUrl": "urn:uuid:3bea6c33-84c3-47be-8212-9d0a943507c8",
      "resource": {
        "resourceType": "Observation",
        "id": "3bea6c33-84c3-47be-8212-9d0a943507c8",
        "meta": {
          "profile": [
            "http://hl7.eu/fhir/laboratory/StructureDefinition/Observation-resultslab-eu-lab"
          ]
        },
        "performer": [
          {
            "display": "The Central European Lab"
          }
        ],
        "category": [
          {
            "coding": [
              {
                "system": "http://terminology.hl7.org/CodeSystem/observation-category",
                "code": "laboratory"
              }
            ]
          }
        ],
        "code": {
          "coding": [
            {
              "code": "5797-6",
              "system": "http://loinc.org",
              "display": "Ketones [Mass/volume] in Urine by Test strip"
            }
          ],
          "text": "Ketones [Mass/volume] in Urine by Test strip"
        },
        "valueQuantity": {
          "system": "http://unitsofmeasure.org",
          "value": 1.9,
          "unit": "mg/dL",
          "code": "mg/dL"
        },
        "referenceRange": [
          {
            "low": {
              "value": 0,
              "code": "mg/dL",
              "system": "http://unitsofmeasure.org"
            }
          },
          {
            "high": {
              "value": 3,
              "code": "mg/dL",
              "system": "http://unitsofmeasure.org"
            }
          }
        ],
        "text": {
          "status": "generated",
          "div": "<div xmlns=\"http://www.w3.org/1999/xhtml\"><table class=\"hl7__eu__lab__report\"><tr><th>Test</th><th>12-Jan-2024</th><th>Reference&#xA0;Range</th><th>Unit</th></tr><tr><td>Ketones [Mass/volume] in Urine by Test strip</td><td>1.9</td><td>0 - 3</td><td></td><td>mg/dL</td></tr></table></div>"
        },
        "status": "final",
        "subject": {
          "reference": "urn:uuid:0b7be5c6-8efb-4850-bbe9-bac1e1833cd9",
          "display": "Victor Lagarde"
        },
        "effectiveDateTime": "2024-01-12T04:48:18Z",
        "specimen": {
          "reference": "urn:uuid:d6e281b4-f603-4e3a-8ce1-9953162031fe"
        }
      }
    },
    {
      "fullUrl": "urn:uuid:9fb08284-1f69-4c73-9f5c-e66dd023f589",
      "resource": {
        "resourceType": "Observation",
        "id": "9fb08284-1f69-4c73-9f5c-e66dd023f589",
        "meta": {
          "profile": [
            "http://hl7.eu/fhir/laboratory/StructureDefinition/Observation-resultslab-eu-lab"
          ]
        },
        "performer": [
          {
            "display": "The Central European Lab"
          }
        ],
        "category": [
          {
            "coding": [
              {
                "system": "http://terminology.hl7.org/CodeSystem/observation-category",
                "code": "laboratory"
              }
            ]
          }
        ],
        "code": {
          "coding": [
            {
              "code": "2514-8",
              "system": "http://loinc.org",
              "display": "Ketones [Presence] in Urine by Test strip"
            }
          ],
          "text": "Ketones [Presence] in Urine by Test strip"
        },
        "text": {
          "status": "generated",
          "div": "<div xmlns=\"http://www.w3.org/1999/xhtml\"><table class=\"hl7__eu__lab__report\"><tr><th>Test</th><th>12-Jan-2024</th><th>Reference&#xA0;Range</th><th>Unit</th></tr><tr><td>Ketones [Presence] in Urine by Test strip</td></tr></table></div>"
        },
        "status": "final",
        "subject": {
          "reference": "urn:uuid:0b7be5c6-8efb-4850-bbe9-bac1e1833cd9",
          "display": "Victor Lagarde"
        },
        "effectiveDateTime": "2024-01-12T04:48:18Z",
        "specimen": {
          "reference": "urn:uuid:d6e281b4-f603-4e3a-8ce1-9953162031fe"
        }
      }
    },
    {
      "fullUrl": "urn:uuid:146e8c77-573f-4f69-ad8a-5b6fe8edc5a7",
      "resource": {
        "resourceType": "Observation",
        "id": "146e8c77-573f-4f69-ad8a-5b6fe8edc5a7",
        "meta": {
          "profile": [
            "http://hl7.eu/fhir/laboratory/StructureDefinition/Observation-resultslab-eu-lab"
          ]
        },
        "performer": [
          {
            "display": "The Central European Lab"
          }
        ],
        "category": [
          {
            "coding": [
              {
                "system": "http://terminology.hl7.org/CodeSystem/observation-category",
                "code": "laboratory"
              }
            ]
          }
        ],
        "code": {
          "coding": [
            {
              "code": "5811-5",
              "system": "http://loinc.org",
              "display": "Specific gravity of Urine by Test strip"
            }
          ],
          "text": "Specific gravity of Urine by Test strip"
        },
        "valueQuantity": {
          "system": "http://unitsofmeasure.org",
          "value": 1,
          "unit": "{nominal}",
          "code": "{nominal}"
        },
        "referenceRange": [
          {
            "low": {
              "value": 1.01,
              "code": "g/mL",
              "system": "http://unitsofmeasure.org"
            }
          },
          {
            "high": {
              "value": 1.03,
              "code": "g/mL",
              "system": "http://unitsofmeasure.org"
            }
          }
        ],
        "interpretation": [
          {
            "coding": [
              {
                "code": "L",
                "system": "http://terminology.hl7.org/CodeSystem/v3-ObservationInterpretation",
                "display": "Low"
              }
            ]
          }
        ],
        "text": {
          "status": "generated",
          "div": "<div xmlns=\"http://www.w3.org/1999/xhtml\"><table class=\"hl7__eu__lab__report\"><tr><th>Test</th><th>12-Jan-2024</th><th>Reference&#xA0;Range</th><th>Unit</th></tr><tr><td>Specific gravity of Urine by Test strip</td><td>1.0</td><td>1.01 - 1.03</td><td>L</td><td>{nominal}</td></tr></table></div>"
        },
        "status": "final",
        "subject": {
          "reference": "urn:uuid:0b7be5c6-8efb-4850-bbe9-bac1e1833cd9",
          "display": "Victor Lagarde"
        },
        "effectiveDateTime": "2024-01-12T04:48:18Z",
        "specimen": {
          "reference": "urn:uuid:d6e281b4-f603-4e3a-8ce1-9953162031fe"
        }
      }
    },
    {
      "fullUrl": "urn:uuid:43ab336a-633a-4149-a79a-b25eb9440c89",
      "resource": {
        "resourceType": "Observation",
        "id": "43ab336a-633a-4149-a79a-b25eb9440c89",
        "meta": {
          "profile": [
            "http://hl7.eu/fhir/laboratory/StructureDefinition/Observation-resultslab-eu-lab"
          ]
        },
        "performer": [
          {
            "display": "The Central European Lab"
          }
        ],
        "category": [
          {
            "coding": [
              {
                "system": "http://terminology.hl7.org/CodeSystem/observation-category",
                "code": "laboratory"
              }
            ]
          }
        ],
        "code": {
          "coding": [
            {
              "code": "5803-2",
              "system": "http://loinc.org",
              "display": "pH of Urine by Test strip"
            }
          ],
          "text": "pH of Urine by Test strip"
        },
        "valueQuantity": {
          "system": "http://unitsofmeasure.org",
          "value": 5.4,
          "unit": "pH",
          "code": "pH"
        },
        "referenceRange": [
          {
            "low": {
              "value": 4.5,
              "code": "pH",
              "system": "http://unitsofmeasure.org"
            }
          },
          {
            "high": {
              "value": 7.5,
              "code": "pH",
              "system": "http://unitsofmeasure.org"
            }
          }
        ],
        "text": {
          "status": "generated",
          "div": "<div xmlns=\"http://www.w3.org/1999/xhtml\"><table class=\"hl7__eu__lab__report\"><tr><th>Test</th><th>12-Jan-2024</th><th>Reference&#xA0;Range</th><th>Unit</th></tr><tr><td>pH of Urine by Test strip</td><td>5.4</td><td>4.5 - 7.5</td><td></td><td>pH</td></tr></table></div>"
        },
        "status": "final",
        "subject": {
          "reference": "urn:uuid:0b7be5c6-8efb-4850-bbe9-bac1e1833cd9",
          "display": "Victor Lagarde"
        },
        "effectiveDateTime": "2024-01-12T04:48:18Z",
        "specimen": {
          "reference": "urn:uuid:d6e281b4-f603-4e3a-8ce1-9953162031fe"
        }
      }
    },
    {
      "fullUrl": "urn:uuid:11bc85a1-0e6d-4701-b349-083e06971e58",
      "resource": {
        "resourceType": "Observation",
        "id": "11bc85a1-0e6d-4701-b349-083e06971e58",
        "meta": {
          "profile": [
            "http://hl7.eu/fhir/laboratory/StructureDefinition/Observation-resultslab-eu-lab"
          ]
        },
        "performer": [
          {
            "display": "The Central European Lab"
          }
        ],
        "category": [
          {
            "coding": [
              {
                "system": "http://terminology.hl7.org/CodeSystem/observation-category",
                "code": "laboratory"
              }
            ]
          }
        ],
        "code": {
          "coding": [
            {
              "code": "5804-0",
              "system": "http://loinc.org",
              "display": "Protein [Mass/volume] in Urine by Test strip"
            }
          ],
          "text": "Protein [Mass/volume] in Urine by Test strip"
        },
        "valueQuantity": {
          "system": "http://unitsofmeasure.org",
          "value": 201.3,
          "unit": "mg/dL",
          "code": "mg/dL"
        },
        "referenceRange": [
          {
            "low": {
              "value": 0,
              "code": "mg/dL",
              "system": "http://unitsofmeasure.org"
            }
          },
          {
            "high": {
              "value": 149,
              "code": "mg/dL",
              "system": "http://unitsofmeasure.org"
            }
          }
        ],
        "interpretation": [
          {
            "coding": [
              {
                "code": "H",
                "system": "http://terminology.hl7.org/CodeSystem/v3-ObservationInterpretation",
                "display": "High"
              }
            ]
          }
        ],
        "text": {
          "status": "generated",
          "div": "<div xmlns=\"http://www.w3.org/1999/xhtml\"><table class=\"hl7__eu__lab__report\"><tr><th>Test</th><th>12-Jan-2024</th><th>Reference&#xA0;Range</th><th>Unit</th></tr><tr><td>Protein [Mass/volume] in Urine by Test strip</td><td>201.3</td><td>0 - 149</td><td>H</td><td>mg/dL</td></tr></table></div>"
        },
        "status": "final",
        "subject": {
          "reference": "urn:uuid:0b7be5c6-8efb-4850-bbe9-bac1e1833cd9",
          "display": "Victor Lagarde"
        },
        "effectiveDateTime": "2024-01-12T04:48:18Z",
        "specimen": {
          "reference": "urn:uuid:d6e281b4-f603-4e3a-8ce1-9953162031fe"
        }
      }
    },
    {
      "fullUrl": "urn:uuid:ff8c18fb-60b3-4d1e-bdb9-c85f145f2ab7",
      "resource": {
        "resourceType": "Observation",
        "id": "ff8c18fb-60b3-4d1e-bdb9-c85f145f2ab7",
        "meta": {
          "profile": [
            "http://hl7.eu/fhir/laboratory/StructureDefinition/Observation-resultslab-eu-lab"
          ]
        },
        "performer": [
          {
            "display": "The Central European Lab"
          }
        ],
        "category": [
          {
            "coding": [
              {
                "system": "http://terminology.hl7.org/CodeSystem/observation-category",
                "code": "laboratory"
              }
            ]
          }
        ],
        "code": {
          "coding": [
            {
              "code": "20454-5",
              "system": "http://loinc.org",
              "display": "Protein [Presence] in Urine by Test strip"
            }
          ],
          "text": "Protein [Presence] in Urine by Test strip"
        },
        "text": {
          "status": "generated",
          "div": "<div xmlns=\"http://www.w3.org/1999/xhtml\"><table class=\"hl7__eu__lab__report\"><tr><th>Test</th><th>12-Jan-2024</th><th>Reference&#xA0;Range</th><th>Unit</th></tr><tr><td>Protein [Presence] in Urine by Test strip</td></tr></table></div>"
        },
        "status": "final",
        "subject": {
          "reference": "urn:uuid:0b7be5c6-8efb-4850-bbe9-bac1e1833cd9",
          "display": "Victor Lagarde"
        },
        "effectiveDateTime": "2024-01-12T04:48:18Z",
        "specimen": {
          "reference": "urn:uuid:d6e281b4-f603-4e3a-8ce1-9953162031fe"
        }
      }
    },
    {
      "fullUrl": "urn:uuid:202122bf-42f6-4395-9df5-dd93e746f9d2",
      "resource": {
        "resourceType": "Observation",
        "id": "202122bf-42f6-4395-9df5-dd93e746f9d2",
        "meta": {
          "profile": [
            "http://hl7.eu/fhir/laboratory/StructureDefinition/Observation-resultslab-eu-lab"
          ]
        },
        "performer": [
          {
            "display": "The Central European Lab"
          }
        ],
        "category": [
          {
            "coding": [
              {
                "system": "http://terminology.hl7.org/CodeSystem/observation-category",
                "code": "laboratory"
              }
            ]
          }
        ],
        "code": {
          "coding": [
            {
              "code": "5802-4",
              "system": "http://loinc.org",
              "display": "Nitrite [Presence] in Urine by Test strip"
            }
          ],
          "text": "Nitrite [Presence] in Urine by Test strip"
        },
        "text": {
          "status": "generated",
          "div": "<div xmlns=\"http://www.w3.org/1999/xhtml\"><table class=\"hl7__eu__lab__report\"><tr><th>Test</th><th>12-Jan-2024</th><th>Reference&#xA0;Range</th><th>Unit</th></tr><tr><td>Nitrite [Presence] in Urine by Test strip</td></tr></table></div>"
        },
        "status": "final",
        "subject": {
          "reference": "urn:uuid:0b7be5c6-8efb-4850-bbe9-bac1e1833cd9",
          "display": "Victor Lagarde"
        },
        "effectiveDateTime": "2024-01-12T04:48:18Z",
        "specimen": {
          "reference": "urn:uuid:d6e281b4-f603-4e3a-8ce1-9953162031fe"
        }
      }
    },
    {
      "fullUrl": "urn:uuid:a4d7d08a-2a89-4e43-bd68-d8af4c234e54",
      "resource": {
        "resourceType": "Observation",
        "id": "a4d7d08a-2a89-4e43-bd68-d8af4c234e54",
        "meta": {
          "profile": [
            "http://hl7.eu/fhir/laboratory/StructureDefinition/Observation-resultslab-eu-lab"
          ]
        },
        "performer": [
          {
            "display": "The Central European Lab"
          }
        ],
        "category": [
          {
            "coding": [
              {
                "system": "http://terminology.hl7.org/CodeSystem/observation-category",
                "code": "laboratory"
              }
            ]
          }
        ],
        "code": {
          "coding": [
            {
              "code": "5794-3",
              "system": "http://loinc.org",
              "display": "Hemoglobin [Presence] in Urine by Test strip"
            }
          ],
          "text": "Hemoglobin [Presence] in Urine by Test strip"
        },
        "text": {
          "status": "generated",
          "div": "<div xmlns=\"http://www.w3.org/1999/xhtml\"><table class=\"hl7__eu__lab__report\"><tr><th>Test</th><th>12-Jan-2024</th><th>Reference&#xA0;Range</th><th>Unit</th></tr><tr><td>Hemoglobin [Presence] in Urine by Test strip</td></tr></table></div>"
        },
        "status": "final",
        "subject": {
          "reference": "urn:uuid:0b7be5c6-8efb-4850-bbe9-bac1e1833cd9",
          "display": "Victor Lagarde"
        },
        "effectiveDateTime": "2024-01-12T04:48:18Z",
        "specimen": {
          "reference": "urn:uuid:d6e281b4-f603-4e3a-8ce1-9953162031fe"
        }
      }
    },
    {
      "fullUrl": "urn:uuid:c4edd9e4-4f73-4b08-9923-30dfa9d6706b",
      "resource": {
        "resourceType": "Observation",
        "id": "c4edd9e4-4f73-4b08-9923-30dfa9d6706b",
        "meta": {
          "profile": [
            "http://hl7.eu/fhir/laboratory/StructureDefinition/Observation-resultslab-eu-lab"
          ]
        },
        "performer": [
          {
            "display": "The Central European Lab"
          }
        ],
        "category": [
          {
            "coding": [
              {
                "system": "http://terminology.hl7.org/CodeSystem/observation-category",
                "code": "laboratory"
              }
            ]
          }
        ],
        "code": {
          "coding": [
            {
              "code": "5799-2",
              "system": "http://loinc.org",
              "display": "Leukocyte esterase [Presence] in Urine by Test strip"
            }
          ],
          "text": "Leukocyte esterase [Presence] in Urine by Test strip"
        },
        "text": {
          "status": "generated",
          "div": "<div xmlns=\"http://www.w3.org/1999/xhtml\"><table class=\"hl7__eu__lab__report\"><tr><th>Test</th><th>12-Jan-2024</th><th>Reference&#xA0;Range</th><th>Unit</th></tr><tr><td>Leukocyte esterase [Presence] in Urine by Test strip</td></tr></table></div>"
        },
        "status": "final",
        "subject": {
          "reference": "urn:uuid:0b7be5c6-8efb-4850-bbe9-bac1e1833cd9",
          "display": "Victor Lagarde"
        },
        "effectiveDateTime": "2024-01-12T04:48:18Z",
        "specimen": {
          "reference": "urn:uuid:d6e281b4-f603-4e3a-8ce1-9953162031fe"
        }
      }
    },
    {
      "fullUrl": "urn:uuid:d119045d-16fe-47d8-addd-0a6e65ee058b",
      "resource": {
        "resourceType": "Observation",
        "id": "d119045d-16fe-47d8-addd-0a6e65ee058b",
        "meta": {
          "profile": [
            "http://hl7.eu/fhir/laboratory/StructureDefinition/Observation-resultslab-eu-lab"
          ]
        },
        "performer": [
          {
            "display": "The Central European Lab"
          }
        ],
        "category": [
          {
            "coding": [
              {
                "system": "http://terminology.hl7.org/CodeSystem/observation-category",
                "code": "laboratory"
              }
            ]
          }
        ],
        "code": {
          "coding": [
            {
              "code": "4548-4",
              "system": "http://loinc.org",
              "display": "Hemoglobin A1c/Hemoglobin.total in Blood"
            }
          ],
          "text": "Hemoglobin A1c/Hemoglobin.total in Blood"
        },
        "valueQuantity": {
          "system": "http://unitsofmeasure.org",
          "value": 3,
          "unit": "%",
          "code": "%"
        },
        "referenceRange": [
          {
            "low": {
              "value": 4.3,
              "code": "%",
              "system": "http://unitsofmeasure.org"
            }
          },
          {
            "high": {
              "value": 6,
              "code": "%",
              "system": "http://unitsofmeasure.org"
            }
          }
        ],
        "interpretation": [
          {
            "coding": [
              {
                "code": "L",
                "system": "http://terminology.hl7.org/CodeSystem/v3-ObservationInterpretation",
                "display": "Low"
              }
            ]
          }
        ],
        "text": {
          "status": "generated",
          "div": "<div xmlns=\"http://www.w3.org/1999/xhtml\"><table class=\"hl7__eu__lab__report\"><tr><th>Test</th><th>12-Jan-2024</th><th>Reference&#xA0;Range</th><th>Unit</th></tr><tr><td>Hemoglobin A1c/Hemoglobin.total in Blood</td><td>3.0</td><td>4.3 - 6</td><td>L</td><td>%</td></tr></table></div>"
        },
        "status": "final",
        "subject": {
          "reference": "urn:uuid:0b7be5c6-8efb-4850-bbe9-bac1e1833cd9",
          "display": "Victor Lagarde"
        },
        "effectiveDateTime": "2024-01-12T04:48:18Z",
        "specimen": {
          "reference": "urn:uuid:611fa5fa-269a-49c9-abf1-7813d5d05700"
        }
      }
    },
    {
      "fullUrl": "urn:uuid:49199689-ac6f-40de-8c1f-0d038edcbde4",
      "resource": {
        "resourceType": "Observation",
        "id": "49199689-ac6f-40de-8c1f-0d038edcbde4",
        "meta": {
          "profile": [
            "http://hl7.eu/fhir/laboratory/StructureDefinition/Observation-resultslab-eu-lab"
          ]
        },
        "performer": [
          {
            "display": "The Central European Lab"
          }
        ],
        "category": [
          {
            "coding": [
              {
                "system": "http://terminology.hl7.org/CodeSystem/observation-category",
                "code": "laboratory"
              }
            ]
          }
        ],
        "code": {
          "coding": [
            {
              "code": "2339-0",
              "system": "http://loinc.org",
              "display": "Glucose [Mass/volume] in Blood"
            }
          ],
          "text": "Glucose [Mass/volume] in Blood"
        },
        "valueQuantity": {
          "system": "http://unitsofmeasure.org",
          "value": 72.8,
          "unit": "mg/dL",
          "code": "mg/dL"
        },
        "referenceRange": [
          {
            "low": {
              "value": 70,
              "code": "mg/dL",
              "system": "http://unitsofmeasure.org"
            }
          },
          {
            "high": {
              "value": 140,
              "code": "mg/dL",
              "system": "http://unitsofmeasure.org"
            }
          }
        ],
        "text": {
          "status": "generated",
          "div": "<div xmlns=\"http://www.w3.org/1999/xhtml\"><table class=\"hl7__eu__lab__report\"><tr><th>Test</th><th>12-Jan-2024</th><th>Reference&#xA0;Range</th><th>Unit</th></tr><tr><td>Glucose [Mass/volume] in Blood</td><td>72.8</td><td>70 - 140</td><td></td><td>mg/dL</td></tr></table></div>"
        },
        "status": "final",
        "subject": {
          "reference": "urn:uuid:0b7be5c6-8efb-4850-bbe9-bac1e1833cd9",
          "display": "Victor Lagarde"
        },
        "effectiveDateTime": "2024-01-12T04:48:18Z",
        "specimen": {
          "reference": "urn:uuid:611fa5fa-269a-49c9-abf1-7813d5d05700"
        }
      }
    },
    {
      "fullUrl": "urn:uuid:8a3c33a5-b988-4650-a533-c93f74abcb86",
      "resource": {
        "resourceType": "Observation",
        "id": "8a3c33a5-b988-4650-a533-c93f74abcb86",
        "meta": {
          "profile": [
            "http://hl7.eu/fhir/laboratory/StructureDefinition/Observation-resultslab-eu-lab"
          ]
        },
        "performer": [
          {
            "display": "The Central European Lab"
          }
        ],
        "category": [
          {
            "coding": [
              {
                "system": "http://terminology.hl7.org/CodeSystem/observation-category",
                "code": "laboratory"
              }
            ]
          }
        ],
        "code": {
          "coding": [
            {
              "code": "6299-2",
              "system": "http://loinc.org",
              "display": "Urea nitrogen [Mass/volume] in Blood"
            }
          ],
          "text": "Urea nitrogen [Mass/volume] in Blood"
        },
        "valueQuantity": {
          "system": "http://unitsofmeasure.org",
          "value": 15.5,
          "unit": "mg/dL",
          "code": "mg/dL"
        },
        "referenceRange": [
          {
            "low": {
              "value": 7,
              "code": "mg/dL",
              "system": "http://unitsofmeasure.org"
            }
          },
          {
            "high": {
              "value": 20,
              "code": "mg/dL",
              "system": "http://unitsofmeasure.org"
            }
          }
        ],
        "text": {
          "status": "generated",
          "div": "<div xmlns=\"http://www.w3.org/1999/xhtml\"><table class=\"hl7__eu__lab__report\"><tr><th>Test</th><th>12-Jan-2024</th><th>Reference&#xA0;Range</th><th>Unit</th></tr><tr><td>Urea nitrogen [Mass/volume] in Blood</td><td>15.5</td><td>7 - 20</td><td></td><td>mg/dL</td></tr></table></div>"
        },
        "status": "final",
        "subject": {
          "reference": "urn:uuid:0b7be5c6-8efb-4850-bbe9-bac1e1833cd9",
          "display": "Victor Lagarde"
        },
        "effectiveDateTime": "2024-01-12T04:48:18Z",
        "specimen": {
          "reference": "urn:uuid:611fa5fa-269a-49c9-abf1-7813d5d05700"
        }
      }
    },
    {
      "fullUrl": "urn:uuid:62bf9753-859e-42ac-a203-8879542c05da",
      "resource": {
        "resourceType": "Observation",
        "id": "62bf9753-859e-42ac-a203-8879542c05da",
        "meta": {
          "profile": [
            "http://hl7.eu/fhir/laboratory/StructureDefinition/Observation-resultslab-eu-lab"
          ]
        },
        "performer": [
          {
            "display": "The Central European Lab"
          }
        ],
        "category": [
          {
            "coding": [
              {
                "system": "http://terminology.hl7.org/CodeSystem/observation-category",
                "code": "laboratory"
              }
            ]
          }
        ],
        "code": {
          "coding": [
            {
              "code": "38483-4",
              "system": "http://loinc.org",
              "display": "Creatinine [Mass/volume] in Blood"
            }
          ],
          "text": "Creatinine [Mass/volume] in Blood"
        },
        "valueQuantity": {
          "system": "http://unitsofmeasure.org",
          "value": 4.5,
          "unit": "mg/dL",
          "code": "mg/dL"
        },
        "referenceRange": [
          {
            "low": {
              "value": 0.9,
              "code": "mg/dL",
              "system": "http://unitsofmeasure.org"
            }
          },
          {
            "high": {
              "value": 1.3,
              "code": "mg/dL",
              "system": "http://unitsofmeasure.org"
            }
          }
        ],
        "interpretation": [
          {
            "coding": [
              {
                "code": "H",
                "system": "http://terminology.hl7.org/CodeSystem/v3-ObservationInterpretation",
                "display": "High"
              }
            ]
          }
        ],
        "text": {
          "status": "generated",
          "div": "<div xmlns=\"http://www.w3.org/1999/xhtml\"><table class=\"hl7__eu__lab__report\"><tr><th>Test</th><th>12-Jan-2024</th><th>Reference&#xA0;Range</th><th>Unit</th></tr><tr><td>Creatinine [Mass/volume] in Blood</td><td>4.5</td><td>0.9 - 1.3</td><td>H</td><td>mg/dL</td></tr></table></div>"
        },
        "status": "final",
        "subject": {
          "reference": "urn:uuid:0b7be5c6-8efb-4850-bbe9-bac1e1833cd9",
          "display": "Victor Lagarde"
        },
        "effectiveDateTime": "2024-01-12T04:48:18Z",
        "specimen": {
          "reference": "urn:uuid:611fa5fa-269a-49c9-abf1-7813d5d05700"
        }
      }
    },
    {
      "fullUrl": "urn:uuid:d78ec618-3fd8-4e28-9286-ab378a944ba6",
      "resource": {
        "resourceType": "Observation",
        "id": "d78ec618-3fd8-4e28-9286-ab378a944ba6",
        "meta": {
          "profile": [
            "http://hl7.eu/fhir/laboratory/StructureDefinition/Observation-resultslab-eu-lab"
          ]
        },
        "performer": [
          {
            "display": "The Central European Lab"
          }
        ],
        "category": [
          {
            "coding": [
              {
                "system": "http://terminology.hl7.org/CodeSystem/observation-category",
                "code": "laboratory"
              }
            ]
          }
        ],
        "code": {
          "coding": [
            {
              "code": "49765-1",
              "system": "http://loinc.org",
              "display": "Calcium [Mass/volume] in Blood"
            }
          ],
          "text": "Calcium [Mass/volume] in Blood"
        },
        "valueQuantity": {
          "system": "http://unitsofmeasure.org",
          "value": 10.2,
          "unit": "mg/dL",
          "code": "mg/dL"
        },
        "referenceRange": [
          {
            "low": {
              "value": 8.5,
              "code": "mg/dL",
              "system": "http://unitsofmeasure.org"
            }
          },
          {
            "high": {
              "value": 10.5,
              "code": "mg/dL",
              "system": "http://unitsofmeasure.org"
            }
          }
        ],
        "text": {
          "status": "generated",
          "div": "<div xmlns=\"http://www.w3.org/1999/xhtml\"><table class=\"hl7__eu__lab__report\"><tr><th>Test</th><th>12-Jan-2024</th><th>Reference&#xA0;Range</th><th>Unit</th></tr><tr><td>Calcium [Mass/volume] in Blood</td><td>10.2</td><td>8.5 - 10.5</td><td></td><td>mg/dL</td></tr></table></div>"
        },
        "status": "final",
        "subject": {
          "reference": "urn:uuid:0b7be5c6-8efb-4850-bbe9-bac1e1833cd9",
          "display": "Victor Lagarde"
        },
        "effectiveDateTime": "2024-01-12T04:48:18Z",
        "specimen": {
          "reference": "urn:uuid:611fa5fa-269a-49c9-abf1-7813d5d05700"
        }
      }
    },
    {
      "fullUrl": "urn:uuid:9e7a2248-4cf8-4f90-bf66-fb697fbc67e9",
      "resource": {
        "resourceType": "Observation",
        "id": "9e7a2248-4cf8-4f90-bf66-fb697fbc67e9",
        "meta": {
          "profile": [
            "http://hl7.eu/fhir/laboratory/StructureDefinition/Observation-resultslab-eu-lab"
          ]
        },
        "performer": [
          {
            "display": "The Central European Lab"
          }
        ],
        "category": [
          {
            "coding": [
              {
                "system": "http://terminology.hl7.org/CodeSystem/observation-category",
                "code": "laboratory"
              }
            ]
          }
        ],
        "code": {
          "coding": [
            {
              "code": "2947-0",
              "system": "http://loinc.org",
              "display": "Sodium [Moles/volume] in Blood"
            }
          ],
          "text": "Sodium [Moles/volume] in Blood"
        },
        "valueQuantity": {
          "system": "http://unitsofmeasure.org",
          "value": 141.8,
          "unit": "mmol/L",
          "code": "mmol/L"
        },
        "referenceRange": [
          {
            "low": {
              "value": 135,
              "code": "mmol/L",
              "system": "http://unitsofmeasure.org"
            }
          },
          {
            "high": {
              "value": 145,
              "code": "mmol/L",
              "system": "http://unitsofmeasure.org"
            }
          }
        ],
        "text": {
          "status": "generated",
          "div": "<div xmlns=\"http://www.w3.org/1999/xhtml\"><table class=\"hl7__eu__lab__report\"><tr><th>Test</th><th>12-Jan-2024</th><th>Reference&#xA0;Range</th><th>Unit</th></tr><tr><td>Sodium [Moles/volume] in Blood</td><td>141.8</td><td>135 - 145</td><td></td><td>mmol/L</td></tr></table></div>"
        },
        "status": "final",
        "subject": {
          "reference": "urn:uuid:0b7be5c6-8efb-4850-bbe9-bac1e1833cd9",
          "display": "Victor Lagarde"
        },
        "effectiveDateTime": "2024-01-12T04:48:18Z",
        "specimen": {
          "reference": "urn:uuid:611fa5fa-269a-49c9-abf1-7813d5d05700"
        }
      }
    },
    {
      "fullUrl": "urn:uuid:6ce51b26-9766-469f-9626-d12b2325210d",
      "resource": {
        "resourceType": "Observation",
        "id": "6ce51b26-9766-469f-9626-d12b2325210d",
        "meta": {
          "profile": [
            "http://hl7.eu/fhir/laboratory/StructureDefinition/Observation-resultslab-eu-lab"
          ]
        },
        "performer": [
          {
            "display": "The Central European Lab"
          }
        ],
        "category": [
          {
            "coding": [
              {
                "system": "http://terminology.hl7.org/CodeSystem/observation-category",
                "code": "laboratory"
              }
            ]
          }
        ],
        "code": {
          "coding": [
            {
              "code": "6298-4",
              "system": "http://loinc.org",
              "display": "Potassium [Moles/volume] in Blood"
            }
          ],
          "text": "Potassium [Moles/volume] in Blood"
        },
        "valueQuantity": {
          "system": "http://unitsofmeasure.org",
          "value": 4.1,
          "unit": "mmol/L",
          "code": "mmol/L"
        },
        "referenceRange": [
          {
            "low": {
              "value": 3.5,
              "code": "mmol/L",
              "system": "http://unitsofmeasure.org"
            }
          },
          {
            "high": {
              "value": 5.1,
              "code": "mmol/L",
              "system": "http://unitsofmeasure.org"
            }
          }
        ],
        "text": {
          "status": "generated",
          "div": "<div xmlns=\"http://www.w3.org/1999/xhtml\"><table class=\"hl7__eu__lab__report\"><tr><th>Test</th><th>12-Jan-2024</th><th>Reference&#xA0;Range</th><th>Unit</th></tr><tr><td>Potassium [Moles/volume] in Blood</td><td>4.1</td><td>3.5 - 5.1</td><td></td><td>mmol/L</td></tr></table></div>"
        },
        "status": "final",
        "subject": {
          "reference": "urn:uuid:0b7be5c6-8efb-4850-bbe9-bac1e1833cd9",
          "display": "Victor Lagarde"
        },
        "effectiveDateTime": "2024-01-12T04:48:18Z",
        "specimen": {
          "reference": "urn:uuid:611fa5fa-269a-49c9-abf1-7813d5d05700"
        }
      }
    },
    {
      "fullUrl": "urn:uuid:313c5d25-cd42-4f1f-a361-20030eca2e74",
      "resource": {
        "resourceType": "Observation",
        "id": "313c5d25-cd42-4f1f-a361-20030eca2e74",
        "meta": {
          "profile": [
            "http://hl7.eu/fhir/laboratory/StructureDefinition/Observation-resultslab-eu-lab"
          ]
        },
        "performer": [
          {
            "display": "The Central European Lab"
          }
        ],
        "category": [
          {
            "coding": [
              {
                "system": "http://terminology.hl7.org/CodeSystem/observation-category",
                "code": "laboratory"
              }
            ]
          }
        ],
        "code": {
          "coding": [
            {
              "code": "2069-3",
              "system": "http://loinc.org",
              "display": "Chloride [Moles/volume] in Blood"
            }
          ],
          "text": "Chloride [Moles/volume] in Blood"
        },
        "valueQuantity": {
          "system": "http://unitsofmeasure.org",
          "value": 101.1,
          "unit": "mmol/L",
          "code": "mmol/L"
        },
        "referenceRange": [
          {
            "low": {
              "value": 98,
              "code": "mmol/L",
              "system": "http://unitsofmeasure.org"
            }
          },
          {
            "high": {
              "value": 108,
              "code": "mmol/L",
              "system": "http://unitsofmeasure.org"
            }
          }
        ],
        "text": {
          "status": "generated",
          "div": "<div xmlns=\"http://www.w3.org/1999/xhtml\"><table class=\"hl7__eu__lab__report\"><tr><th>Test</th><th>12-Jan-2024</th><th>Reference&#xA0;Range</th><th>Unit</th></tr><tr><td>Chloride [Moles/volume] in Blood</td><td>101.1</td><td>98 - 108</td><td></td><td>mmol/L</td></tr></table></div>"
        },
        "status": "final",
        "subject": {
          "reference": "urn:uuid:0b7be5c6-8efb-4850-bbe9-bac1e1833cd9",
          "display": "Victor Lagarde"
        },
        "effectiveDateTime": "2024-01-12T04:48:18Z",
        "specimen": {
          "reference": "urn:uuid:611fa5fa-269a-49c9-abf1-7813d5d05700"
        }
      }
    },
    {
      "fullUrl": "urn:uuid:fe5a5c07-1d48-49df-8fc3-bc1d1ec17151",
      "resource": {
        "resourceType": "Observation",
        "id": "fe5a5c07-1d48-49df-8fc3-bc1d1ec17151",
        "meta": {
          "profile": [
            "http://hl7.eu/fhir/laboratory/StructureDefinition/Observation-resultslab-eu-lab"
          ]
        },
        "performer": [
          {
            "display": "The Central European Lab"
          }
        ],
        "category": [
          {
            "coding": [
              {
                "system": "http://terminology.hl7.org/CodeSystem/observation-category",
                "code": "laboratory"
              }
            ]
          }
        ],
        "code": {
          "coding": [
            {
              "code": "20565-8",
              "system": "http://loinc.org",
              "display": "Carbon dioxide, total [Moles/volume] in Blood"
            }
          ],
          "text": "Carbon dioxide, total [Moles/volume] in Blood"
        },
        "valueQuantity": {
          "system": "http://unitsofmeasure.org",
          "value": 21.9,
          "unit": "mmol/L",
          "code": "mmol/L"
        },
        "referenceRange": [
          {
            "low": {
              "value": 22,
              "code": "mmol/L",
              "system": "http://unitsofmeasure.org"
            }
          },
          {
            "high": {
              "value": 29,
              "code": "mmol/L",
              "system": "http://unitsofmeasure.org"
            }
          }
        ],
        "interpretation": [
          {
            "coding": [
              {
                "code": "L",
                "system": "http://terminology.hl7.org/CodeSystem/v3-ObservationInterpretation",
                "display": "Low"
              }
            ]
          }
        ],
        "text": {
          "status": "generated",
          "div": "<div xmlns=\"http://www.w3.org/1999/xhtml\"><table class=\"hl7__eu__lab__report\"><tr><th>Test</th><th>12-Jan-2024</th><th>Reference&#xA0;Range</th><th>Unit</th></tr><tr><td>Carbon dioxide, total [Moles/volume] in Blood</td><td>21.9</td><td>22 - 29</td><td>L</td><td>mmol/L</td></tr></table></div>"
        },
        "status": "final",
        "subject": {
          "reference": "urn:uuid:0b7be5c6-8efb-4850-bbe9-bac1e1833cd9",
          "display": "Victor Lagarde"
        },
        "effectiveDateTime": "2024-01-12T04:48:18Z",
        "specimen": {
          "reference": "urn:uuid:611fa5fa-269a-49c9-abf1-7813d5d05700"
        }
      }
    },
    {
      "fullUrl": "urn:uuid:3ddf999b-1a1b-4b17-a345-1d87bea4af11",
      "resource": {
        "resourceType": "Device",
        "id": "3ddf999b-1a1b-4b17-a345-1d87bea4af11",
        "deviceName": [
          {
            "name": "SYNDERAI Synthetic Generator",
            "type": "manufacturer-name"
          }
        ],
        "version": [
          {
            "value": "5.0"
          }
        ],
        "text": {
          "status": "generated",
          "div": "<div xmlns=\"http://www.w3.org/1999/xhtml\">SYNDERAI Synthetic Generator v5.0</div>"
        },
        "status": "active\"",
        "distinctIdentifier": "synderai-generator-50",
        "manufacturer": "SYNDERAI Project"
      }
    },
    {
      "fullUrl": "urn:uuid:3ae3c403-30b8-460e-b391-36d5f8d866f9",
      "resource": {
        "resourceType": "Provenance",
        "id": "3ae3c403-30b8-460e-b391-36d5f8d866f9",
        "target": [
          {
            "reference": "Patient/0b7be5c6-8efb-4850-bbe9-bac1e1833cd9"
          },
          {
            "reference": "Bundle/36748aea-c76f-4c16-b1d2-e28fcbbc39fa"
          },
          {
            "reference": "Composition/c154ad2f-ad1c-46b3-bf83-e052e8c83c52"
          },
          {
            "reference": "PractitionerRole/2256873f-1d5d-49cb-a7e3-506fb5ee8157"
          },
          {
            "reference": "Practitioner/dbe0cf9b-a04f-4d91-aa7a-a53e2b5e087c"
          },
          {
            "reference": "PractitionerRole/aac6b160-5b16-4685-88e6-9de54f43ede2"
          },
          {
            "reference": "Organization/d0b9ed07-173b-4071-9088-de3350a62ba3"
          }
        ],
        "activity": {
          "text": "Synthetic Example Data Generation"
        },
        "policy": [
          "https://synderai.net/synderai-synthetic-data-policy"
        ],
        "agent": [
          {
            "type": {
              "text": "author"
            },
            "who": {
              "reference": "Device/3ddf999b-1a1b-4b17-a345-1d87bea4af11"
            }
          }
        ],
        "reason": [
          {
            "text": "Interoperability Testing and Training (non-clinical use)"
          }
        ],
        "text": {
          "status": "generated",
          "div": "<div xmlns=\"http://www.w3.org/1999/xhtml\">Provenance for SYNDERAI Synthetic Example Data Resource</div>"
        },
        "recorded": "2024-01-12T05:48:18Z"
      }
    },
    {
      "fullUrl": "urn:uuid:2256873f-1d5d-49cb-a7e3-506fb5ee8157",
      "resource": {
        "resourceType": "PractitionerRole",
        "id": "2256873f-1d5d-49cb-a7e3-506fb5ee8157",
        "meta": {
          "profile": [
            "http://hl7.eu/fhir/base/StructureDefinition/practitionerRole-eu"
          ]
        },
        "text": {
          "status": "generated",
          "div": "<div xmlns=\"http://www.w3.org/1999/xhtml\">Laboratory Role Id: 2256873f-1d5d-49cb-a7e3-506fb5ee8157</div>"
        },
        "practitioner": {
          "reference": "urn:uuid:dbe0cf9b-a04f-4d91-aa7a-a53e2b5e087c"
        }
      }
    },
    {
      "fullUrl": "urn:uuid:dbe0cf9b-a04f-4d91-aa7a-a53e2b5e087c",
      "resource": {
        "resourceType": "Practitioner",
        "id": "dbe0cf9b-a04f-4d91-aa7a-a53e2b5e087c",
        "meta": {
          "profile": [
            "http://hl7.eu/fhir/base/StructureDefinition/practitioner-eu"
          ]
        },
        "identifier": [
          {
            "assigner": {
              "display": "HL7 Europe"
            },
            "system": "urn:oid:2.16.840.1.113883.2.51.999",
            "value": "9fb6645e-8f2c-4b41-a751-02fafcd02f92"
          }
        ],
        "name": [
          {
            "prefix": [
              "dr"
            ],
            "given": [
              "Ex"
            ],
            "family": "Ample"
          }
        ],
        "address": [
          {
            "line": [
              "Laboratoire Central Européenne",
              "Boulevard du Jardin Botanique 32"
            ],
            "postalCode": "1000",
            "city": "Brussels",
            "country": "Belgium"
          }
        ],
        "text": {
          "status": "generated",
          "div": "<div xmlns=\"http://www.w3.org/1999/xhtml\">Laboratory: Laboratoire Central Européenne, 1000 Brussels, Belgium</div>"
        }
      }
    }
  ],
  "type": "document",
  "timestamp": "2024-01-12T05:48:18Z"
}
