{
  "resourceType": "Bundle",
  "id": "b347a1cf-b904-462b-acf2-7daa75c17ea8",
  "meta": {
    "profile": [
      "http://hl7.eu/fhir/laboratory/StructureDefinition/Bundle-eu-lab"
    ]
  },
  "identifier": {
    "assigner": {
      "display": "HL7 Europe"
    },
    "system": "urn:oid:2.16.840.1.113883.2.51.999",
    "value": "50167b10-6f7e-423f-8be0-54b046c83ece"
  },
  "entry": [
    {
      "fullUrl": "urn:uuid:718d4470-4ed6-4fce-97d3-ec70d2bd76a7",
      "resource": {
        "resourceType": "Composition",
        "id": "718d4470-4ed6-4fce-97d3-ec70d2bd76a7",
        "meta": {
          "profile": [
            "http://hl7.eu/fhir/laboratory/StructureDefinition/Composition-eu-lab"
          ]
        },
        "identifier": {
          "assigner": {
            "display": "HL7 Europe"
          },
          "system": "urn:oid:2.16.840.1.113883.2.51.999",
          "value": "39aadecc-3883-4bed-b65e-f55a30cea828"
        },
        "author": [
          {
            "reference": "urn:uuid:a9c41d5a-4523-4442-bb29-c7bb97b31cf8"
          }
        ],
        "category": [
          {
            "coding": [
              {
                "code": "26436-6",
                "system": "http://loinc.org",
                "display": "Laboratory studies (set)"
              }
            ]
          }
        ],
        "type": {
          "coding": [
            {
              "code": "11502-2",
              "system": "http://loinc.org",
              "display": "Laboratory report"
            }
          ],
          "text": "Laboratory Report"
        },
        "section": [
          {
            "code": {
              "coding": [
                {
                  "code": "26436-6",
                  "system": "http://loinc.org",
                  "display": "Laboratory studies (set)"
                }
              ],
              "text": "Laboratory studies"
            },
            "section": [
              {
                "code": {
                  "coding": [
                    {
                      "code": "$18719-5",
                      "system": "http://loinc.org",
                      "display": "Chemistry studies (set)"
                    }
                  ],
                  "text": "Chemistry"
                },
                "entry": [
                  {
                    "reference": "urn:uuid:be424a22-53bc-407f-9a39-6a9e88767ecc"
                  },
                  {
                    "reference": "urn:uuid:72dfd967-7751-40af-8c83-9cdb7f2c9e63"
                  },
                  {
                    "reference": "urn:uuid:f29737e1-0cff-45bd-a484-8b115c63d07a"
                  },
                  {
                    "reference": "urn:uuid:5b459620-e600-46a2-a78e-0829227db2b0"
                  }
                ],
                "text": {
                  "status": "generated",
                  "div": "<div xmlns=\"http://www.w3.org/1999/xhtml\"><h3>Chemistry</h3><table class=\"hl7__eu__lab__report\"><thead><tr><th>Test</th><th>26-MAR-2017</th><th>Reference&#xA0;Range</th><th>Unit</th></tr></thead><tbody><tr><td>Cholesterol [Mass/volume] in Serum or Plasma</td><td><strong>123.6 L</strong></td><td>125 - 200</td><td>mg/dL</td></tr><tr><td>Triglyceride [Mass/volume] in Serum or Plasma</td><td>112.8</td><td>0 - 150</td><td>mg/dL</td></tr><tr><td>Cholesterol in LDL [Mass/volume] in Serum or Plasma by Direct assay</td><td>69.5</td><td>0 - 130</td><td>mg/dL</td></tr><tr><td>Cholesterol in HDL [Mass/volume] in Serum or Plasma</td><td><strong>31.5 L</strong></td><td>40 - 160</td><td>mg/dL</td></tr></tbody></table></div>"
                },
                "title": "Chemistry"
              }
            ],
            "title": "Laboratory Report"
          },
          {
            "text": {
              "status": "generated",
              "div": "<div xmlns=\"http://www.w3.org/1999/xhtml\"><h3>Annotation</h3><table class=\"hl7__eu__lab__report\"><tr><th>Conclusion and Recommendations based on this report and previous findings known to us</th></tr><tr><td>The patient shows mildly decreased total cholesterol and low HDL cholesterol, while LDL and triglycerides are within normal limits. Low HDL is a cardiovascular risk factor despite otherwise favorable lipid values. Consider lifestyle modifications to increase HDL and reassess cardiovascular risk profile. No acute abnormalities detected.</td></tr></table></div>"
            },
            "code": {
              "coding": [
                {
                  "system": "http://loinc.org",
                  "code": "48767-8",
                  "display": "Annotation comment"
                }
              ]
            },
            "title": "Annotation comment"
          }
        ],
        "status": "final",
        "subject": {
          "reference": "urn:uuid:acce1256-a7ea-4bed-81a4-1408f2d9b312",
          "display": "Jason Forster"
        },
        "date": "2017-03-26T12:37:02Z",
        "title": "Laboratory Report",
        "confidentiality": "N"
      }
    },
    {
      "fullUrl": "urn:uuid:a2f3ceb4-b54e-45b5-a46c-92e828662028",
      "resource": {
        "resourceType": "DiagnosticReport",
        "id": "a2f3ceb4-b54e-45b5-a46c-92e828662028",
        "meta": {
          "profile": [
            "http://hl7.eu/fhir/laboratory/StructureDefinition/DiagnosticReport-eu-lab"
          ]
        },
        "identifier": [
          {
            "assigner": {
              "display": "HL7 Europe"
            },
            "system": "urn:oid:2.16.840.1.113883.2.51.999",
            "value": "c1ee1316-a671-4beb-8b1e-3ed69931ff4f"
          }
        ],
        "extension": [
          {
            "url": "http://hl7.org/fhir/5.0/StructureDefinition/extension-DiagnosticReport.composition",
            "valueReference": {
              "reference": "urn:uuid:39aadecc-3883-4bed-b65e-f55a30cea828"
            }
          }
        ],
        "category": [
          {
            "coding": [
              {
                "code": "26436-6",
                "system": "http://loinc.org",
                "display": "Laboratory studies (set)"
              }
            ]
          }
        ],
        "specimen": [
          {
            "reference": "urn:uuid:f41af217-66df-4afb-badf-79115b3c9e26"
          }
        ],
        "result": [
          {
            "reference": "urn:uuid:be424a22-53bc-407f-9a39-6a9e88767ecc"
          },
          {
            "reference": "urn:uuid:72dfd967-7751-40af-8c83-9cdb7f2c9e63"
          },
          {
            "reference": "urn:uuid:f29737e1-0cff-45bd-a484-8b115c63d07a"
          },
          {
            "reference": "urn:uuid:5b459620-e600-46a2-a78e-0829227db2b0"
          }
        ],
        "status": "registered",
        "code": {
          "coding": [
            {
              "code": "11502-2",
              "system": "http://loinc.org",
              "display": "Laboratory report"
            }
          ]
        },
        "subject": {
          "reference": "urn:uuid:acce1256-a7ea-4bed-81a4-1408f2d9b312",
          "display": "Jason Forster"
        }
      }
    },
    {
      "fullUrl": "urn:uuid:acce1256-a7ea-4bed-81a4-1408f2d9b312",
      "resource": {
        "resourceType": "Patient",
        "id": "acce1256-a7ea-4bed-81a4-1408f2d9b312",
        "meta": {
          "security": [
            {
              "system": "http://terminology.hl7.org/CodeSystem/v3-ActReason",
              "code": "HTEST"
            },
            {
              "system": "http://terminology.hl7.org/CodeSystem/v3-ActReason",
              "code": "TRAIN"
            }
          ],
          "tag": [
            {
              "system": "https://synderai.net/fhir/CodeSystem/tags",
              "code": "synthetic",
              "display": "SYNDERAI Synthetic data"
            }
          ],
          "profile": [
            "http://hl7.eu/fhir/base/StructureDefinition/patient-eu-core"
          ]
        },
        "identifier": [
          {
            "type": {
              "coding": [
                {
                  "code": "PT",
                  "system": "http://terminology.hl7.org/CodeSystem/v2-0203"
                }
              ]
            },
            "system": "http://ec.europa.eu/identifier/eci",
            "value": "2238-744377-7"
          },
          {
            "type": {
              "coding": [
                {
                  "code": "MR",
                  "system": "http://terminology.hl7.org/CodeSystem/v2-0203"
                }
              ]
            },
            "system": "http://local.setting.eu/identifier",
            "value": "dc5e9b59-86bb-95c9-eab3-9675ec81c274"
          }
        ],
        "name": [
          {
            "family": "Forster"
          },
          {
            "given": [
              "Jason"
            ]
          },
          {
            "text": "Jason Forster"
          }
        ],
        "address": [
          {
            "line": [
              "437 Martin trail"
            ],
            "use": "home",
            "type": "physical",
            "postalCode": "M20",
            "city": "Heatherville",
            "country": "United Kingdom"
          }
        ],
        "telecom": [
          {
            "system": "phone",
            "value": "01632960273"
          }
        ],
        "extension": [
          {
            "url": "http://hl7.org/fhir/StructureDefinition/patient-nationality",
            "valueCodeableConcept": {
              "coding": [
                {
                  "code": "GB",
                  "system": "http://hl7.org/fhir/ValueSet/country"
                }
              ]
            }
          }
        ],
        "text": {
          "status": "generated",
          "div": "<div xmlns=\"http://www.w3.org/1999/xhtml\"><table class=\"hl7__ips\"><tr><td>Jason Forster</td><td>male</td><td>10-Mar-1983</td></tr></table></div>"
        },
        "gender": "male",
        "birthDate": "1983-03-10"
      }
    },
    {
      "fullUrl": "urn:uuid:b9b6421b-1c7a-40f8-b9c3-fabf5e0ef3ce",
      "resource": {
        "resourceType": "ServiceRequest",
        "id": "b9b6421b-1c7a-40f8-b9c3-fabf5e0ef3ce",
        "meta": {
          "profile": [
            "http://hl7.eu/fhir/laboratory/StructureDefinition/ServiceRequest-eu-lab"
          ]
        },
        "identifier": [
          {
            "system": "http://example.org",
            "value": "4df6cb77-dea9-43af-b852-40a4ae67800d"
          }
        ],
        "specimen": [
          {
            "reference": "urn:uuid:f41af217-66df-4afb-badf-79115b3c9e26"
          }
        ],
        "reasonCode": [
          {
            "coding": [
              {
                "code": "15777000",
                "system": "http://snomed.info/sct",
                "display": "Prediabetes"
              }
            ]
          },
          {
            "coding": [
              {
                "code": "239873007",
                "system": "http://snomed.info/sct",
                "display": "Osteoarthritis of knee"
              }
            ]
          }
        ],
        "status": "active",
        "intent": "order",
        "code": {
          "coding": [
            {
              "code": "108252007",
              "system": "http://snomed.info/sct",
              "display": "Laboratory procedure"
            }
          ]
        },
        "subject": {
          "reference": "urn:uuid:acce1256-a7ea-4bed-81a4-1408f2d9b312",
          "display": "Jason Forster"
        },
        "requester": {
          "reference": "urn:uuid:7b5f9bd7-b4aa-4757-be02-569ecf35b8b8"
        }
      }
    },
    {
      "fullUrl": "urn:uuid:7b5f9bd7-b4aa-4757-be02-569ecf35b8b8",
      "resource": {
        "resourceType": "PractitionerRole",
        "id": "7b5f9bd7-b4aa-4757-be02-569ecf35b8b8",
        "meta": {
          "profile": [
            "http://hl7.eu/fhir/base/StructureDefinition/practitionerRole-eu"
          ]
        },
        "text": {
          "status": "generated",
          "div": "<div xmlns=\"http://www.w3.org/1999/xhtml\">Provider Role Id: 7b5f9bd7-b4aa-4757-be02-569ecf35b8b8</div>"
        },
        "organization": {
          "reference": "urn:uuid:995db2cb-5bb7-484e-af68-d417d073b2d8"
        }
      }
    },
    {
      "fullUrl": "urn:uuid:995db2cb-5bb7-484e-af68-d417d073b2d8",
      "resource": {
        "resourceType": "Organization",
        "id": "995db2cb-5bb7-484e-af68-d417d073b2d8",
        "meta": {
          "profile": [
            "http://hl7.eu/fhir/base/StructureDefinition/organization-eu"
          ]
        },
        "identifier": [
          {
            "assigner": {
              "display": "HL7 Europe"
            },
            "system": "urn:oid:2.16.840.1.113883.2.51.999",
            "value": "0ed1021d-9e3d-4181-af97-fff4e5c60239"
          }
        ],
        "address": [
          {
            "line": [
              "City Road 204"
            ],
            "city": "Manchester",
            "postalCode": "M3 3",
            "country": "United Kingdom"
          }
        ],
        "text": {
          "status": "generated",
          "div": "<div xmlns=\"http://www.w3.org/1999/xhtml\">Provider Organization: Cornbrook Medical Practice</div>"
        },
        "name": "Cornbrook Medical Practice"
      }
    },
    {
      "fullUrl": "urn:uuid:f41af217-66df-4afb-badf-79115b3c9e26",
      "resource": {
        "resourceType": "Specimen",
        "id": "f41af217-66df-4afb-badf-79115b3c9e26",
        "meta": {
          "profile": [
            "http://hl7.eu/fhir/laboratory/StructureDefinition/Specimen-eu-lab"
          ]
        },
        "collection": {
          "collectedDateTime": "2017-03-26"
        },
        "text": {
          "status": "generated",
          "div": "<div xmlns=\"http://www.w3.org/1999/xhtml\"><table class=\"hl7__eu__lab__report\"><tr><th>Specimen</th><th>Collection Date</th></tr><tr><td>Acellular blood (serum or plasma) specimen</td><td><span class=\"nb\">26-Mar-2017</span></td></tr></table></div>"
        },
        "type": {
          "coding": [
            {
              "code": "122592007",
              "system": "http://snomed.info/sct",
              "display": "Acellular blood (serum or plasma) specimen"
            }
          ]
        }
      }
    },
    {
      "fullUrl": "urn:uuid:be424a22-53bc-407f-9a39-6a9e88767ecc",
      "resource": {
        "resourceType": "Observation",
        "id": "be424a22-53bc-407f-9a39-6a9e88767ecc",
        "meta": {
          "profile": [
            "http://hl7.eu/fhir/laboratory/StructureDefinition/Observation-resultslab-eu-lab"
          ]
        },
        "performer": [
          {
            "display": "The Central European Lab"
          }
        ],
        "category": [
          {
            "coding": [
              {
                "system": "http://terminology.hl7.org/CodeSystem/observation-category",
                "code": "laboratory"
              }
            ]
          }
        ],
        "code": {
          "coding": [
            {
              "code": "2093-3",
              "system": "http://loinc.org",
              "display": "Cholesterol [Mass/volume] in Serum or Plasma"
            }
          ],
          "text": "Cholesterol [Mass/volume] in Serum or Plasma"
        },
        "valueQuantity": {
          "system": "http://unitsofmeasure.org",
          "value": 123.6,
          "unit": "mg/dL",
          "code": "mg/dL"
        },
        "referenceRange": [
          {
            "low": {
              "value": 125,
              "code": "mg/dL",
              "system": "http://unitsofmeasure.org"
            }
          },
          {
            "high": {
              "value": 200,
              "code": "mg/dL",
              "system": "http://unitsofmeasure.org"
            }
          }
        ],
        "interpretation": [
          {
            "coding": [
              {
                "code": "L",
                "system": "http://terminology.hl7.org/CodeSystem/v3-ObservationInterpretation",
                "display": "Low"
              }
            ]
          }
        ],
        "text": {
          "status": "generated",
          "div": "<div xmlns=\"http://www.w3.org/1999/xhtml\"><table class=\"hl7__eu__lab__report\"><tr><th>Test</th><th>26-Mar-2017</th><th>Reference&#xA0;Range</th><th>Unit</th></tr><tr><td>Cholesterol [Mass/volume] in Serum or Plasma</td><td>123.6</td><td>125 - 200</td><td>L</td><td>mg/dL</td></tr></table></div>"
        },
        "status": "final",
        "subject": {
          "reference": "urn:uuid:acce1256-a7ea-4bed-81a4-1408f2d9b312",
          "display": "Jason Forster"
        },
        "effectiveDateTime": "2017-03-26T10:37:02Z",
        "specimen": {
          "reference": "urn:uuid:f41af217-66df-4afb-badf-79115b3c9e26"
        }
      }
    },
    {
      "fullUrl": "urn:uuid:72dfd967-7751-40af-8c83-9cdb7f2c9e63",
      "resource": {
        "resourceType": "Observation",
        "id": "72dfd967-7751-40af-8c83-9cdb7f2c9e63",
        "meta": {
          "profile": [
            "http://hl7.eu/fhir/laboratory/StructureDefinition/Observation-resultslab-eu-lab"
          ]
        },
        "performer": [
          {
            "display": "The Central European Lab"
          }
        ],
        "category": [
          {
            "coding": [
              {
                "system": "http://terminology.hl7.org/CodeSystem/observation-category",
                "code": "laboratory"
              }
            ]
          }
        ],
        "code": {
          "coding": [
            {
              "code": "2571-8",
              "system": "http://loinc.org",
              "display": "Triglyceride [Mass/volume] in Serum or Plasma"
            }
          ],
          "text": "Triglyceride [Mass/volume] in Serum or Plasma"
        },
        "valueQuantity": {
          "system": "http://unitsofmeasure.org",
          "value": 112.8,
          "unit": "mg/dL",
          "code": "mg/dL"
        },
        "referenceRange": [
          {
            "low": {
              "value": 0,
              "code": "mg/dL",
              "system": "http://unitsofmeasure.org"
            }
          },
          {
            "high": {
              "value": 150,
              "code": "mg/dL",
              "system": "http://unitsofmeasure.org"
            }
          }
        ],
        "text": {
          "status": "generated",
          "div": "<div xmlns=\"http://www.w3.org/1999/xhtml\"><table class=\"hl7__eu__lab__report\"><tr><th>Test</th><th>26-Mar-2017</th><th>Reference&#xA0;Range</th><th>Unit</th></tr><tr><td>Triglyceride [Mass/volume] in Serum or Plasma</td><td>112.8</td><td>0 - 150</td><td></td><td>mg/dL</td></tr></table></div>"
        },
        "status": "final",
        "subject": {
          "reference": "urn:uuid:acce1256-a7ea-4bed-81a4-1408f2d9b312",
          "display": "Jason Forster"
        },
        "effectiveDateTime": "2017-03-26T10:37:02Z",
        "specimen": {
          "reference": "urn:uuid:f41af217-66df-4afb-badf-79115b3c9e26"
        }
      }
    },
    {
      "fullUrl": "urn:uuid:f29737e1-0cff-45bd-a484-8b115c63d07a",
      "resource": {
        "resourceType": "Observation",
        "id": "f29737e1-0cff-45bd-a484-8b115c63d07a",
        "meta": {
          "profile": [
            "http://hl7.eu/fhir/laboratory/StructureDefinition/Observation-resultslab-eu-lab"
          ]
        },
        "performer": [
          {
            "display": "The Central European Lab"
          }
        ],
        "category": [
          {
            "coding": [
              {
                "system": "http://terminology.hl7.org/CodeSystem/observation-category",
                "code": "laboratory"
              }
            ]
          }
        ],
        "code": {
          "coding": [
            {
              "code": "18262-6",
              "system": "http://loinc.org",
              "display": "Cholesterol in LDL [Mass/volume] in Serum or Plasma by Direct assay"
            }
          ],
          "text": "Cholesterol in LDL [Mass/volume] in Serum or Plasma by Direct assay"
        },
        "valueQuantity": {
          "system": "http://unitsofmeasure.org",
          "value": 69.5,
          "unit": "mg/dL",
          "code": "mg/dL"
        },
        "referenceRange": [
          {
            "low": {
              "value": 0,
              "code": "mg/dL",
              "system": "http://unitsofmeasure.org"
            }
          },
          {
            "high": {
              "value": 130,
              "code": "mg/dL",
              "system": "http://unitsofmeasure.org"
            }
          }
        ],
        "text": {
          "status": "generated",
          "div": "<div xmlns=\"http://www.w3.org/1999/xhtml\"><table class=\"hl7__eu__lab__report\"><tr><th>Test</th><th>26-Mar-2017</th><th>Reference&#xA0;Range</th><th>Unit</th></tr><tr><td>Cholesterol in LDL [Mass/volume] in Serum or Plasma by Direct assay</td><td>69.5</td><td>0 - 130</td><td></td><td>mg/dL</td></tr></table></div>"
        },
        "status": "final",
        "subject": {
          "reference": "urn:uuid:acce1256-a7ea-4bed-81a4-1408f2d9b312",
          "display": "Jason Forster"
        },
        "effectiveDateTime": "2017-03-26T10:37:02Z",
        "specimen": {
          "reference": "urn:uuid:f41af217-66df-4afb-badf-79115b3c9e26"
        }
      }
    },
    {
      "fullUrl": "urn:uuid:5b459620-e600-46a2-a78e-0829227db2b0",
      "resource": {
        "resourceType": "Observation",
        "id": "5b459620-e600-46a2-a78e-0829227db2b0",
        "meta": {
          "profile": [
            "http://hl7.eu/fhir/laboratory/StructureDefinition/Observation-resultslab-eu-lab"
          ]
        },
        "performer": [
          {
            "display": "The Central European Lab"
          }
        ],
        "category": [
          {
            "coding": [
              {
                "system": "http://terminology.hl7.org/CodeSystem/observation-category",
                "code": "laboratory"
              }
            ]
          }
        ],
        "code": {
          "coding": [
            {
              "code": "2085-9",
              "system": "http://loinc.org",
              "display": "Cholesterol in HDL [Mass/volume] in Serum or Plasma"
            }
          ],
          "text": "Cholesterol in HDL [Mass/volume] in Serum or Plasma"
        },
        "valueQuantity": {
          "system": "http://unitsofmeasure.org",
          "value": 31.5,
          "unit": "mg/dL",
          "code": "mg/dL"
        },
        "referenceRange": [
          {
            "low": {
              "value": 40,
              "code": "mg/dL",
              "system": "http://unitsofmeasure.org"
            }
          },
          {
            "high": {
              "value": 160,
              "code": "mg/dL",
              "system": "http://unitsofmeasure.org"
            }
          }
        ],
        "interpretation": [
          {
            "coding": [
              {
                "code": "L",
                "system": "http://terminology.hl7.org/CodeSystem/v3-ObservationInterpretation",
                "display": "Low"
              }
            ]
          }
        ],
        "text": {
          "status": "generated",
          "div": "<div xmlns=\"http://www.w3.org/1999/xhtml\"><table class=\"hl7__eu__lab__report\"><tr><th>Test</th><th>26-Mar-2017</th><th>Reference&#xA0;Range</th><th>Unit</th></tr><tr><td>Cholesterol in HDL [Mass/volume] in Serum or Plasma</td><td>31.5</td><td>40 - 160</td><td>L</td><td>mg/dL</td></tr></table></div>"
        },
        "status": "final",
        "subject": {
          "reference": "urn:uuid:acce1256-a7ea-4bed-81a4-1408f2d9b312",
          "display": "Jason Forster"
        },
        "effectiveDateTime": "2017-03-26T10:37:02Z",
        "specimen": {
          "reference": "urn:uuid:f41af217-66df-4afb-badf-79115b3c9e26"
        }
      }
    },
    {
      "fullUrl": "urn:uuid:1d6ae69e-5c70-43b8-ab4e-c99b07ece84d",
      "resource": {
        "resourceType": "Device",
        "id": "1d6ae69e-5c70-43b8-ab4e-c99b07ece84d",
        "deviceName": [
          {
            "name": "SYNDERAI Synthetic Generator",
            "type": "manufacturer-name"
          }
        ],
        "version": [
          {
            "value": "5.0"
          }
        ],
        "text": {
          "status": "generated",
          "div": "<div xmlns=\"http://www.w3.org/1999/xhtml\">SYNDERAI Synthetic Generator v5.0</div>"
        },
        "status": "active\"",
        "distinctIdentifier": "synderai-generator-50",
        "manufacturer": "SYNDERAI Project"
      }
    },
    {
      "fullUrl": "urn:uuid:6a2123e7-e2b2-43dd-a5f4-6d289bf8889f",
      "resource": {
        "resourceType": "Provenance",
        "id": "6a2123e7-e2b2-43dd-a5f4-6d289bf8889f",
        "target": [
          {
            "reference": "Patient/acce1256-a7ea-4bed-81a4-1408f2d9b312"
          },
          {
            "reference": "Bundle/b347a1cf-b904-462b-acf2-7daa75c17ea8"
          },
          {
            "reference": "Composition/718d4470-4ed6-4fce-97d3-ec70d2bd76a7"
          },
          {
            "reference": "PractitionerRole/a9c41d5a-4523-4442-bb29-c7bb97b31cf8"
          },
          {
            "reference": "Practitioner/226c2bca-3af8-415a-a5cd-b92a0113a241"
          },
          {
            "reference": "PractitionerRole/7b5f9bd7-b4aa-4757-be02-569ecf35b8b8"
          },
          {
            "reference": "Organization/995db2cb-5bb7-484e-af68-d417d073b2d8"
          }
        ],
        "activity": {
          "text": "Synthetic Example Data Generation"
        },
        "policy": [
          "https://synderai.net/synderai-synthetic-data-policy"
        ],
        "agent": [
          {
            "type": {
              "text": "author"
            },
            "who": {
              "reference": "Device/1d6ae69e-5c70-43b8-ab4e-c99b07ece84d"
            }
          }
        ],
        "reason": [
          {
            "text": "Interoperability Testing and Training (non-clinical use)"
          }
        ],
        "text": {
          "status": "generated",
          "div": "<div xmlns=\"http://www.w3.org/1999/xhtml\">Provenance for SYNDERAI Synthetic Example Data Resource</div>"
        },
        "recorded": "2017-03-26T12:37:02Z"
      }
    },
    {
      "fullUrl": "urn:uuid:a9c41d5a-4523-4442-bb29-c7bb97b31cf8",
      "resource": {
        "resourceType": "PractitionerRole",
        "id": "a9c41d5a-4523-4442-bb29-c7bb97b31cf8",
        "meta": {
          "profile": [
            "http://hl7.eu/fhir/base/StructureDefinition/practitionerRole-eu"
          ]
        },
        "text": {
          "status": "generated",
          "div": "<div xmlns=\"http://www.w3.org/1999/xhtml\">Laboratory Role Id: a9c41d5a-4523-4442-bb29-c7bb97b31cf8</div>"
        },
        "practitioner": {
          "reference": "urn:uuid:226c2bca-3af8-415a-a5cd-b92a0113a241"
        }
      }
    },
    {
      "fullUrl": "urn:uuid:226c2bca-3af8-415a-a5cd-b92a0113a241",
      "resource": {
        "resourceType": "Practitioner",
        "id": "226c2bca-3af8-415a-a5cd-b92a0113a241",
        "meta": {
          "profile": [
            "http://hl7.eu/fhir/base/StructureDefinition/practitioner-eu"
          ]
        },
        "identifier": [
          {
            "assigner": {
              "display": "HL7 Europe"
            },
            "system": "urn:oid:2.16.840.1.113883.2.51.999",
            "value": "0a1e2a33-589a-44fb-82c6-2b0653f35a96"
          }
        ],
        "name": [
          {
            "prefix": [
              "dr"
            ],
            "given": [
              "Ex"
            ],
            "family": "Ample"
          }
        ],
        "address": [
          {
            "line": [
              "Laboratoire Central Européenne",
              "Boulevard du Jardin Botanique 32"
            ],
            "postalCode": "1000",
            "city": "Brussels",
            "country": "Belgium"
          }
        ],
        "text": {
          "status": "generated",
          "div": "<div xmlns=\"http://www.w3.org/1999/xhtml\">Laboratory: Laboratoire Central Européenne, 1000 Brussels, Belgium</div>"
        }
      }
    }
  ],
  "type": "document",
  "timestamp": "2017-03-26T12:37:02Z"
}
