{
  "resourceType": "Bundle",
  "id": "a95fb321-5138-40bc-8427-3a60fa51dbd6",
  "meta": {
    "profile": [
      "http://hl7.eu/fhir/laboratory/StructureDefinition/Bundle-eu-lab"
    ]
  },
  "identifier": {
    "assigner": {
      "display": "HL7 Europe"
    },
    "system": "urn:oid:2.16.840.1.113883.2.51.999",
    "value": "aaf31252-ba07-4d2d-9ba5-1585d01544d1"
  },
  "entry": [
    {
      "fullUrl": "urn:uuid:d65eefab-0f6f-4933-8ebb-c12c4da3c37e",
      "resource": {
        "resourceType": "Composition",
        "id": "d65eefab-0f6f-4933-8ebb-c12c4da3c37e",
        "meta": {
          "profile": [
            "http://hl7.eu/fhir/laboratory/StructureDefinition/Composition-eu-lab"
          ]
        },
        "identifier": {
          "assigner": {
            "display": "HL7 Europe"
          },
          "system": "urn:oid:2.16.840.1.113883.2.51.999",
          "value": "b21ee253-7999-49cc-87a2-1de6c2b4b287"
        },
        "author": [
          {
            "reference": "urn:uuid:744194a2-f6db-49fa-81e4-a7a2732f6413"
          }
        ],
        "category": [
          {
            "coding": [
              {
                "code": "26436-6",
                "system": "http://loinc.org",
                "display": "Laboratory studies (set)"
              }
            ]
          }
        ],
        "type": {
          "coding": [
            {
              "code": "11502-2",
              "system": "http://loinc.org",
              "display": "Laboratory report"
            }
          ],
          "text": "Laboratory Report"
        },
        "section": [
          {
            "code": {
              "coding": [
                {
                  "code": "26436-6",
                  "system": "http://loinc.org",
                  "display": "Laboratory studies (set)"
                }
              ],
              "text": "Laboratory studies"
            },
            "section": [
              {
                "code": {
                  "coding": [
                    {
                      "code": "$18719-5",
                      "system": "http://loinc.org",
                      "display": "Chemistry studies (set)"
                    }
                  ],
                  "text": "Chemistry"
                },
                "entry": [
                  {
                    "reference": "urn:uuid:7f1853cb-f6a7-49e4-be78-c92724384e9d"
                  },
                  {
                    "reference": "urn:uuid:d7bc9925-0d30-4cbb-b8fd-f9b475c39513"
                  },
                  {
                    "reference": "urn:uuid:3f27193f-5ea3-4138-88b9-6716fafcca14"
                  },
                  {
                    "reference": "urn:uuid:b533ecbf-df99-4314-a69f-9d6cb4a8fb35"
                  },
                  {
                    "reference": "urn:uuid:540b7095-9c31-421e-a19a-71ddb09ff1fc"
                  },
                  {
                    "reference": "urn:uuid:a2fc8b6c-a393-4ba8-bdd5-e5a780d3605a"
                  },
                  {
                    "reference": "urn:uuid:86b93e3c-6642-40d8-bec8-86f0af882cee"
                  },
                  {
                    "reference": "urn:uuid:e9eeb7c3-605d-4b92-bf4c-ea68bb84a7f3"
                  },
                  {
                    "reference": "urn:uuid:07ec4554-0d04-48f5-966c-20584c6ed7b1"
                  },
                  {
                    "reference": "urn:uuid:e06ea68c-36dd-4216-bc92-f2df8b4cf2dc"
                  },
                  {
                    "reference": "urn:uuid:ec350480-0269-45c1-b322-e8bf73bfb0ca"
                  },
                  {
                    "reference": "urn:uuid:5478f58e-a423-475c-96b8-bca6f1d50bc8"
                  },
                  {
                    "reference": "urn:uuid:dc3d1767-9c4d-4b2a-ba4a-6dd69718b34e"
                  },
                  {
                    "reference": "urn:uuid:f12dd0f3-6c99-4d62-9321-ecbf256546b8"
                  },
                  {
                    "reference": "urn:uuid:813f8f41-b325-46a3-bd35-02d58cf1d6f5"
                  },
                  {
                    "reference": "urn:uuid:149a69a3-03bf-4ed1-8e7f-47b321252575"
                  },
                  {
                    "reference": "urn:uuid:a1bf5dcd-7b8e-4f6b-b05b-43195c68c2fe"
                  },
                  {
                    "reference": "urn:uuid:fdd97ab4-f73d-4587-b679-9ee5ea5f2867"
                  }
                ],
                "text": {
                  "status": "generated",
                  "div": "<div xmlns=\"http://www.w3.org/1999/xhtml\"><h3>Chemistry</h3><table class=\"hl7__eu__lab__report\"><thead><tr><th>Test</th><th>17-JUL-2025</th><th>Reference&#xA0;Range</th><th>Unit</th></tr></thead><tbody><tr><td>Glucose [Mass/volume] in Serum or Plasma</td><td>94.5</td><td>70 - 140</td><td>mg/dL</td></tr><tr><td>Urea nitrogen [Mass/volume] in Serum or Plasma</td><td>13.5</td><td>7 - 25</td><td>mg/dL</td></tr><tr><td>Creatinine [Mass/volume] in Serum or Plasma</td><td><strong>2.1 H</strong></td><td>0.9 - 1.3</td><td>mg/dL</td></tr><tr><td>Calcium [Mass/volume] in Serum or Plasma</td><td>9.0</td><td>8.5 - 10.5</td><td>mg/dL</td></tr><tr><td>Sodium [Moles/volume] in Serum or Plasma</td><td>136.4</td><td>135 - 145</td><td>mmol/L</td></tr><tr><td>Potassium [Moles/volume] in Serum or Plasma</td><td>4.5</td><td>3.5 - 5.3</td><td>mmol/L</td></tr><tr><td>Chloride [Moles/volume] in Serum or Plasma</td><td><strong>107.5 H</strong></td><td>98 - 107</td><td>mmol/L</td></tr><tr><td>Carbon dioxide, total [Moles/volume] in Serum or Plasma</td><td>26.9</td><td>22 - 29</td><td>mmol/L</td></tr><tr><td>Ketones [Presence] in Urine by Test strip</td><td>Urine ketone test = +</td><td></td><td></td></tr><tr><td>Hemoglobin A1c/Hemoglobin.total in Blood</td><td><strong>3.1 L</strong></td><td>4.5 - 6.4</td><td>%</td></tr><tr><td>Glucose [Mass/volume] in Blood</td><td>94.5</td><td>70 - 140</td><td>mg/dL</td></tr><tr><td>Urea nitrogen [Mass/volume] in Blood</td><td>13.5</td><td>7 - 25</td><td>mg/dL</td></tr><tr><td>Creatinine [Mass/volume] in Blood</td><td><strong>1.5 H</strong></td><td>0.9 - 1.3</td><td>mg/dL</td></tr><tr><td>Calcium [Mass/volume] in Blood</td><td>9.0</td><td>8.6 - 10.2</td><td>mg/dL</td></tr><tr><td>Sodium [Moles/volume] in Blood</td><td>136.4</td><td>135 - 145</td><td>mmol/L</td></tr><tr><td>Potassium [Moles/volume] in Blood</td><td>4.5</td><td>3.5 - 5.1</td><td>mmol/L</td></tr><tr><td>Chloride [Moles/volume] in Blood</td><td>107.5</td><td>98 - 108</td><td>mmol/L</td></tr><tr><td>Carbon dioxide, total [Moles/volume] in Blood</td><td>26.9</td><td>22 - 32</td><td>mmol/L</td></tr></tbody></table></div>"
                },
                "title": "Chemistry"
              },
              {
                "code": {
                  "coding": [
                    {
                      "code": "$18729-4",
                      "system": "http://loinc.org",
                      "display": "Urinalysis studies (set)"
                    }
                  ],
                  "text": "Urinalysis"
                },
                "entry": [
                  {
                    "reference": "urn:uuid:0d365f88-dffc-49d0-8c48-c225b1656e05"
                  },
                  {
                    "reference": "urn:uuid:cc2f5372-b557-4856-be19-3de18b4f18d4"
                  },
                  {
                    "reference": "urn:uuid:67a98341-dff7-4433-a76e-2a8186658afc"
                  },
                  {
                    "reference": "urn:uuid:3d91ed8f-a521-440d-8c5f-189005a0112a"
                  },
                  {
                    "reference": "urn:uuid:dfb072a3-1d93-4bec-93bb-12a8b61ff213"
                  },
                  {
                    "reference": "urn:uuid:0d3acdbb-ee9b-4681-8696-9ef97a0e5e22"
                  },
                  {
                    "reference": "urn:uuid:18476b9e-1124-44e6-89af-55ad7b5e0acf"
                  },
                  {
                    "reference": "urn:uuid:472af3f4-07bd-4180-95c3-10b2e8cb6c7b"
                  },
                  {
                    "reference": "urn:uuid:8c588916-d0eb-47d5-bfbc-18cf8f91a0c4"
                  },
                  {
                    "reference": "urn:uuid:f331d2b0-74ad-47f1-a2c9-0aae52e136d2"
                  },
                  {
                    "reference": "urn:uuid:f152d03e-6caf-4b99-b84f-a7d9a2bbd9fc"
                  },
                  {
                    "reference": "urn:uuid:c5ce4ba4-77c9-4c94-af93-88326048846f"
                  }
                ],
                "text": {
                  "status": "generated",
                  "div": "<div xmlns=\"http://www.w3.org/1999/xhtml\"><h3>Urinalysis</h3><table class=\"hl7__eu__lab__report\"><thead><tr><th>Test</th><th>17-JUL-2025</th><th>Reference&#xA0;Range</th><th>Unit</th></tr></thead><tbody><tr><td>Glucose [Mass/volume] in Urine by Test strip</td><td><strong>2.2 H</strong></td><td>0.8 - 0</td><td>mg/dL</td></tr><tr><td>Glucose [Presence] in Urine by Test strip</td><td>++</td><td></td><td></td></tr><tr><td>Bilirubin.total [Mass/volume] in Urine by Test strip</td><td>1.0</td><td>0.2 - 1.5</td><td>mg/dL</td></tr><tr><td>Bilirubin.total [Presence] in Urine by Test strip</td><td>Finding of bilirubin in urine</td><td></td><td></td></tr><tr><td>Ketones [Mass/volume] in Urine by Test strip</td><td><strong>5.9 H</strong></td><td>0 - 4</td><td>mg/dL</td></tr><tr><td>Specific gravity of Urine by Test strip</td><td><strong>1.0 L</strong></td><td>1.01 - 1.03</td><td>{nominal}</td></tr><tr><td>pH of Urine by Test strip</td><td>5.9</td><td>4.5 - 7.5</td><td>pH</td></tr><tr><td>Protein [Mass/volume] in Urine by Test strip</td><td><strong>152.2 H</strong></td><td>0 - 150</td><td>mg/dL</td></tr><tr><td>Protein [Presence] in Urine by Test strip</td><td>Urine protein test = ++</td><td></td><td></td></tr><tr><td>Nitrite [Presence] in Urine by Test strip</td><td>Urine nitrite negative</td><td></td><td></td></tr><tr><td>Hemoglobin [Presence] in Urine by Test strip</td><td>Urine blood test = negative</td><td></td><td></td></tr><tr><td>Leukocyte esterase [Presence] in Urine by Test strip</td><td>Urine leukocyte test negative</td><td></td><td></td></tr></tbody></table></div>"
                },
                "title": "Urinalysis"
              },
              {
                "code": {
                  "coding": [
                    {
                      "code": "$LP7846-1",
                      "system": "http://loinc.org",
                      "display": "Specimen information"
                    }
                  ],
                  "text": "Specimen information"
                },
                "entry": [
                  {
                    "reference": "urn:uuid:d243c8bf-799d-4060-8e57-6d9686207680"
                  },
                  {
                    "reference": "urn:uuid:b96aab39-15c2-4ece-b2a3-eecddca83265"
                  },
                  {
                    "reference": "urn:uuid:6d3dd858-e718-4c13-a177-44e69d4836f2"
                  },
                  {
                    "reference": "urn:uuid:bfe62bc2-6831-4f1a-99d0-929785e9ea6c"
                  }
                ],
                "text": {
                  "status": "generated",
                  "div": "<div xmlns=\"http://www.w3.org/1999/xhtml\"><h3>Specimen information</h3><table class=\"hl7__eu__lab__report\"><thead><tr><th>Test</th><th>17-JUL-2025</th><th>Specimen</th><th></th></tr></thead><tbody><tr><td>Appearance of Urine</td><td>Cloudy urine</td><td>Urine</td><td></td></tr><tr><td>Odor of Urine</td><td>Urine smell ammoniacal</td><td>Urine</td><td></td></tr><tr><td>Clarity of Urine</td><td>Translucent</td><td>Urine</td><td></td></tr><tr><td>Color of Urine</td><td>Brown color</td><td>Urine</td><td></td></tr></tbody></table></div>"
                },
                "title": "Specimen information"
              }
            ],
            "title": "Laboratory Report"
          },
          {
            "text": {
              "status": "generated",
              "div": "<div xmlns=\"http://www.w3.org/1999/xhtml\"><h3>Annotation</h3><table class=\"hl7__eu__lab__report\"><tr><th>Conclusion and Recommendations based on this report and previous findings known to us</th></tr><tr><td>The patient shows mildly elevated creatinine, suggesting possible renal impairment, and low urine specific gravity, which may indicate impaired concentrating ability. Urinalysis reveals proteinuria, glycosuria, and ketonuria, with abnormal urine appearance and color, but no evidence of infection. HbA1c is unexpectedly low despite glycosuria, possibly due to analytical or clinical factors. Overall, findings suggest renal dysfunction with possible tubular involvement; clinical correlation and further nephrological and diabetic assessment are recommended.</td></tr></table></div>"
            },
            "code": {
              "coding": [
                {
                  "system": "http://loinc.org",
                  "code": "48767-8",
                  "display": "Annotation comment"
                }
              ]
            },
            "title": "Annotation comment"
          }
        ],
        "status": "final",
        "subject": {
          "reference": "urn:uuid:ae5576de-1095-423e-9201-f95fd8c77567",
          "display": "Pelayo Casal"
        },
        "date": "2025-07-17T07:38:59Z",
        "title": "Laboratory Report",
        "confidentiality": "N"
      }
    },
    {
      "fullUrl": "urn:uuid:30c6c593-8476-4f9c-afdf-024b6363c15d",
      "resource": {
        "resourceType": "DiagnosticReport",
        "id": "30c6c593-8476-4f9c-afdf-024b6363c15d",
        "meta": {
          "profile": [
            "http://hl7.eu/fhir/laboratory/StructureDefinition/DiagnosticReport-eu-lab"
          ]
        },
        "identifier": [
          {
            "assigner": {
              "display": "HL7 Europe"
            },
            "system": "urn:oid:2.16.840.1.113883.2.51.999",
            "value": "9249c040-7090-4ac7-b5b3-72a64c04bd8a"
          }
        ],
        "extension": [
          {
            "url": "http://hl7.org/fhir/5.0/StructureDefinition/extension-DiagnosticReport.composition",
            "valueReference": {
              "reference": "urn:uuid:b21ee253-7999-49cc-87a2-1de6c2b4b287"
            }
          }
        ],
        "category": [
          {
            "coding": [
              {
                "code": "26436-6",
                "system": "http://loinc.org",
                "display": "Laboratory studies (set)"
              }
            ]
          }
        ],
        "specimen": [
          {
            "reference": "urn:uuid:a1ee1322-9a14-4050-8a61-657bcb9e3d13"
          },
          {
            "reference": "urn:uuid:c3378f4d-488d-42f7-97a6-80c391f1aa9e"
          },
          {
            "reference": "urn:uuid:07679ba4-b4d2-4c88-bbce-434b9689b85c"
          }
        ],
        "result": [
          {
            "reference": "urn:uuid:7f1853cb-f6a7-49e4-be78-c92724384e9d"
          },
          {
            "reference": "urn:uuid:d7bc9925-0d30-4cbb-b8fd-f9b475c39513"
          },
          {
            "reference": "urn:uuid:3f27193f-5ea3-4138-88b9-6716fafcca14"
          },
          {
            "reference": "urn:uuid:b533ecbf-df99-4314-a69f-9d6cb4a8fb35"
          },
          {
            "reference": "urn:uuid:540b7095-9c31-421e-a19a-71ddb09ff1fc"
          },
          {
            "reference": "urn:uuid:a2fc8b6c-a393-4ba8-bdd5-e5a780d3605a"
          },
          {
            "reference": "urn:uuid:86b93e3c-6642-40d8-bec8-86f0af882cee"
          },
          {
            "reference": "urn:uuid:e9eeb7c3-605d-4b92-bf4c-ea68bb84a7f3"
          },
          {
            "reference": "urn:uuid:d243c8bf-799d-4060-8e57-6d9686207680"
          },
          {
            "reference": "urn:uuid:b96aab39-15c2-4ece-b2a3-eecddca83265"
          },
          {
            "reference": "urn:uuid:6d3dd858-e718-4c13-a177-44e69d4836f2"
          },
          {
            "reference": "urn:uuid:bfe62bc2-6831-4f1a-99d0-929785e9ea6c"
          },
          {
            "reference": "urn:uuid:0d365f88-dffc-49d0-8c48-c225b1656e05"
          },
          {
            "reference": "urn:uuid:cc2f5372-b557-4856-be19-3de18b4f18d4"
          },
          {
            "reference": "urn:uuid:67a98341-dff7-4433-a76e-2a8186658afc"
          },
          {
            "reference": "urn:uuid:3d91ed8f-a521-440d-8c5f-189005a0112a"
          },
          {
            "reference": "urn:uuid:dfb072a3-1d93-4bec-93bb-12a8b61ff213"
          },
          {
            "reference": "urn:uuid:07ec4554-0d04-48f5-966c-20584c6ed7b1"
          },
          {
            "reference": "urn:uuid:0d3acdbb-ee9b-4681-8696-9ef97a0e5e22"
          },
          {
            "reference": "urn:uuid:18476b9e-1124-44e6-89af-55ad7b5e0acf"
          },
          {
            "reference": "urn:uuid:472af3f4-07bd-4180-95c3-10b2e8cb6c7b"
          },
          {
            "reference": "urn:uuid:8c588916-d0eb-47d5-bfbc-18cf8f91a0c4"
          },
          {
            "reference": "urn:uuid:f331d2b0-74ad-47f1-a2c9-0aae52e136d2"
          },
          {
            "reference": "urn:uuid:f152d03e-6caf-4b99-b84f-a7d9a2bbd9fc"
          },
          {
            "reference": "urn:uuid:c5ce4ba4-77c9-4c94-af93-88326048846f"
          },
          {
            "reference": "urn:uuid:e06ea68c-36dd-4216-bc92-f2df8b4cf2dc"
          },
          {
            "reference": "urn:uuid:ec350480-0269-45c1-b322-e8bf73bfb0ca"
          },
          {
            "reference": "urn:uuid:5478f58e-a423-475c-96b8-bca6f1d50bc8"
          },
          {
            "reference": "urn:uuid:dc3d1767-9c4d-4b2a-ba4a-6dd69718b34e"
          },
          {
            "reference": "urn:uuid:f12dd0f3-6c99-4d62-9321-ecbf256546b8"
          },
          {
            "reference": "urn:uuid:813f8f41-b325-46a3-bd35-02d58cf1d6f5"
          },
          {
            "reference": "urn:uuid:149a69a3-03bf-4ed1-8e7f-47b321252575"
          },
          {
            "reference": "urn:uuid:a1bf5dcd-7b8e-4f6b-b05b-43195c68c2fe"
          },
          {
            "reference": "urn:uuid:fdd97ab4-f73d-4587-b679-9ee5ea5f2867"
          }
        ],
        "status": "registered",
        "code": {
          "coding": [
            {
              "code": "11502-2",
              "system": "http://loinc.org",
              "display": "Laboratory report"
            }
          ]
        },
        "subject": {
          "reference": "urn:uuid:ae5576de-1095-423e-9201-f95fd8c77567",
          "display": "Pelayo Casal"
        }
      }
    },
    {
      "fullUrl": "urn:uuid:ae5576de-1095-423e-9201-f95fd8c77567",
      "resource": {
        "resourceType": "Patient",
        "id": "ae5576de-1095-423e-9201-f95fd8c77567",
        "meta": {
          "security": [
            {
              "system": "http://terminology.hl7.org/CodeSystem/v3-ActReason",
              "code": "HTEST"
            },
            {
              "system": "http://terminology.hl7.org/CodeSystem/v3-ActReason",
              "code": "TRAIN"
            }
          ],
          "tag": [
            {
              "system": "https://synderai.net/fhir/CodeSystem/tags",
              "code": "synthetic",
              "display": "SYNDERAI Synthetic data"
            }
          ],
          "profile": [
            "http://hl7.eu/fhir/base/StructureDefinition/patient-eu-core"
          ]
        },
        "identifier": [
          {
            "type": {
              "coding": [
                {
                  "code": "PT",
                  "system": "http://terminology.hl7.org/CodeSystem/v2-0203"
                }
              ]
            },
            "system": "http://ec.europa.eu/identifier/eci",
            "value": "7707-510028-7"
          },
          {
            "type": {
              "coding": [
                {
                  "code": "MR",
                  "system": "http://terminology.hl7.org/CodeSystem/v2-0203"
                }
              ]
            },
            "system": "http://local.setting.eu/identifier",
            "value": "d88e82c6-df33-82d2-8538-f8b57da06491"
          }
        ],
        "name": [
          {
            "family": "Casal"
          },
          {
            "given": [
              "Pelayo"
            ]
          },
          {
            "text": "Pelayo Casal"
          }
        ],
        "address": [
          {
            "line": [
              "Callejón de Ignacio Pedrosa 67 Apt. 68 "
            ],
            "use": "home",
            "type": "physical",
            "postalCode": "35001",
            "city": "Las Palmas",
            "country": "Spain"
          }
        ],
        "telecom": [
          {
            "system": "phone",
            "value": "+34 875724898"
          }
        ],
        "extension": [
          {
            "url": "http://hl7.org/fhir/StructureDefinition/patient-nationality",
            "valueCodeableConcept": {
              "coding": [
                {
                  "code": "ES",
                  "system": "http://hl7.org/fhir/ValueSet/country"
                }
              ]
            }
          }
        ],
        "text": {
          "status": "generated",
          "div": "<div xmlns=\"http://www.w3.org/1999/xhtml\"><table class=\"hl7__ips\"><tr><td>Pelayo Casal</td><td>male</td><td>19-Apr-1940</td></tr></table></div>"
        },
        "gender": "male",
        "birthDate": "1940-04-19"
      }
    },
    {
      "fullUrl": "urn:uuid:712d363e-a633-4b22-a13b-ea5874f704c9",
      "resource": {
        "resourceType": "ServiceRequest",
        "id": "712d363e-a633-4b22-a13b-ea5874f704c9",
        "meta": {
          "profile": [
            "http://hl7.eu/fhir/laboratory/StructureDefinition/ServiceRequest-eu-lab"
          ]
        },
        "identifier": [
          {
            "system": "http://example.org",
            "value": "6536f9d7-ae3d-4348-9cf8-ed5dbaef62f3"
          }
        ],
        "specimen": [
          {
            "reference": "urn:uuid:a1ee1322-9a14-4050-8a61-657bcb9e3d13"
          },
          {
            "reference": "urn:uuid:c3378f4d-488d-42f7-97a6-80c391f1aa9e"
          },
          {
            "reference": "urn:uuid:07679ba4-b4d2-4c88-bbce-434b9689b85c"
          }
        ],
        "reasonCode": [
          {
            "coding": [
              {
                "code": "431856006",
                "system": "http://snomed.info/sct",
                "display": "Chronic kidney disease stage 2"
              }
            ]
          },
          {
            "coding": [
              {
                "code": "90781000119102",
                "system": "http://snomed.info/sct",
                "display": "Microalbuminuria due to type 2 diabetes mellitus"
              }
            ]
          },
          {
            "coding": [
              {
                "code": "127013003",
                "system": "http://snomed.info/sct",
                "display": "Disorder of kidney due to diabetes mellitus"
              }
            ]
          },
          {
            "coding": [
              {
                "code": "431855005",
                "system": "http://snomed.info/sct",
                "display": "Chronic kidney disease stage 1"
              }
            ]
          },
          {
            "coding": [
              {
                "code": "64859006",
                "system": "http://snomed.info/sct",
                "display": "Osteoporosis"
              }
            ]
          },
          {
            "coding": [
              {
                "code": "414545008",
                "system": "http://snomed.info/sct",
                "display": "Ischemic heart disease"
              }
            ]
          },
          {
            "coding": [
              {
                "code": "237602007",
                "system": "http://snomed.info/sct",
                "display": "Metabolic syndrome X"
              }
            ]
          },
          {
            "coding": [
              {
                "code": "59621000",
                "system": "http://snomed.info/sct",
                "display": "Essential hypertension"
              }
            ]
          },
          {
            "coding": [
              {
                "code": "271737000",
                "system": "http://snomed.info/sct",
                "display": "Anemia"
              }
            ]
          },
          {
            "coding": [
              {
                "code": "15777000",
                "system": "http://snomed.info/sct",
                "display": "Prediabetes"
              }
            ]
          }
        ],
        "status": "active",
        "intent": "order",
        "code": {
          "coding": [
            {
              "code": "108252007",
              "system": "http://snomed.info/sct",
              "display": "Laboratory procedure"
            }
          ]
        },
        "subject": {
          "reference": "urn:uuid:ae5576de-1095-423e-9201-f95fd8c77567",
          "display": "Pelayo Casal"
        },
        "requester": {
          "reference": "urn:uuid:f02cee87-1018-4362-b34f-bb3959cfe28d"
        }
      }
    },
    {
      "fullUrl": "urn:uuid:f02cee87-1018-4362-b34f-bb3959cfe28d",
      "resource": {
        "resourceType": "PractitionerRole",
        "id": "f02cee87-1018-4362-b34f-bb3959cfe28d",
        "meta": {
          "profile": [
            "http://hl7.eu/fhir/base/StructureDefinition/practitionerRole-eu"
          ]
        },
        "text": {
          "status": "generated",
          "div": "<div xmlns=\"http://www.w3.org/1999/xhtml\">Provider Role Id: f02cee87-1018-4362-b34f-bb3959cfe28d</div>"
        },
        "organization": {
          "reference": "urn:uuid:f001de3c-f9d1-4e3f-a2a3-c0b9ab79221d"
        }
      }
    },
    {
      "fullUrl": "urn:uuid:f001de3c-f9d1-4e3f-a2a3-c0b9ab79221d",
      "resource": {
        "resourceType": "Organization",
        "id": "f001de3c-f9d1-4e3f-a2a3-c0b9ab79221d",
        "meta": {
          "profile": [
            "http://hl7.eu/fhir/base/StructureDefinition/organization-eu"
          ]
        },
        "identifier": [
          {
            "assigner": {
              "display": "HL7 Europe"
            },
            "system": "urn:oid:2.16.840.1.113883.2.51.999",
            "value": "3a7831ab-65aa-4367-99a2-1dacac3e16a0"
          }
        ],
        "address": [
          {
            "country": "Spain"
          }
        ],
        "text": {
          "status": "generated",
          "div": "<div xmlns=\"http://www.w3.org/1999/xhtml\">Provider Organization: Centro de Salud de Guanarteme</div>"
        },
        "name": "Centro de Salud de Guanarteme"
      }
    },
    {
      "fullUrl": "urn:uuid:a1ee1322-9a14-4050-8a61-657bcb9e3d13",
      "resource": {
        "resourceType": "Specimen",
        "id": "a1ee1322-9a14-4050-8a61-657bcb9e3d13",
        "meta": {
          "profile": [
            "http://hl7.eu/fhir/laboratory/StructureDefinition/Specimen-eu-lab"
          ]
        },
        "collection": {
          "collectedDateTime": "2025-07-17"
        },
        "text": {
          "status": "generated",
          "div": "<div xmlns=\"http://www.w3.org/1999/xhtml\"><table class=\"hl7__eu__lab__report\"><tr><th>Specimen</th><th>Collection Date</th></tr><tr><td>Acellular blood (serum or plasma) specimen</td><td><span class=\"nb\">17-Jul-2025</span></td></tr></table></div>"
        },
        "type": {
          "coding": [
            {
              "code": "122592007",
              "system": "http://snomed.info/sct",
              "display": "Acellular blood (serum or plasma) specimen"
            }
          ]
        }
      }
    },
    {
      "fullUrl": "urn:uuid:c3378f4d-488d-42f7-97a6-80c391f1aa9e",
      "resource": {
        "resourceType": "Specimen",
        "id": "c3378f4d-488d-42f7-97a6-80c391f1aa9e",
        "meta": {
          "profile": [
            "http://hl7.eu/fhir/laboratory/StructureDefinition/Specimen-eu-lab"
          ]
        },
        "collection": {
          "collectedDateTime": "2025-07-17"
        },
        "text": {
          "status": "generated",
          "div": "<div xmlns=\"http://www.w3.org/1999/xhtml\"><table class=\"hl7__eu__lab__report\"><tr><th>Specimen</th><th>Collection Date</th></tr><tr><td>Urine specimen</td><td><span class=\"nb\">17-Jul-2025</span></td></tr></table></div>"
        },
        "type": {
          "coding": [
            {
              "code": "122575003",
              "system": "http://snomed.info/sct",
              "display": "Urine specimen"
            }
          ]
        }
      }
    },
    {
      "fullUrl": "urn:uuid:07679ba4-b4d2-4c88-bbce-434b9689b85c",
      "resource": {
        "resourceType": "Specimen",
        "id": "07679ba4-b4d2-4c88-bbce-434b9689b85c",
        "meta": {
          "profile": [
            "http://hl7.eu/fhir/laboratory/StructureDefinition/Specimen-eu-lab"
          ]
        },
        "collection": {
          "collectedDateTime": "2025-07-17"
        },
        "text": {
          "status": "generated",
          "div": "<div xmlns=\"http://www.w3.org/1999/xhtml\"><table class=\"hl7__eu__lab__report\"><tr><th>Specimen</th><th>Collection Date</th></tr><tr><td>Whole blood specimen (specimen)</td><td><span class=\"nb\">17-Jul-2025</span></td></tr></table></div>"
        },
        "type": {
          "coding": [
            {
              "code": "258580003",
              "system": "http://snomed.info/sct",
              "display": "Whole blood specimen (specimen)"
            }
          ]
        }
      }
    },
    {
      "fullUrl": "urn:uuid:7f1853cb-f6a7-49e4-be78-c92724384e9d",
      "resource": {
        "resourceType": "Observation",
        "id": "7f1853cb-f6a7-49e4-be78-c92724384e9d",
        "meta": {
          "profile": [
            "http://hl7.eu/fhir/laboratory/StructureDefinition/Observation-resultslab-eu-lab"
          ]
        },
        "performer": [
          {
            "display": "The Central European Lab"
          }
        ],
        "category": [
          {
            "coding": [
              {
                "system": "http://terminology.hl7.org/CodeSystem/observation-category",
                "code": "laboratory"
              }
            ]
          }
        ],
        "code": {
          "coding": [
            {
              "code": "2345-7",
              "system": "http://loinc.org",
              "display": "Glucose [Mass/volume] in Serum or Plasma"
            }
          ],
          "text": "Glucose [Mass/volume] in Serum or Plasma"
        },
        "valueQuantity": {
          "system": "http://unitsofmeasure.org",
          "value": 94.5,
          "unit": "mg/dL",
          "code": "mg/dL"
        },
        "referenceRange": [
          {
            "low": {
              "value": 70,
              "code": "mg/dL",
              "system": "http://unitsofmeasure.org"
            }
          },
          {
            "high": {
              "value": 140,
              "code": "mg/dL",
              "system": "http://unitsofmeasure.org"
            }
          }
        ],
        "text": {
          "status": "generated",
          "div": "<div xmlns=\"http://www.w3.org/1999/xhtml\"><table class=\"hl7__eu__lab__report\"><tr><th>Test</th><th>17-Jul-2025</th><th>Reference&#xA0;Range</th><th>Unit</th></tr><tr><td>Glucose [Mass/volume] in Serum or Plasma</td><td>94.5</td><td>70 - 140</td><td></td><td>mg/dL</td></tr></table></div>"
        },
        "status": "final",
        "subject": {
          "reference": "urn:uuid:ae5576de-1095-423e-9201-f95fd8c77567",
          "display": "Pelayo Casal"
        },
        "effectiveDateTime": "2025-07-17T05:38:59Z",
        "specimen": {
          "reference": "urn:uuid:a1ee1322-9a14-4050-8a61-657bcb9e3d13"
        }
      }
    },
    {
      "fullUrl": "urn:uuid:d7bc9925-0d30-4cbb-b8fd-f9b475c39513",
      "resource": {
        "resourceType": "Observation",
        "id": "d7bc9925-0d30-4cbb-b8fd-f9b475c39513",
        "meta": {
          "profile": [
            "http://hl7.eu/fhir/laboratory/StructureDefinition/Observation-resultslab-eu-lab"
          ]
        },
        "performer": [
          {
            "display": "The Central European Lab"
          }
        ],
        "category": [
          {
            "coding": [
              {
                "system": "http://terminology.hl7.org/CodeSystem/observation-category",
                "code": "laboratory"
              }
            ]
          }
        ],
        "code": {
          "coding": [
            {
              "code": "3094-0",
              "system": "http://loinc.org",
              "display": "Urea nitrogen [Mass/volume] in Serum or Plasma"
            }
          ],
          "text": "Urea nitrogen [Mass/volume] in Serum or Plasma"
        },
        "valueQuantity": {
          "system": "http://unitsofmeasure.org",
          "value": 13.5,
          "unit": "mg/dL",
          "code": "mg/dL"
        },
        "referenceRange": [
          {
            "low": {
              "value": 7,
              "code": "mg/dL",
              "system": "http://unitsofmeasure.org"
            }
          },
          {
            "high": {
              "value": 25,
              "code": "mg/dL",
              "system": "http://unitsofmeasure.org"
            }
          }
        ],
        "text": {
          "status": "generated",
          "div": "<div xmlns=\"http://www.w3.org/1999/xhtml\"><table class=\"hl7__eu__lab__report\"><tr><th>Test</th><th>17-Jul-2025</th><th>Reference&#xA0;Range</th><th>Unit</th></tr><tr><td>Urea nitrogen [Mass/volume] in Serum or Plasma</td><td>13.5</td><td>7 - 25</td><td></td><td>mg/dL</td></tr></table></div>"
        },
        "status": "final",
        "subject": {
          "reference": "urn:uuid:ae5576de-1095-423e-9201-f95fd8c77567",
          "display": "Pelayo Casal"
        },
        "effectiveDateTime": "2025-07-17T05:38:59Z",
        "specimen": {
          "reference": "urn:uuid:a1ee1322-9a14-4050-8a61-657bcb9e3d13"
        }
      }
    },
    {
      "fullUrl": "urn:uuid:3f27193f-5ea3-4138-88b9-6716fafcca14",
      "resource": {
        "resourceType": "Observation",
        "id": "3f27193f-5ea3-4138-88b9-6716fafcca14",
        "meta": {
          "profile": [
            "http://hl7.eu/fhir/laboratory/StructureDefinition/Observation-resultslab-eu-lab"
          ]
        },
        "performer": [
          {
            "display": "The Central European Lab"
          }
        ],
        "category": [
          {
            "coding": [
              {
                "system": "http://terminology.hl7.org/CodeSystem/observation-category",
                "code": "laboratory"
              }
            ]
          }
        ],
        "code": {
          "coding": [
            {
              "code": "2160-0",
              "system": "http://loinc.org",
              "display": "Creatinine [Mass/volume] in Serum or Plasma"
            }
          ],
          "text": "Creatinine [Mass/volume] in Serum or Plasma"
        },
        "valueQuantity": {
          "system": "http://unitsofmeasure.org",
          "value": 2.1,
          "unit": "mg/dL",
          "code": "mg/dL"
        },
        "referenceRange": [
          {
            "low": {
              "value": 0.9,
              "code": "mg/dL",
              "system": "http://unitsofmeasure.org"
            }
          },
          {
            "high": {
              "value": 1.3,
              "code": "mg/dL",
              "system": "http://unitsofmeasure.org"
            }
          }
        ],
        "interpretation": [
          {
            "coding": [
              {
                "code": "H",
                "system": "http://terminology.hl7.org/CodeSystem/v3-ObservationInterpretation",
                "display": "High"
              }
            ]
          }
        ],
        "text": {
          "status": "generated",
          "div": "<div xmlns=\"http://www.w3.org/1999/xhtml\"><table class=\"hl7__eu__lab__report\"><tr><th>Test</th><th>17-Jul-2025</th><th>Reference&#xA0;Range</th><th>Unit</th></tr><tr><td>Creatinine [Mass/volume] in Serum or Plasma</td><td>2.1</td><td>0.9 - 1.3</td><td>H</td><td>mg/dL</td></tr></table></div>"
        },
        "status": "final",
        "subject": {
          "reference": "urn:uuid:ae5576de-1095-423e-9201-f95fd8c77567",
          "display": "Pelayo Casal"
        },
        "effectiveDateTime": "2025-07-17T05:38:59Z",
        "specimen": {
          "reference": "urn:uuid:a1ee1322-9a14-4050-8a61-657bcb9e3d13"
        }
      }
    },
    {
      "fullUrl": "urn:uuid:b533ecbf-df99-4314-a69f-9d6cb4a8fb35",
      "resource": {
        "resourceType": "Observation",
        "id": "b533ecbf-df99-4314-a69f-9d6cb4a8fb35",
        "meta": {
          "profile": [
            "http://hl7.eu/fhir/laboratory/StructureDefinition/Observation-resultslab-eu-lab"
          ]
        },
        "performer": [
          {
            "display": "The Central European Lab"
          }
        ],
        "category": [
          {
            "coding": [
              {
                "system": "http://terminology.hl7.org/CodeSystem/observation-category",
                "code": "laboratory"
              }
            ]
          }
        ],
        "code": {
          "coding": [
            {
              "code": "17861-6",
              "system": "http://loinc.org",
              "display": "Calcium [Mass/volume] in Serum or Plasma"
            }
          ],
          "text": "Calcium [Mass/volume] in Serum or Plasma"
        },
        "valueQuantity": {
          "system": "http://unitsofmeasure.org",
          "value": 9,
          "unit": "mg/dL",
          "code": "mg/dL"
        },
        "referenceRange": [
          {
            "low": {
              "value": 8.5,
              "code": "mg/dL",
              "system": "http://unitsofmeasure.org"
            }
          },
          {
            "high": {
              "value": 10.5,
              "code": "mg/dL",
              "system": "http://unitsofmeasure.org"
            }
          }
        ],
        "text": {
          "status": "generated",
          "div": "<div xmlns=\"http://www.w3.org/1999/xhtml\"><table class=\"hl7__eu__lab__report\"><tr><th>Test</th><th>17-Jul-2025</th><th>Reference&#xA0;Range</th><th>Unit</th></tr><tr><td>Calcium [Mass/volume] in Serum or Plasma</td><td>9.0</td><td>8.5 - 10.5</td><td></td><td>mg/dL</td></tr></table></div>"
        },
        "status": "final",
        "subject": {
          "reference": "urn:uuid:ae5576de-1095-423e-9201-f95fd8c77567",
          "display": "Pelayo Casal"
        },
        "effectiveDateTime": "2025-07-17T05:38:59Z",
        "specimen": {
          "reference": "urn:uuid:a1ee1322-9a14-4050-8a61-657bcb9e3d13"
        }
      }
    },
    {
      "fullUrl": "urn:uuid:540b7095-9c31-421e-a19a-71ddb09ff1fc",
      "resource": {
        "resourceType": "Observation",
        "id": "540b7095-9c31-421e-a19a-71ddb09ff1fc",
        "meta": {
          "profile": [
            "http://hl7.eu/fhir/laboratory/StructureDefinition/Observation-resultslab-eu-lab"
          ]
        },
        "performer": [
          {
            "display": "The Central European Lab"
          }
        ],
        "category": [
          {
            "coding": [
              {
                "system": "http://terminology.hl7.org/CodeSystem/observation-category",
                "code": "laboratory"
              }
            ]
          }
        ],
        "code": {
          "coding": [
            {
              "code": "2951-2",
              "system": "http://loinc.org",
              "display": "Sodium [Moles/volume] in Serum or Plasma"
            }
          ],
          "text": "Sodium [Moles/volume] in Serum or Plasma"
        },
        "valueQuantity": {
          "system": "http://unitsofmeasure.org",
          "value": 136.4,
          "unit": "mmol/L",
          "code": "mmol/L"
        },
        "referenceRange": [
          {
            "low": {
              "value": 135,
              "code": "mmol/L",
              "system": "http://unitsofmeasure.org"
            }
          },
          {
            "high": {
              "value": 145,
              "code": "mmol/L",
              "system": "http://unitsofmeasure.org"
            }
          }
        ],
        "text": {
          "status": "generated",
          "div": "<div xmlns=\"http://www.w3.org/1999/xhtml\"><table class=\"hl7__eu__lab__report\"><tr><th>Test</th><th>17-Jul-2025</th><th>Reference&#xA0;Range</th><th>Unit</th></tr><tr><td>Sodium [Moles/volume] in Serum or Plasma</td><td>136.4</td><td>135 - 145</td><td></td><td>mmol/L</td></tr></table></div>"
        },
        "status": "final",
        "subject": {
          "reference": "urn:uuid:ae5576de-1095-423e-9201-f95fd8c77567",
          "display": "Pelayo Casal"
        },
        "effectiveDateTime": "2025-07-17T05:38:59Z",
        "specimen": {
          "reference": "urn:uuid:a1ee1322-9a14-4050-8a61-657bcb9e3d13"
        }
      }
    },
    {
      "fullUrl": "urn:uuid:a2fc8b6c-a393-4ba8-bdd5-e5a780d3605a",
      "resource": {
        "resourceType": "Observation",
        "id": "a2fc8b6c-a393-4ba8-bdd5-e5a780d3605a",
        "meta": {
          "profile": [
            "http://hl7.eu/fhir/laboratory/StructureDefinition/Observation-resultslab-eu-lab"
          ]
        },
        "performer": [
          {
            "display": "The Central European Lab"
          }
        ],
        "category": [
          {
            "coding": [
              {
                "system": "http://terminology.hl7.org/CodeSystem/observation-category",
                "code": "laboratory"
              }
            ]
          }
        ],
        "code": {
          "coding": [
            {
              "code": "2823-3",
              "system": "http://loinc.org",
              "display": "Potassium [Moles/volume] in Serum or Plasma"
            }
          ],
          "text": "Potassium [Moles/volume] in Serum or Plasma"
        },
        "valueQuantity": {
          "system": "http://unitsofmeasure.org",
          "value": 4.5,
          "unit": "mmol/L",
          "code": "mmol/L"
        },
        "referenceRange": [
          {
            "low": {
              "value": 3.5,
              "code": "mmol/L",
              "system": "http://unitsofmeasure.org"
            }
          },
          {
            "high": {
              "value": 5.3,
              "code": "mmol/L",
              "system": "http://unitsofmeasure.org"
            }
          }
        ],
        "text": {
          "status": "generated",
          "div": "<div xmlns=\"http://www.w3.org/1999/xhtml\"><table class=\"hl7__eu__lab__report\"><tr><th>Test</th><th>17-Jul-2025</th><th>Reference&#xA0;Range</th><th>Unit</th></tr><tr><td>Potassium [Moles/volume] in Serum or Plasma</td><td>4.5</td><td>3.5 - 5.3</td><td></td><td>mmol/L</td></tr></table></div>"
        },
        "status": "final",
        "subject": {
          "reference": "urn:uuid:ae5576de-1095-423e-9201-f95fd8c77567",
          "display": "Pelayo Casal"
        },
        "effectiveDateTime": "2025-07-17T05:38:59Z",
        "specimen": {
          "reference": "urn:uuid:a1ee1322-9a14-4050-8a61-657bcb9e3d13"
        }
      }
    },
    {
      "fullUrl": "urn:uuid:86b93e3c-6642-40d8-bec8-86f0af882cee",
      "resource": {
        "resourceType": "Observation",
        "id": "86b93e3c-6642-40d8-bec8-86f0af882cee",
        "meta": {
          "profile": [
            "http://hl7.eu/fhir/laboratory/StructureDefinition/Observation-resultslab-eu-lab"
          ]
        },
        "performer": [
          {
            "display": "The Central European Lab"
          }
        ],
        "category": [
          {
            "coding": [
              {
                "system": "http://terminology.hl7.org/CodeSystem/observation-category",
                "code": "laboratory"
              }
            ]
          }
        ],
        "code": {
          "coding": [
            {
              "code": "2075-0",
              "system": "http://loinc.org",
              "display": "Chloride [Moles/volume] in Serum or Plasma"
            }
          ],
          "text": "Chloride [Moles/volume] in Serum or Plasma"
        },
        "valueQuantity": {
          "system": "http://unitsofmeasure.org",
          "value": 107.5,
          "unit": "mmol/L",
          "code": "mmol/L"
        },
        "referenceRange": [
          {
            "low": {
              "value": 98,
              "code": "mmol/L",
              "system": "http://unitsofmeasure.org"
            }
          },
          {
            "high": {
              "value": 107,
              "code": "mmol/L",
              "system": "http://unitsofmeasure.org"
            }
          }
        ],
        "interpretation": [
          {
            "coding": [
              {
                "code": "H",
                "system": "http://terminology.hl7.org/CodeSystem/v3-ObservationInterpretation",
                "display": "High"
              }
            ]
          }
        ],
        "text": {
          "status": "generated",
          "div": "<div xmlns=\"http://www.w3.org/1999/xhtml\"><table class=\"hl7__eu__lab__report\"><tr><th>Test</th><th>17-Jul-2025</th><th>Reference&#xA0;Range</th><th>Unit</th></tr><tr><td>Chloride [Moles/volume] in Serum or Plasma</td><td>107.5</td><td>98 - 107</td><td>H</td><td>mmol/L</td></tr></table></div>"
        },
        "status": "final",
        "subject": {
          "reference": "urn:uuid:ae5576de-1095-423e-9201-f95fd8c77567",
          "display": "Pelayo Casal"
        },
        "effectiveDateTime": "2025-07-17T05:38:59Z",
        "specimen": {
          "reference": "urn:uuid:a1ee1322-9a14-4050-8a61-657bcb9e3d13"
        }
      }
    },
    {
      "fullUrl": "urn:uuid:e9eeb7c3-605d-4b92-bf4c-ea68bb84a7f3",
      "resource": {
        "resourceType": "Observation",
        "id": "e9eeb7c3-605d-4b92-bf4c-ea68bb84a7f3",
        "meta": {
          "profile": [
            "http://hl7.eu/fhir/laboratory/StructureDefinition/Observation-resultslab-eu-lab"
          ]
        },
        "performer": [
          {
            "display": "The Central European Lab"
          }
        ],
        "category": [
          {
            "coding": [
              {
                "system": "http://terminology.hl7.org/CodeSystem/observation-category",
                "code": "laboratory"
              }
            ]
          }
        ],
        "code": {
          "coding": [
            {
              "code": "2028-9",
              "system": "http://loinc.org",
              "display": "Carbon dioxide, total [Moles/volume] in Serum or Plasma"
            }
          ],
          "text": "Carbon dioxide, total [Moles/volume] in Serum or Plasma"
        },
        "valueQuantity": {
          "system": "http://unitsofmeasure.org",
          "value": 26.9,
          "unit": "mmol/L",
          "code": "mmol/L"
        },
        "referenceRange": [
          {
            "low": {
              "value": 22,
              "code": "mmol/L",
              "system": "http://unitsofmeasure.org"
            }
          },
          {
            "high": {
              "value": 29,
              "code": "mmol/L",
              "system": "http://unitsofmeasure.org"
            }
          }
        ],
        "text": {
          "status": "generated",
          "div": "<div xmlns=\"http://www.w3.org/1999/xhtml\"><table class=\"hl7__eu__lab__report\"><tr><th>Test</th><th>17-Jul-2025</th><th>Reference&#xA0;Range</th><th>Unit</th></tr><tr><td>Carbon dioxide, total [Moles/volume] in Serum or Plasma</td><td>26.9</td><td>22 - 29</td><td></td><td>mmol/L</td></tr></table></div>"
        },
        "status": "final",
        "subject": {
          "reference": "urn:uuid:ae5576de-1095-423e-9201-f95fd8c77567",
          "display": "Pelayo Casal"
        },
        "effectiveDateTime": "2025-07-17T05:38:59Z",
        "specimen": {
          "reference": "urn:uuid:a1ee1322-9a14-4050-8a61-657bcb9e3d13"
        }
      }
    },
    {
      "fullUrl": "urn:uuid:d243c8bf-799d-4060-8e57-6d9686207680",
      "resource": {
        "resourceType": "Observation",
        "id": "d243c8bf-799d-4060-8e57-6d9686207680",
        "meta": {
          "profile": [
            "http://hl7.eu/fhir/laboratory/StructureDefinition/Observation-resultslab-eu-lab"
          ]
        },
        "performer": [
          {
            "display": "The Central European Lab"
          }
        ],
        "category": [
          {
            "coding": [
              {
                "system": "http://terminology.hl7.org/CodeSystem/observation-category",
                "code": "laboratory"
              }
            ]
          }
        ],
        "code": {
          "coding": [
            {
              "code": "5767-9",
              "system": "http://loinc.org",
              "display": "Appearance of Urine"
            }
          ],
          "text": "Appearance of Urine"
        },
        "text": {
          "status": "generated",
          "div": "<div xmlns=\"http://www.w3.org/1999/xhtml\"><table class=\"hl7__eu__lab__report\"><tr><th>Test</th><th>17-Jul-2025</th><th>Reference&#xA0;Range</th><th>Unit</th></tr><tr><td>Appearance of Urine</td></tr></table></div>"
        },
        "status": "final",
        "subject": {
          "reference": "urn:uuid:ae5576de-1095-423e-9201-f95fd8c77567",
          "display": "Pelayo Casal"
        },
        "effectiveDateTime": "2025-07-17T05:38:59Z",
        "specimen": {
          "reference": "urn:uuid:c3378f4d-488d-42f7-97a6-80c391f1aa9e"
        }
      }
    },
    {
      "fullUrl": "urn:uuid:b96aab39-15c2-4ece-b2a3-eecddca83265",
      "resource": {
        "resourceType": "Observation",
        "id": "b96aab39-15c2-4ece-b2a3-eecddca83265",
        "meta": {
          "profile": [
            "http://hl7.eu/fhir/laboratory/StructureDefinition/Observation-resultslab-eu-lab"
          ]
        },
        "performer": [
          {
            "display": "The Central European Lab"
          }
        ],
        "category": [
          {
            "coding": [
              {
                "system": "http://terminology.hl7.org/CodeSystem/observation-category",
                "code": "laboratory"
              }
            ]
          }
        ],
        "code": {
          "coding": [
            {
              "code": "34533-0",
              "system": "http://loinc.org",
              "display": "Odor of Urine"
            }
          ],
          "text": "Odor of Urine"
        },
        "text": {
          "status": "generated",
          "div": "<div xmlns=\"http://www.w3.org/1999/xhtml\"><table class=\"hl7__eu__lab__report\"><tr><th>Test</th><th>17-Jul-2025</th><th>Reference&#xA0;Range</th><th>Unit</th></tr><tr><td>Odor of Urine</td></tr></table></div>"
        },
        "status": "final",
        "subject": {
          "reference": "urn:uuid:ae5576de-1095-423e-9201-f95fd8c77567",
          "display": "Pelayo Casal"
        },
        "effectiveDateTime": "2025-07-17T05:38:59Z",
        "specimen": {
          "reference": "urn:uuid:c3378f4d-488d-42f7-97a6-80c391f1aa9e"
        }
      }
    },
    {
      "fullUrl": "urn:uuid:6d3dd858-e718-4c13-a177-44e69d4836f2",
      "resource": {
        "resourceType": "Observation",
        "id": "6d3dd858-e718-4c13-a177-44e69d4836f2",
        "meta": {
          "profile": [
            "http://hl7.eu/fhir/laboratory/StructureDefinition/Observation-resultslab-eu-lab"
          ]
        },
        "performer": [
          {
            "display": "The Central European Lab"
          }
        ],
        "category": [
          {
            "coding": [
              {
                "system": "http://terminology.hl7.org/CodeSystem/observation-category",
                "code": "laboratory"
              }
            ]
          }
        ],
        "code": {
          "coding": [
            {
              "code": "32167-9",
              "system": "http://loinc.org",
              "display": "Clarity of Urine"
            }
          ],
          "text": "Clarity of Urine"
        },
        "text": {
          "status": "generated",
          "div": "<div xmlns=\"http://www.w3.org/1999/xhtml\"><table class=\"hl7__eu__lab__report\"><tr><th>Test</th><th>17-Jul-2025</th><th>Reference&#xA0;Range</th><th>Unit</th></tr><tr><td>Clarity of Urine</td></tr></table></div>"
        },
        "status": "final",
        "subject": {
          "reference": "urn:uuid:ae5576de-1095-423e-9201-f95fd8c77567",
          "display": "Pelayo Casal"
        },
        "effectiveDateTime": "2025-07-17T05:38:59Z",
        "specimen": {
          "reference": "urn:uuid:c3378f4d-488d-42f7-97a6-80c391f1aa9e"
        }
      }
    },
    {
      "fullUrl": "urn:uuid:bfe62bc2-6831-4f1a-99d0-929785e9ea6c",
      "resource": {
        "resourceType": "Observation",
        "id": "bfe62bc2-6831-4f1a-99d0-929785e9ea6c",
        "meta": {
          "profile": [
            "http://hl7.eu/fhir/laboratory/StructureDefinition/Observation-resultslab-eu-lab"
          ]
        },
        "performer": [
          {
            "display": "The Central European Lab"
          }
        ],
        "category": [
          {
            "coding": [
              {
                "system": "http://terminology.hl7.org/CodeSystem/observation-category",
                "code": "laboratory"
              }
            ]
          }
        ],
        "code": {
          "coding": [
            {
              "code": "5778-6",
              "system": "http://loinc.org",
              "display": "Color of Urine"
            }
          ],
          "text": "Color of Urine"
        },
        "text": {
          "status": "generated",
          "div": "<div xmlns=\"http://www.w3.org/1999/xhtml\"><table class=\"hl7__eu__lab__report\"><tr><th>Test</th><th>17-Jul-2025</th><th>Reference&#xA0;Range</th><th>Unit</th></tr><tr><td>Color of Urine</td></tr></table></div>"
        },
        "status": "final",
        "subject": {
          "reference": "urn:uuid:ae5576de-1095-423e-9201-f95fd8c77567",
          "display": "Pelayo Casal"
        },
        "effectiveDateTime": "2025-07-17T05:38:59Z",
        "specimen": {
          "reference": "urn:uuid:c3378f4d-488d-42f7-97a6-80c391f1aa9e"
        }
      }
    },
    {
      "fullUrl": "urn:uuid:0d365f88-dffc-49d0-8c48-c225b1656e05",
      "resource": {
        "resourceType": "Observation",
        "id": "0d365f88-dffc-49d0-8c48-c225b1656e05",
        "meta": {
          "profile": [
            "http://hl7.eu/fhir/laboratory/StructureDefinition/Observation-resultslab-eu-lab"
          ]
        },
        "performer": [
          {
            "display": "The Central European Lab"
          }
        ],
        "category": [
          {
            "coding": [
              {
                "system": "http://terminology.hl7.org/CodeSystem/observation-category",
                "code": "laboratory"
              }
            ]
          }
        ],
        "code": {
          "coding": [
            {
              "code": "5792-7",
              "system": "http://loinc.org",
              "display": "Glucose [Mass/volume] in Urine by Test strip"
            }
          ],
          "text": "Glucose [Mass/volume] in Urine by Test strip"
        },
        "valueQuantity": {
          "system": "http://unitsofmeasure.org",
          "value": 2.2,
          "unit": "mg/dL",
          "code": "mg/dL"
        },
        "referenceRange": [
          {
            "low": {
              "value": 0.8,
              "code": "mg/dL",
              "system": "http://unitsofmeasure.org"
            }
          },
          {
            "high": {
              "value": 0,
              "code": "mg/dL",
              "system": "http://unitsofmeasure.org"
            }
          }
        ],
        "interpretation": [
          {
            "coding": [
              {
                "code": "H",
                "system": "http://terminology.hl7.org/CodeSystem/v3-ObservationInterpretation",
                "display": "High"
              }
            ]
          }
        ],
        "text": {
          "status": "generated",
          "div": "<div xmlns=\"http://www.w3.org/1999/xhtml\"><table class=\"hl7__eu__lab__report\"><tr><th>Test</th><th>17-Jul-2025</th><th>Reference&#xA0;Range</th><th>Unit</th></tr><tr><td>Glucose [Mass/volume] in Urine by Test strip</td><td>2.2</td><td>0.8 - 0</td><td>H</td><td>mg/dL</td></tr></table></div>"
        },
        "status": "final",
        "subject": {
          "reference": "urn:uuid:ae5576de-1095-423e-9201-f95fd8c77567",
          "display": "Pelayo Casal"
        },
        "effectiveDateTime": "2025-07-17T05:38:59Z",
        "specimen": {
          "reference": "urn:uuid:c3378f4d-488d-42f7-97a6-80c391f1aa9e"
        }
      }
    },
    {
      "fullUrl": "urn:uuid:cc2f5372-b557-4856-be19-3de18b4f18d4",
      "resource": {
        "resourceType": "Observation",
        "id": "cc2f5372-b557-4856-be19-3de18b4f18d4",
        "meta": {
          "profile": [
            "http://hl7.eu/fhir/laboratory/StructureDefinition/Observation-resultslab-eu-lab"
          ]
        },
        "performer": [
          {
            "display": "The Central European Lab"
          }
        ],
        "category": [
          {
            "coding": [
              {
                "system": "http://terminology.hl7.org/CodeSystem/observation-category",
                "code": "laboratory"
              }
            ]
          }
        ],
        "code": {
          "coding": [
            {
              "code": "25428-4",
              "system": "http://loinc.org",
              "display": "Glucose [Presence] in Urine by Test strip"
            }
          ],
          "text": "Glucose [Presence] in Urine by Test strip"
        },
        "text": {
          "status": "generated",
          "div": "<div xmlns=\"http://www.w3.org/1999/xhtml\"><table class=\"hl7__eu__lab__report\"><tr><th>Test</th><th>17-Jul-2025</th><th>Reference&#xA0;Range</th><th>Unit</th></tr><tr><td>Glucose [Presence] in Urine by Test strip</td></tr></table></div>"
        },
        "status": "final",
        "subject": {
          "reference": "urn:uuid:ae5576de-1095-423e-9201-f95fd8c77567",
          "display": "Pelayo Casal"
        },
        "effectiveDateTime": "2025-07-17T05:38:59Z",
        "specimen": {
          "reference": "urn:uuid:c3378f4d-488d-42f7-97a6-80c391f1aa9e"
        }
      }
    },
    {
      "fullUrl": "urn:uuid:67a98341-dff7-4433-a76e-2a8186658afc",
      "resource": {
        "resourceType": "Observation",
        "id": "67a98341-dff7-4433-a76e-2a8186658afc",
        "meta": {
          "profile": [
            "http://hl7.eu/fhir/laboratory/StructureDefinition/Observation-resultslab-eu-lab"
          ]
        },
        "performer": [
          {
            "display": "The Central European Lab"
          }
        ],
        "category": [
          {
            "coding": [
              {
                "system": "http://terminology.hl7.org/CodeSystem/observation-category",
                "code": "laboratory"
              }
            ]
          }
        ],
        "code": {
          "coding": [
            {
              "code": "20505-4",
              "system": "http://loinc.org",
              "display": "Bilirubin.total [Mass/volume] in Urine by Test strip"
            }
          ],
          "text": "Bilirubin.total [Mass/volume] in Urine by Test strip"
        },
        "valueQuantity": {
          "system": "http://unitsofmeasure.org",
          "value": 1,
          "unit": "mg/dL",
          "code": "mg/dL"
        },
        "referenceRange": [
          {
            "low": {
              "value": 0.2,
              "code": "mg/dL",
              "system": "http://unitsofmeasure.org"
            }
          },
          {
            "high": {
              "value": 1.5,
              "code": "mg/dL",
              "system": "http://unitsofmeasure.org"
            }
          }
        ],
        "text": {
          "status": "generated",
          "div": "<div xmlns=\"http://www.w3.org/1999/xhtml\"><table class=\"hl7__eu__lab__report\"><tr><th>Test</th><th>17-Jul-2025</th><th>Reference&#xA0;Range</th><th>Unit</th></tr><tr><td>Bilirubin.total [Mass/volume] in Urine by Test strip</td><td>1.0</td><td>0.2 - 1.5</td><td></td><td>mg/dL</td></tr></table></div>"
        },
        "status": "final",
        "subject": {
          "reference": "urn:uuid:ae5576de-1095-423e-9201-f95fd8c77567",
          "display": "Pelayo Casal"
        },
        "effectiveDateTime": "2025-07-17T05:38:59Z",
        "specimen": {
          "reference": "urn:uuid:c3378f4d-488d-42f7-97a6-80c391f1aa9e"
        }
      }
    },
    {
      "fullUrl": "urn:uuid:3d91ed8f-a521-440d-8c5f-189005a0112a",
      "resource": {
        "resourceType": "Observation",
        "id": "3d91ed8f-a521-440d-8c5f-189005a0112a",
        "meta": {
          "profile": [
            "http://hl7.eu/fhir/laboratory/StructureDefinition/Observation-resultslab-eu-lab"
          ]
        },
        "performer": [
          {
            "display": "The Central European Lab"
          }
        ],
        "category": [
          {
            "coding": [
              {
                "system": "http://terminology.hl7.org/CodeSystem/observation-category",
                "code": "laboratory"
              }
            ]
          }
        ],
        "code": {
          "coding": [
            {
              "code": "5770-3",
              "system": "http://loinc.org",
              "display": "Bilirubin.total [Presence] in Urine by Test strip"
            }
          ],
          "text": "Bilirubin.total [Presence] in Urine by Test strip"
        },
        "text": {
          "status": "generated",
          "div": "<div xmlns=\"http://www.w3.org/1999/xhtml\"><table class=\"hl7__eu__lab__report\"><tr><th>Test</th><th>17-Jul-2025</th><th>Reference&#xA0;Range</th><th>Unit</th></tr><tr><td>Bilirubin.total [Presence] in Urine by Test strip</td></tr></table></div>"
        },
        "status": "final",
        "subject": {
          "reference": "urn:uuid:ae5576de-1095-423e-9201-f95fd8c77567",
          "display": "Pelayo Casal"
        },
        "effectiveDateTime": "2025-07-17T05:38:59Z",
        "specimen": {
          "reference": "urn:uuid:c3378f4d-488d-42f7-97a6-80c391f1aa9e"
        }
      }
    },
    {
      "fullUrl": "urn:uuid:dfb072a3-1d93-4bec-93bb-12a8b61ff213",
      "resource": {
        "resourceType": "Observation",
        "id": "dfb072a3-1d93-4bec-93bb-12a8b61ff213",
        "meta": {
          "profile": [
            "http://hl7.eu/fhir/laboratory/StructureDefinition/Observation-resultslab-eu-lab"
          ]
        },
        "performer": [
          {
            "display": "The Central European Lab"
          }
        ],
        "category": [
          {
            "coding": [
              {
                "system": "http://terminology.hl7.org/CodeSystem/observation-category",
                "code": "laboratory"
              }
            ]
          }
        ],
        "code": {
          "coding": [
            {
              "code": "5797-6",
              "system": "http://loinc.org",
              "display": "Ketones [Mass/volume] in Urine by Test strip"
            }
          ],
          "text": "Ketones [Mass/volume] in Urine by Test strip"
        },
        "valueQuantity": {
          "system": "http://unitsofmeasure.org",
          "value": 5.9,
          "unit": "mg/dL",
          "code": "mg/dL"
        },
        "referenceRange": [
          {
            "low": {
              "value": 0,
              "code": "mg/dL",
              "system": "http://unitsofmeasure.org"
            }
          },
          {
            "high": {
              "value": 4,
              "code": "mg/dL",
              "system": "http://unitsofmeasure.org"
            }
          }
        ],
        "interpretation": [
          {
            "coding": [
              {
                "code": "H",
                "system": "http://terminology.hl7.org/CodeSystem/v3-ObservationInterpretation",
                "display": "High"
              }
            ]
          }
        ],
        "text": {
          "status": "generated",
          "div": "<div xmlns=\"http://www.w3.org/1999/xhtml\"><table class=\"hl7__eu__lab__report\"><tr><th>Test</th><th>17-Jul-2025</th><th>Reference&#xA0;Range</th><th>Unit</th></tr><tr><td>Ketones [Mass/volume] in Urine by Test strip</td><td>5.9</td><td>0 - 4</td><td>H</td><td>mg/dL</td></tr></table></div>"
        },
        "status": "final",
        "subject": {
          "reference": "urn:uuid:ae5576de-1095-423e-9201-f95fd8c77567",
          "display": "Pelayo Casal"
        },
        "effectiveDateTime": "2025-07-17T05:38:59Z",
        "specimen": {
          "reference": "urn:uuid:c3378f4d-488d-42f7-97a6-80c391f1aa9e"
        }
      }
    },
    {
      "fullUrl": "urn:uuid:07ec4554-0d04-48f5-966c-20584c6ed7b1",
      "resource": {
        "resourceType": "Observation",
        "id": "07ec4554-0d04-48f5-966c-20584c6ed7b1",
        "meta": {
          "profile": [
            "http://hl7.eu/fhir/laboratory/StructureDefinition/Observation-resultslab-eu-lab"
          ]
        },
        "performer": [
          {
            "display": "The Central European Lab"
          }
        ],
        "category": [
          {
            "coding": [
              {
                "system": "http://terminology.hl7.org/CodeSystem/observation-category",
                "code": "laboratory"
              }
            ]
          }
        ],
        "code": {
          "coding": [
            {
              "code": "2514-8",
              "system": "http://loinc.org",
              "display": "Ketones [Presence] in Urine by Test strip"
            }
          ],
          "text": "Ketones [Presence] in Urine by Test strip"
        },
        "text": {
          "status": "generated",
          "div": "<div xmlns=\"http://www.w3.org/1999/xhtml\"><table class=\"hl7__eu__lab__report\"><tr><th>Test</th><th>17-Jul-2025</th><th>Reference&#xA0;Range</th><th>Unit</th></tr><tr><td>Ketones [Presence] in Urine by Test strip</td></tr></table></div>"
        },
        "status": "final",
        "subject": {
          "reference": "urn:uuid:ae5576de-1095-423e-9201-f95fd8c77567",
          "display": "Pelayo Casal"
        },
        "effectiveDateTime": "2025-07-17T05:38:59Z",
        "specimen": {
          "reference": "urn:uuid:c3378f4d-488d-42f7-97a6-80c391f1aa9e"
        }
      }
    },
    {
      "fullUrl": "urn:uuid:0d3acdbb-ee9b-4681-8696-9ef97a0e5e22",
      "resource": {
        "resourceType": "Observation",
        "id": "0d3acdbb-ee9b-4681-8696-9ef97a0e5e22",
        "meta": {
          "profile": [
            "http://hl7.eu/fhir/laboratory/StructureDefinition/Observation-resultslab-eu-lab"
          ]
        },
        "performer": [
          {
            "display": "The Central European Lab"
          }
        ],
        "category": [
          {
            "coding": [
              {
                "system": "http://terminology.hl7.org/CodeSystem/observation-category",
                "code": "laboratory"
              }
            ]
          }
        ],
        "code": {
          "coding": [
            {
              "code": "5811-5",
              "system": "http://loinc.org",
              "display": "Specific gravity of Urine by Test strip"
            }
          ],
          "text": "Specific gravity of Urine by Test strip"
        },
        "valueQuantity": {
          "system": "http://unitsofmeasure.org",
          "value": 1,
          "unit": "{nominal}",
          "code": "{nominal}"
        },
        "referenceRange": [
          {
            "low": {
              "value": 1.01,
              "code": "g/mL",
              "system": "http://unitsofmeasure.org"
            }
          },
          {
            "high": {
              "value": 1.03,
              "code": "g/mL",
              "system": "http://unitsofmeasure.org"
            }
          }
        ],
        "interpretation": [
          {
            "coding": [
              {
                "code": "L",
                "system": "http://terminology.hl7.org/CodeSystem/v3-ObservationInterpretation",
                "display": "Low"
              }
            ]
          }
        ],
        "text": {
          "status": "generated",
          "div": "<div xmlns=\"http://www.w3.org/1999/xhtml\"><table class=\"hl7__eu__lab__report\"><tr><th>Test</th><th>17-Jul-2025</th><th>Reference&#xA0;Range</th><th>Unit</th></tr><tr><td>Specific gravity of Urine by Test strip</td><td>1.0</td><td>1.01 - 1.03</td><td>L</td><td>{nominal}</td></tr></table></div>"
        },
        "status": "final",
        "subject": {
          "reference": "urn:uuid:ae5576de-1095-423e-9201-f95fd8c77567",
          "display": "Pelayo Casal"
        },
        "effectiveDateTime": "2025-07-17T05:38:59Z",
        "specimen": {
          "reference": "urn:uuid:c3378f4d-488d-42f7-97a6-80c391f1aa9e"
        }
      }
    },
    {
      "fullUrl": "urn:uuid:18476b9e-1124-44e6-89af-55ad7b5e0acf",
      "resource": {
        "resourceType": "Observation",
        "id": "18476b9e-1124-44e6-89af-55ad7b5e0acf",
        "meta": {
          "profile": [
            "http://hl7.eu/fhir/laboratory/StructureDefinition/Observation-resultslab-eu-lab"
          ]
        },
        "performer": [
          {
            "display": "The Central European Lab"
          }
        ],
        "category": [
          {
            "coding": [
              {
                "system": "http://terminology.hl7.org/CodeSystem/observation-category",
                "code": "laboratory"
              }
            ]
          }
        ],
        "code": {
          "coding": [
            {
              "code": "5803-2",
              "system": "http://loinc.org",
              "display": "pH of Urine by Test strip"
            }
          ],
          "text": "pH of Urine by Test strip"
        },
        "valueQuantity": {
          "system": "http://unitsofmeasure.org",
          "value": 5.9,
          "unit": "pH",
          "code": "pH"
        },
        "referenceRange": [
          {
            "low": {
              "value": 4.5,
              "code": "pH",
              "system": "http://unitsofmeasure.org"
            }
          },
          {
            "high": {
              "value": 7.5,
              "code": "pH",
              "system": "http://unitsofmeasure.org"
            }
          }
        ],
        "text": {
          "status": "generated",
          "div": "<div xmlns=\"http://www.w3.org/1999/xhtml\"><table class=\"hl7__eu__lab__report\"><tr><th>Test</th><th>17-Jul-2025</th><th>Reference&#xA0;Range</th><th>Unit</th></tr><tr><td>pH of Urine by Test strip</td><td>5.9</td><td>4.5 - 7.5</td><td></td><td>pH</td></tr></table></div>"
        },
        "status": "final",
        "subject": {
          "reference": "urn:uuid:ae5576de-1095-423e-9201-f95fd8c77567",
          "display": "Pelayo Casal"
        },
        "effectiveDateTime": "2025-07-17T05:38:59Z",
        "specimen": {
          "reference": "urn:uuid:c3378f4d-488d-42f7-97a6-80c391f1aa9e"
        }
      }
    },
    {
      "fullUrl": "urn:uuid:472af3f4-07bd-4180-95c3-10b2e8cb6c7b",
      "resource": {
        "resourceType": "Observation",
        "id": "472af3f4-07bd-4180-95c3-10b2e8cb6c7b",
        "meta": {
          "profile": [
            "http://hl7.eu/fhir/laboratory/StructureDefinition/Observation-resultslab-eu-lab"
          ]
        },
        "performer": [
          {
            "display": "The Central European Lab"
          }
        ],
        "category": [
          {
            "coding": [
              {
                "system": "http://terminology.hl7.org/CodeSystem/observation-category",
                "code": "laboratory"
              }
            ]
          }
        ],
        "code": {
          "coding": [
            {
              "code": "5804-0",
              "system": "http://loinc.org",
              "display": "Protein [Mass/volume] in Urine by Test strip"
            }
          ],
          "text": "Protein [Mass/volume] in Urine by Test strip"
        },
        "valueQuantity": {
          "system": "http://unitsofmeasure.org",
          "value": 152.2,
          "unit": "mg/dL",
          "code": "mg/dL"
        },
        "referenceRange": [
          {
            "low": {
              "value": 0,
              "code": "mg/dL",
              "system": "http://unitsofmeasure.org"
            }
          },
          {
            "high": {
              "value": 150,
              "code": "mg/dL",
              "system": "http://unitsofmeasure.org"
            }
          }
        ],
        "interpretation": [
          {
            "coding": [
              {
                "code": "H",
                "system": "http://terminology.hl7.org/CodeSystem/v3-ObservationInterpretation",
                "display": "High"
              }
            ]
          }
        ],
        "text": {
          "status": "generated",
          "div": "<div xmlns=\"http://www.w3.org/1999/xhtml\"><table class=\"hl7__eu__lab__report\"><tr><th>Test</th><th>17-Jul-2025</th><th>Reference&#xA0;Range</th><th>Unit</th></tr><tr><td>Protein [Mass/volume] in Urine by Test strip</td><td>152.2</td><td>0 - 150</td><td>H</td><td>mg/dL</td></tr></table></div>"
        },
        "status": "final",
        "subject": {
          "reference": "urn:uuid:ae5576de-1095-423e-9201-f95fd8c77567",
          "display": "Pelayo Casal"
        },
        "effectiveDateTime": "2025-07-17T05:38:59Z",
        "specimen": {
          "reference": "urn:uuid:c3378f4d-488d-42f7-97a6-80c391f1aa9e"
        }
      }
    },
    {
      "fullUrl": "urn:uuid:8c588916-d0eb-47d5-bfbc-18cf8f91a0c4",
      "resource": {
        "resourceType": "Observation",
        "id": "8c588916-d0eb-47d5-bfbc-18cf8f91a0c4",
        "meta": {
          "profile": [
            "http://hl7.eu/fhir/laboratory/StructureDefinition/Observation-resultslab-eu-lab"
          ]
        },
        "performer": [
          {
            "display": "The Central European Lab"
          }
        ],
        "category": [
          {
            "coding": [
              {
                "system": "http://terminology.hl7.org/CodeSystem/observation-category",
                "code": "laboratory"
              }
            ]
          }
        ],
        "code": {
          "coding": [
            {
              "code": "20454-5",
              "system": "http://loinc.org",
              "display": "Protein [Presence] in Urine by Test strip"
            }
          ],
          "text": "Protein [Presence] in Urine by Test strip"
        },
        "text": {
          "status": "generated",
          "div": "<div xmlns=\"http://www.w3.org/1999/xhtml\"><table class=\"hl7__eu__lab__report\"><tr><th>Test</th><th>17-Jul-2025</th><th>Reference&#xA0;Range</th><th>Unit</th></tr><tr><td>Protein [Presence] in Urine by Test strip</td></tr></table></div>"
        },
        "status": "final",
        "subject": {
          "reference": "urn:uuid:ae5576de-1095-423e-9201-f95fd8c77567",
          "display": "Pelayo Casal"
        },
        "effectiveDateTime": "2025-07-17T05:38:59Z",
        "specimen": {
          "reference": "urn:uuid:c3378f4d-488d-42f7-97a6-80c391f1aa9e"
        }
      }
    },
    {
      "fullUrl": "urn:uuid:f331d2b0-74ad-47f1-a2c9-0aae52e136d2",
      "resource": {
        "resourceType": "Observation",
        "id": "f331d2b0-74ad-47f1-a2c9-0aae52e136d2",
        "meta": {
          "profile": [
            "http://hl7.eu/fhir/laboratory/StructureDefinition/Observation-resultslab-eu-lab"
          ]
        },
        "performer": [
          {
            "display": "The Central European Lab"
          }
        ],
        "category": [
          {
            "coding": [
              {
                "system": "http://terminology.hl7.org/CodeSystem/observation-category",
                "code": "laboratory"
              }
            ]
          }
        ],
        "code": {
          "coding": [
            {
              "code": "5802-4",
              "system": "http://loinc.org",
              "display": "Nitrite [Presence] in Urine by Test strip"
            }
          ],
          "text": "Nitrite [Presence] in Urine by Test strip"
        },
        "text": {
          "status": "generated",
          "div": "<div xmlns=\"http://www.w3.org/1999/xhtml\"><table class=\"hl7__eu__lab__report\"><tr><th>Test</th><th>17-Jul-2025</th><th>Reference&#xA0;Range</th><th>Unit</th></tr><tr><td>Nitrite [Presence] in Urine by Test strip</td></tr></table></div>"
        },
        "status": "final",
        "subject": {
          "reference": "urn:uuid:ae5576de-1095-423e-9201-f95fd8c77567",
          "display": "Pelayo Casal"
        },
        "effectiveDateTime": "2025-07-17T05:38:59Z",
        "specimen": {
          "reference": "urn:uuid:c3378f4d-488d-42f7-97a6-80c391f1aa9e"
        }
      }
    },
    {
      "fullUrl": "urn:uuid:f152d03e-6caf-4b99-b84f-a7d9a2bbd9fc",
      "resource": {
        "resourceType": "Observation",
        "id": "f152d03e-6caf-4b99-b84f-a7d9a2bbd9fc",
        "meta": {
          "profile": [
            "http://hl7.eu/fhir/laboratory/StructureDefinition/Observation-resultslab-eu-lab"
          ]
        },
        "performer": [
          {
            "display": "The Central European Lab"
          }
        ],
        "category": [
          {
            "coding": [
              {
                "system": "http://terminology.hl7.org/CodeSystem/observation-category",
                "code": "laboratory"
              }
            ]
          }
        ],
        "code": {
          "coding": [
            {
              "code": "5794-3",
              "system": "http://loinc.org",
              "display": "Hemoglobin [Presence] in Urine by Test strip"
            }
          ],
          "text": "Hemoglobin [Presence] in Urine by Test strip"
        },
        "text": {
          "status": "generated",
          "div": "<div xmlns=\"http://www.w3.org/1999/xhtml\"><table class=\"hl7__eu__lab__report\"><tr><th>Test</th><th>17-Jul-2025</th><th>Reference&#xA0;Range</th><th>Unit</th></tr><tr><td>Hemoglobin [Presence] in Urine by Test strip</td></tr></table></div>"
        },
        "status": "final",
        "subject": {
          "reference": "urn:uuid:ae5576de-1095-423e-9201-f95fd8c77567",
          "display": "Pelayo Casal"
        },
        "effectiveDateTime": "2025-07-17T05:38:59Z",
        "specimen": {
          "reference": "urn:uuid:c3378f4d-488d-42f7-97a6-80c391f1aa9e"
        }
      }
    },
    {
      "fullUrl": "urn:uuid:c5ce4ba4-77c9-4c94-af93-88326048846f",
      "resource": {
        "resourceType": "Observation",
        "id": "c5ce4ba4-77c9-4c94-af93-88326048846f",
        "meta": {
          "profile": [
            "http://hl7.eu/fhir/laboratory/StructureDefinition/Observation-resultslab-eu-lab"
          ]
        },
        "performer": [
          {
            "display": "The Central European Lab"
          }
        ],
        "category": [
          {
            "coding": [
              {
                "system": "http://terminology.hl7.org/CodeSystem/observation-category",
                "code": "laboratory"
              }
            ]
          }
        ],
        "code": {
          "coding": [
            {
              "code": "5799-2",
              "system": "http://loinc.org",
              "display": "Leukocyte esterase [Presence] in Urine by Test strip"
            }
          ],
          "text": "Leukocyte esterase [Presence] in Urine by Test strip"
        },
        "text": {
          "status": "generated",
          "div": "<div xmlns=\"http://www.w3.org/1999/xhtml\"><table class=\"hl7__eu__lab__report\"><tr><th>Test</th><th>17-Jul-2025</th><th>Reference&#xA0;Range</th><th>Unit</th></tr><tr><td>Leukocyte esterase [Presence] in Urine by Test strip</td></tr></table></div>"
        },
        "status": "final",
        "subject": {
          "reference": "urn:uuid:ae5576de-1095-423e-9201-f95fd8c77567",
          "display": "Pelayo Casal"
        },
        "effectiveDateTime": "2025-07-17T05:38:59Z",
        "specimen": {
          "reference": "urn:uuid:c3378f4d-488d-42f7-97a6-80c391f1aa9e"
        }
      }
    },
    {
      "fullUrl": "urn:uuid:e06ea68c-36dd-4216-bc92-f2df8b4cf2dc",
      "resource": {
        "resourceType": "Observation",
        "id": "e06ea68c-36dd-4216-bc92-f2df8b4cf2dc",
        "meta": {
          "profile": [
            "http://hl7.eu/fhir/laboratory/StructureDefinition/Observation-resultslab-eu-lab"
          ]
        },
        "performer": [
          {
            "display": "The Central European Lab"
          }
        ],
        "category": [
          {
            "coding": [
              {
                "system": "http://terminology.hl7.org/CodeSystem/observation-category",
                "code": "laboratory"
              }
            ]
          }
        ],
        "code": {
          "coding": [
            {
              "code": "4548-4",
              "system": "http://loinc.org",
              "display": "Hemoglobin A1c/Hemoglobin.total in Blood"
            }
          ],
          "text": "Hemoglobin A1c/Hemoglobin.total in Blood"
        },
        "valueQuantity": {
          "system": "http://unitsofmeasure.org",
          "value": 3.1,
          "unit": "%",
          "code": "%"
        },
        "referenceRange": [
          {
            "low": {
              "value": 4.5,
              "code": "%",
              "system": "http://unitsofmeasure.org"
            }
          },
          {
            "high": {
              "value": 6.4,
              "code": "%",
              "system": "http://unitsofmeasure.org"
            }
          }
        ],
        "interpretation": [
          {
            "coding": [
              {
                "code": "L",
                "system": "http://terminology.hl7.org/CodeSystem/v3-ObservationInterpretation",
                "display": "Low"
              }
            ]
          }
        ],
        "text": {
          "status": "generated",
          "div": "<div xmlns=\"http://www.w3.org/1999/xhtml\"><table class=\"hl7__eu__lab__report\"><tr><th>Test</th><th>17-Jul-2025</th><th>Reference&#xA0;Range</th><th>Unit</th></tr><tr><td>Hemoglobin A1c/Hemoglobin.total in Blood</td><td>3.1</td><td>4.5 - 6.4</td><td>L</td><td>%</td></tr></table></div>"
        },
        "status": "final",
        "subject": {
          "reference": "urn:uuid:ae5576de-1095-423e-9201-f95fd8c77567",
          "display": "Pelayo Casal"
        },
        "effectiveDateTime": "2025-07-17T05:38:59Z",
        "specimen": {
          "reference": "urn:uuid:07679ba4-b4d2-4c88-bbce-434b9689b85c"
        }
      }
    },
    {
      "fullUrl": "urn:uuid:ec350480-0269-45c1-b322-e8bf73bfb0ca",
      "resource": {
        "resourceType": "Observation",
        "id": "ec350480-0269-45c1-b322-e8bf73bfb0ca",
        "meta": {
          "profile": [
            "http://hl7.eu/fhir/laboratory/StructureDefinition/Observation-resultslab-eu-lab"
          ]
        },
        "performer": [
          {
            "display": "The Central European Lab"
          }
        ],
        "category": [
          {
            "coding": [
              {
                "system": "http://terminology.hl7.org/CodeSystem/observation-category",
                "code": "laboratory"
              }
            ]
          }
        ],
        "code": {
          "coding": [
            {
              "code": "2339-0",
              "system": "http://loinc.org",
              "display": "Glucose [Mass/volume] in Blood"
            }
          ],
          "text": "Glucose [Mass/volume] in Blood"
        },
        "valueQuantity": {
          "system": "http://unitsofmeasure.org",
          "value": 94.5,
          "unit": "mg/dL",
          "code": "mg/dL"
        },
        "referenceRange": [
          {
            "low": {
              "value": 70,
              "code": "mg/dL",
              "system": "http://unitsofmeasure.org"
            }
          },
          {
            "high": {
              "value": 140,
              "code": "mg/dL",
              "system": "http://unitsofmeasure.org"
            }
          }
        ],
        "text": {
          "status": "generated",
          "div": "<div xmlns=\"http://www.w3.org/1999/xhtml\"><table class=\"hl7__eu__lab__report\"><tr><th>Test</th><th>17-Jul-2025</th><th>Reference&#xA0;Range</th><th>Unit</th></tr><tr><td>Glucose [Mass/volume] in Blood</td><td>94.5</td><td>70 - 140</td><td></td><td>mg/dL</td></tr></table></div>"
        },
        "status": "final",
        "subject": {
          "reference": "urn:uuid:ae5576de-1095-423e-9201-f95fd8c77567",
          "display": "Pelayo Casal"
        },
        "effectiveDateTime": "2025-07-17T05:38:59Z",
        "specimen": {
          "reference": "urn:uuid:07679ba4-b4d2-4c88-bbce-434b9689b85c"
        }
      }
    },
    {
      "fullUrl": "urn:uuid:5478f58e-a423-475c-96b8-bca6f1d50bc8",
      "resource": {
        "resourceType": "Observation",
        "id": "5478f58e-a423-475c-96b8-bca6f1d50bc8",
        "meta": {
          "profile": [
            "http://hl7.eu/fhir/laboratory/StructureDefinition/Observation-resultslab-eu-lab"
          ]
        },
        "performer": [
          {
            "display": "The Central European Lab"
          }
        ],
        "category": [
          {
            "coding": [
              {
                "system": "http://terminology.hl7.org/CodeSystem/observation-category",
                "code": "laboratory"
              }
            ]
          }
        ],
        "code": {
          "coding": [
            {
              "code": "6299-2",
              "system": "http://loinc.org",
              "display": "Urea nitrogen [Mass/volume] in Blood"
            }
          ],
          "text": "Urea nitrogen [Mass/volume] in Blood"
        },
        "valueQuantity": {
          "system": "http://unitsofmeasure.org",
          "value": 13.5,
          "unit": "mg/dL",
          "code": "mg/dL"
        },
        "referenceRange": [
          {
            "low": {
              "value": 7,
              "code": "mg/dL",
              "system": "http://unitsofmeasure.org"
            }
          },
          {
            "high": {
              "value": 25,
              "code": "mg/dL",
              "system": "http://unitsofmeasure.org"
            }
          }
        ],
        "text": {
          "status": "generated",
          "div": "<div xmlns=\"http://www.w3.org/1999/xhtml\"><table class=\"hl7__eu__lab__report\"><tr><th>Test</th><th>17-Jul-2025</th><th>Reference&#xA0;Range</th><th>Unit</th></tr><tr><td>Urea nitrogen [Mass/volume] in Blood</td><td>13.5</td><td>7 - 25</td><td></td><td>mg/dL</td></tr></table></div>"
        },
        "status": "final",
        "subject": {
          "reference": "urn:uuid:ae5576de-1095-423e-9201-f95fd8c77567",
          "display": "Pelayo Casal"
        },
        "effectiveDateTime": "2025-07-17T05:38:59Z",
        "specimen": {
          "reference": "urn:uuid:07679ba4-b4d2-4c88-bbce-434b9689b85c"
        }
      }
    },
    {
      "fullUrl": "urn:uuid:dc3d1767-9c4d-4b2a-ba4a-6dd69718b34e",
      "resource": {
        "resourceType": "Observation",
        "id": "dc3d1767-9c4d-4b2a-ba4a-6dd69718b34e",
        "meta": {
          "profile": [
            "http://hl7.eu/fhir/laboratory/StructureDefinition/Observation-resultslab-eu-lab"
          ]
        },
        "performer": [
          {
            "display": "The Central European Lab"
          }
        ],
        "category": [
          {
            "coding": [
              {
                "system": "http://terminology.hl7.org/CodeSystem/observation-category",
                "code": "laboratory"
              }
            ]
          }
        ],
        "code": {
          "coding": [
            {
              "code": "38483-4",
              "system": "http://loinc.org",
              "display": "Creatinine [Mass/volume] in Blood"
            }
          ],
          "text": "Creatinine [Mass/volume] in Blood"
        },
        "valueQuantity": {
          "system": "http://unitsofmeasure.org",
          "value": 1.5,
          "unit": "mg/dL",
          "code": "mg/dL"
        },
        "referenceRange": [
          {
            "low": {
              "value": 0.9,
              "code": "mg/dL",
              "system": "http://unitsofmeasure.org"
            }
          },
          {
            "high": {
              "value": 1.3,
              "code": "mg/dL",
              "system": "http://unitsofmeasure.org"
            }
          }
        ],
        "interpretation": [
          {
            "coding": [
              {
                "code": "H",
                "system": "http://terminology.hl7.org/CodeSystem/v3-ObservationInterpretation",
                "display": "High"
              }
            ]
          }
        ],
        "text": {
          "status": "generated",
          "div": "<div xmlns=\"http://www.w3.org/1999/xhtml\"><table class=\"hl7__eu__lab__report\"><tr><th>Test</th><th>17-Jul-2025</th><th>Reference&#xA0;Range</th><th>Unit</th></tr><tr><td>Creatinine [Mass/volume] in Blood</td><td>1.5</td><td>0.9 - 1.3</td><td>H</td><td>mg/dL</td></tr></table></div>"
        },
        "status": "final",
        "subject": {
          "reference": "urn:uuid:ae5576de-1095-423e-9201-f95fd8c77567",
          "display": "Pelayo Casal"
        },
        "effectiveDateTime": "2025-07-17T05:38:59Z",
        "specimen": {
          "reference": "urn:uuid:07679ba4-b4d2-4c88-bbce-434b9689b85c"
        }
      }
    },
    {
      "fullUrl": "urn:uuid:f12dd0f3-6c99-4d62-9321-ecbf256546b8",
      "resource": {
        "resourceType": "Observation",
        "id": "f12dd0f3-6c99-4d62-9321-ecbf256546b8",
        "meta": {
          "profile": [
            "http://hl7.eu/fhir/laboratory/StructureDefinition/Observation-resultslab-eu-lab"
          ]
        },
        "performer": [
          {
            "display": "The Central European Lab"
          }
        ],
        "category": [
          {
            "coding": [
              {
                "system": "http://terminology.hl7.org/CodeSystem/observation-category",
                "code": "laboratory"
              }
            ]
          }
        ],
        "code": {
          "coding": [
            {
              "code": "49765-1",
              "system": "http://loinc.org",
              "display": "Calcium [Mass/volume] in Blood"
            }
          ],
          "text": "Calcium [Mass/volume] in Blood"
        },
        "valueQuantity": {
          "system": "http://unitsofmeasure.org",
          "value": 9,
          "unit": "mg/dL",
          "code": "mg/dL"
        },
        "referenceRange": [
          {
            "low": {
              "value": 8.6,
              "code": "mg/dL",
              "system": "http://unitsofmeasure.org"
            }
          },
          {
            "high": {
              "value": 10.2,
              "code": "mg/dL",
              "system": "http://unitsofmeasure.org"
            }
          }
        ],
        "text": {
          "status": "generated",
          "div": "<div xmlns=\"http://www.w3.org/1999/xhtml\"><table class=\"hl7__eu__lab__report\"><tr><th>Test</th><th>17-Jul-2025</th><th>Reference&#xA0;Range</th><th>Unit</th></tr><tr><td>Calcium [Mass/volume] in Blood</td><td>9.0</td><td>8.6 - 10.2</td><td></td><td>mg/dL</td></tr></table></div>"
        },
        "status": "final",
        "subject": {
          "reference": "urn:uuid:ae5576de-1095-423e-9201-f95fd8c77567",
          "display": "Pelayo Casal"
        },
        "effectiveDateTime": "2025-07-17T05:38:59Z",
        "specimen": {
          "reference": "urn:uuid:07679ba4-b4d2-4c88-bbce-434b9689b85c"
        }
      }
    },
    {
      "fullUrl": "urn:uuid:813f8f41-b325-46a3-bd35-02d58cf1d6f5",
      "resource": {
        "resourceType": "Observation",
        "id": "813f8f41-b325-46a3-bd35-02d58cf1d6f5",
        "meta": {
          "profile": [
            "http://hl7.eu/fhir/laboratory/StructureDefinition/Observation-resultslab-eu-lab"
          ]
        },
        "performer": [
          {
            "display": "The Central European Lab"
          }
        ],
        "category": [
          {
            "coding": [
              {
                "system": "http://terminology.hl7.org/CodeSystem/observation-category",
                "code": "laboratory"
              }
            ]
          }
        ],
        "code": {
          "coding": [
            {
              "code": "2947-0",
              "system": "http://loinc.org",
              "display": "Sodium [Moles/volume] in Blood"
            }
          ],
          "text": "Sodium [Moles/volume] in Blood"
        },
        "valueQuantity": {
          "system": "http://unitsofmeasure.org",
          "value": 136.4,
          "unit": "mmol/L",
          "code": "mmol/L"
        },
        "referenceRange": [
          {
            "low": {
              "value": 135,
              "code": "mmol/L",
              "system": "http://unitsofmeasure.org"
            }
          },
          {
            "high": {
              "value": 145,
              "code": "mmol/L",
              "system": "http://unitsofmeasure.org"
            }
          }
        ],
        "text": {
          "status": "generated",
          "div": "<div xmlns=\"http://www.w3.org/1999/xhtml\"><table class=\"hl7__eu__lab__report\"><tr><th>Test</th><th>17-Jul-2025</th><th>Reference&#xA0;Range</th><th>Unit</th></tr><tr><td>Sodium [Moles/volume] in Blood</td><td>136.4</td><td>135 - 145</td><td></td><td>mmol/L</td></tr></table></div>"
        },
        "status": "final",
        "subject": {
          "reference": "urn:uuid:ae5576de-1095-423e-9201-f95fd8c77567",
          "display": "Pelayo Casal"
        },
        "effectiveDateTime": "2025-07-17T05:38:59Z",
        "specimen": {
          "reference": "urn:uuid:07679ba4-b4d2-4c88-bbce-434b9689b85c"
        }
      }
    },
    {
      "fullUrl": "urn:uuid:149a69a3-03bf-4ed1-8e7f-47b321252575",
      "resource": {
        "resourceType": "Observation",
        "id": "149a69a3-03bf-4ed1-8e7f-47b321252575",
        "meta": {
          "profile": [
            "http://hl7.eu/fhir/laboratory/StructureDefinition/Observation-resultslab-eu-lab"
          ]
        },
        "performer": [
          {
            "display": "The Central European Lab"
          }
        ],
        "category": [
          {
            "coding": [
              {
                "system": "http://terminology.hl7.org/CodeSystem/observation-category",
                "code": "laboratory"
              }
            ]
          }
        ],
        "code": {
          "coding": [
            {
              "code": "6298-4",
              "system": "http://loinc.org",
              "display": "Potassium [Moles/volume] in Blood"
            }
          ],
          "text": "Potassium [Moles/volume] in Blood"
        },
        "valueQuantity": {
          "system": "http://unitsofmeasure.org",
          "value": 4.5,
          "unit": "mmol/L",
          "code": "mmol/L"
        },
        "referenceRange": [
          {
            "low": {
              "value": 3.5,
              "code": "mmol/L",
              "system": "http://unitsofmeasure.org"
            }
          },
          {
            "high": {
              "value": 5.1,
              "code": "mmol/L",
              "system": "http://unitsofmeasure.org"
            }
          }
        ],
        "text": {
          "status": "generated",
          "div": "<div xmlns=\"http://www.w3.org/1999/xhtml\"><table class=\"hl7__eu__lab__report\"><tr><th>Test</th><th>17-Jul-2025</th><th>Reference&#xA0;Range</th><th>Unit</th></tr><tr><td>Potassium [Moles/volume] in Blood</td><td>4.5</td><td>3.5 - 5.1</td><td></td><td>mmol/L</td></tr></table></div>"
        },
        "status": "final",
        "subject": {
          "reference": "urn:uuid:ae5576de-1095-423e-9201-f95fd8c77567",
          "display": "Pelayo Casal"
        },
        "effectiveDateTime": "2025-07-17T05:38:59Z",
        "specimen": {
          "reference": "urn:uuid:07679ba4-b4d2-4c88-bbce-434b9689b85c"
        }
      }
    },
    {
      "fullUrl": "urn:uuid:a1bf5dcd-7b8e-4f6b-b05b-43195c68c2fe",
      "resource": {
        "resourceType": "Observation",
        "id": "a1bf5dcd-7b8e-4f6b-b05b-43195c68c2fe",
        "meta": {
          "profile": [
            "http://hl7.eu/fhir/laboratory/StructureDefinition/Observation-resultslab-eu-lab"
          ]
        },
        "performer": [
          {
            "display": "The Central European Lab"
          }
        ],
        "category": [
          {
            "coding": [
              {
                "system": "http://terminology.hl7.org/CodeSystem/observation-category",
                "code": "laboratory"
              }
            ]
          }
        ],
        "code": {
          "coding": [
            {
              "code": "2069-3",
              "system": "http://loinc.org",
              "display": "Chloride [Moles/volume] in Blood"
            }
          ],
          "text": "Chloride [Moles/volume] in Blood"
        },
        "valueQuantity": {
          "system": "http://unitsofmeasure.org",
          "value": 107.5,
          "unit": "mmol/L",
          "code": "mmol/L"
        },
        "referenceRange": [
          {
            "low": {
              "value": 98,
              "code": "mmol/L",
              "system": "http://unitsofmeasure.org"
            }
          },
          {
            "high": {
              "value": 108,
              "code": "mmol/L",
              "system": "http://unitsofmeasure.org"
            }
          }
        ],
        "text": {
          "status": "generated",
          "div": "<div xmlns=\"http://www.w3.org/1999/xhtml\"><table class=\"hl7__eu__lab__report\"><tr><th>Test</th><th>17-Jul-2025</th><th>Reference&#xA0;Range</th><th>Unit</th></tr><tr><td>Chloride [Moles/volume] in Blood</td><td>107.5</td><td>98 - 108</td><td></td><td>mmol/L</td></tr></table></div>"
        },
        "status": "final",
        "subject": {
          "reference": "urn:uuid:ae5576de-1095-423e-9201-f95fd8c77567",
          "display": "Pelayo Casal"
        },
        "effectiveDateTime": "2025-07-17T05:38:59Z",
        "specimen": {
          "reference": "urn:uuid:07679ba4-b4d2-4c88-bbce-434b9689b85c"
        }
      }
    },
    {
      "fullUrl": "urn:uuid:fdd97ab4-f73d-4587-b679-9ee5ea5f2867",
      "resource": {
        "resourceType": "Observation",
        "id": "fdd97ab4-f73d-4587-b679-9ee5ea5f2867",
        "meta": {
          "profile": [
            "http://hl7.eu/fhir/laboratory/StructureDefinition/Observation-resultslab-eu-lab"
          ]
        },
        "performer": [
          {
            "display": "The Central European Lab"
          }
        ],
        "category": [
          {
            "coding": [
              {
                "system": "http://terminology.hl7.org/CodeSystem/observation-category",
                "code": "laboratory"
              }
            ]
          }
        ],
        "code": {
          "coding": [
            {
              "code": "20565-8",
              "system": "http://loinc.org",
              "display": "Carbon dioxide, total [Moles/volume] in Blood"
            }
          ],
          "text": "Carbon dioxide, total [Moles/volume] in Blood"
        },
        "valueQuantity": {
          "system": "http://unitsofmeasure.org",
          "value": 26.9,
          "unit": "mmol/L",
          "code": "mmol/L"
        },
        "referenceRange": [
          {
            "low": {
              "value": 22,
              "code": "mmol/L",
              "system": "http://unitsofmeasure.org"
            }
          },
          {
            "high": {
              "value": 32,
              "code": "mmol/L",
              "system": "http://unitsofmeasure.org"
            }
          }
        ],
        "text": {
          "status": "generated",
          "div": "<div xmlns=\"http://www.w3.org/1999/xhtml\"><table class=\"hl7__eu__lab__report\"><tr><th>Test</th><th>17-Jul-2025</th><th>Reference&#xA0;Range</th><th>Unit</th></tr><tr><td>Carbon dioxide, total [Moles/volume] in Blood</td><td>26.9</td><td>22 - 32</td><td></td><td>mmol/L</td></tr></table></div>"
        },
        "status": "final",
        "subject": {
          "reference": "urn:uuid:ae5576de-1095-423e-9201-f95fd8c77567",
          "display": "Pelayo Casal"
        },
        "effectiveDateTime": "2025-07-17T05:38:59Z",
        "specimen": {
          "reference": "urn:uuid:07679ba4-b4d2-4c88-bbce-434b9689b85c"
        }
      }
    },
    {
      "fullUrl": "urn:uuid:bc2f52f7-cb9e-4dcb-bc06-e2443510a228",
      "resource": {
        "resourceType": "Device",
        "id": "bc2f52f7-cb9e-4dcb-bc06-e2443510a228",
        "deviceName": [
          {
            "name": "SYNDERAI Synthetic Generator",
            "type": "manufacturer-name"
          }
        ],
        "version": [
          {
            "value": "5.0"
          }
        ],
        "text": {
          "status": "generated",
          "div": "<div xmlns=\"http://www.w3.org/1999/xhtml\">SYNDERAI Synthetic Generator v5.0</div>"
        },
        "status": "active\"",
        "distinctIdentifier": "synderai-generator-50",
        "manufacturer": "SYNDERAI Project"
      }
    },
    {
      "fullUrl": "urn:uuid:f478addd-c5e4-4e75-bea3-e34fe56f52b8",
      "resource": {
        "resourceType": "Provenance",
        "id": "f478addd-c5e4-4e75-bea3-e34fe56f52b8",
        "target": [
          {
            "reference": "Patient/ae5576de-1095-423e-9201-f95fd8c77567"
          },
          {
            "reference": "Bundle/a95fb321-5138-40bc-8427-3a60fa51dbd6"
          },
          {
            "reference": "Composition/d65eefab-0f6f-4933-8ebb-c12c4da3c37e"
          },
          {
            "reference": "PractitionerRole/744194a2-f6db-49fa-81e4-a7a2732f6413"
          },
          {
            "reference": "Practitioner/b1d165c6-af49-4190-acfe-22ad3a88c863"
          },
          {
            "reference": "PractitionerRole/f02cee87-1018-4362-b34f-bb3959cfe28d"
          },
          {
            "reference": "Organization/f001de3c-f9d1-4e3f-a2a3-c0b9ab79221d"
          }
        ],
        "activity": {
          "text": "Synthetic Example Data Generation"
        },
        "policy": [
          "https://synderai.net/synderai-synthetic-data-policy"
        ],
        "agent": [
          {
            "type": {
              "text": "author"
            },
            "who": {
              "reference": "Device/bc2f52f7-cb9e-4dcb-bc06-e2443510a228"
            }
          }
        ],
        "reason": [
          {
            "text": "Interoperability Testing and Training (non-clinical use)"
          }
        ],
        "text": {
          "status": "generated",
          "div": "<div xmlns=\"http://www.w3.org/1999/xhtml\">Provenance for SYNDERAI Synthetic Example Data Resource</div>"
        },
        "recorded": "2025-07-17T07:38:59Z"
      }
    },
    {
      "fullUrl": "urn:uuid:744194a2-f6db-49fa-81e4-a7a2732f6413",
      "resource": {
        "resourceType": "PractitionerRole",
        "id": "744194a2-f6db-49fa-81e4-a7a2732f6413",
        "meta": {
          "profile": [
            "http://hl7.eu/fhir/base/StructureDefinition/practitionerRole-eu"
          ]
        },
        "text": {
          "status": "generated",
          "div": "<div xmlns=\"http://www.w3.org/1999/xhtml\">Laboratory Role Id: 744194a2-f6db-49fa-81e4-a7a2732f6413</div>"
        },
        "practitioner": {
          "reference": "urn:uuid:b1d165c6-af49-4190-acfe-22ad3a88c863"
        }
      }
    },
    {
      "fullUrl": "urn:uuid:b1d165c6-af49-4190-acfe-22ad3a88c863",
      "resource": {
        "resourceType": "Practitioner",
        "id": "b1d165c6-af49-4190-acfe-22ad3a88c863",
        "meta": {
          "profile": [
            "http://hl7.eu/fhir/base/StructureDefinition/practitioner-eu"
          ]
        },
        "identifier": [
          {
            "assigner": {
              "display": "HL7 Europe"
            },
            "system": "urn:oid:2.16.840.1.113883.2.51.999",
            "value": "cc517e3d-372c-4eab-bb56-fa570589e924"
          }
        ],
        "name": [
          {
            "prefix": [
              "dr"
            ],
            "given": [
              "Ex"
            ],
            "family": "Ample"
          }
        ],
        "address": [
          {
            "line": [
              "Laboratoire Central Européenne",
              "Boulevard du Jardin Botanique 32"
            ],
            "postalCode": "1000",
            "city": "Brussels",
            "country": "Belgium"
          }
        ],
        "text": {
          "status": "generated",
          "div": "<div xmlns=\"http://www.w3.org/1999/xhtml\">Laboratory: Laboratoire Central Européenne, 1000 Brussels, Belgium</div>"
        }
      }
    }
  ],
  "type": "document",
  "timestamp": "2025-07-17T07:38:59Z"
}
