{
  "resourceType": "Bundle",
  "id": "d74757b7-dc4c-4ed9-9d19-dfd1996728c3",
  "meta": {
    "profile": [
      "http://hl7.eu/fhir/laboratory/StructureDefinition/Bundle-eu-lab"
    ]
  },
  "identifier": {
    "assigner": {
      "display": "HL7 Europe"
    },
    "system": "urn:oid:2.16.840.1.113883.2.51.999",
    "value": "812f0f65-674a-4675-b468-8bec87885a6f"
  },
  "entry": [
    {
      "fullUrl": "urn:uuid:b81afbf1-b8e4-406d-9b63-de1a22eeccb3",
      "resource": {
        "resourceType": "Composition",
        "id": "b81afbf1-b8e4-406d-9b63-de1a22eeccb3",
        "meta": {
          "profile": [
            "http://hl7.eu/fhir/laboratory/StructureDefinition/Composition-eu-lab"
          ]
        },
        "identifier": {
          "assigner": {
            "display": "HL7 Europe"
          },
          "system": "urn:oid:2.16.840.1.113883.2.51.999",
          "value": "74097005-3185-428d-aacf-6aa0772934c3"
        },
        "author": [
          {
            "reference": "urn:uuid:56d9f306-1260-48de-8606-0f24a6b0e1a3"
          }
        ],
        "category": [
          {
            "coding": [
              {
                "code": "26436-6",
                "system": "http://loinc.org",
                "display": "Laboratory studies (set)"
              }
            ]
          }
        ],
        "type": {
          "coding": [
            {
              "code": "11502-2",
              "system": "http://loinc.org",
              "display": "Laboratory report"
            }
          ],
          "text": "Laboratory Report"
        },
        "section": [
          {
            "code": {
              "coding": [
                {
                  "code": "26436-6",
                  "system": "http://loinc.org",
                  "display": "Laboratory studies (set)"
                }
              ],
              "text": "Laboratory studies"
            },
            "section": [
              {
                "code": {
                  "coding": [
                    {
                      "code": "$18719-5",
                      "system": "http://loinc.org",
                      "display": "Chemistry studies (set)"
                    }
                  ],
                  "text": "Chemistry"
                },
                "entry": [
                  {
                    "reference": "urn:uuid:c74c9012-5a2f-4d23-acbd-e47badf360d5"
                  },
                  {
                    "reference": "urn:uuid:abfa40c2-ce5f-4dfc-8393-13f4f0fa9206"
                  },
                  {
                    "reference": "urn:uuid:d17624d6-8c0f-4ca2-95d6-4621585485e4"
                  },
                  {
                    "reference": "urn:uuid:d9f104c4-57f1-44ea-bf11-b18c9ccdce8e"
                  },
                  {
                    "reference": "urn:uuid:55ed77e1-7ac1-4bd1-b508-8e00fcd78246"
                  },
                  {
                    "reference": "urn:uuid:ef024b8f-673b-4e93-9f15-6e4bc83fa9ae"
                  },
                  {
                    "reference": "urn:uuid:d350440e-06e5-481e-b909-1d5849f60ab9"
                  },
                  {
                    "reference": "urn:uuid:938d88a1-6c07-49d8-ae03-10420ae28e5f"
                  },
                  {
                    "reference": "urn:uuid:750640fc-788c-4669-b4c5-12ccc89b4e39"
                  },
                  {
                    "reference": "urn:uuid:f2e40b5b-2e17-468c-b268-463c3749ba08"
                  },
                  {
                    "reference": "urn:uuid:94619517-c514-45c9-814f-48a803d63538"
                  },
                  {
                    "reference": "urn:uuid:5413f348-3380-40d1-b3fb-d4eeb91f976e"
                  },
                  {
                    "reference": "urn:uuid:72b352d4-b810-439e-b1a4-8776a17917e4"
                  },
                  {
                    "reference": "urn:uuid:2aea2860-eefa-4aaf-9cd4-0affe33d021c"
                  },
                  {
                    "reference": "urn:uuid:2d808be8-f617-4a41-9ba9-8ad0d2c1b7f9"
                  },
                  {
                    "reference": "urn:uuid:20be2a5a-5025-4622-a38d-dd405f84c864"
                  },
                  {
                    "reference": "urn:uuid:94f6ae0e-d4f9-4349-8dbb-7a696d592650"
                  },
                  {
                    "reference": "urn:uuid:aa95f25a-8596-473a-8af6-a147e859886a"
                  }
                ],
                "text": {
                  "status": "generated",
                  "div": "<div xmlns=\"http://www.w3.org/1999/xhtml\"><h3>Chemistry</h3><table class=\"hl7__eu__lab__report\"><thead><tr><th>Test</th><th>20-JAN-2025</th><th>Reference&#xA0;Range</th><th>Unit</th></tr></thead><tbody><tr><td>Glucose [Mass/volume] in Serum or Plasma</td><td><strong>65.7 L</strong></td><td>70 - 99</td><td>mg/dL</td></tr><tr><td>Urea nitrogen [Mass/volume] in Serum or Plasma</td><td>14.6</td><td>7 - 50</td><td>mg/dL</td></tr><tr><td>Creatinine [Mass/volume] in Serum or Plasma</td><td><strong>1.9 H</strong></td><td>0.6 - 1.1</td><td>mg/dL</td></tr><tr><td>Calcium [Mass/volume] in Serum or Plasma</td><td>9.7</td><td>8.6 - 10.4</td><td>mg/dL</td></tr><tr><td>Sodium [Moles/volume] in Serum or Plasma</td><td>138.4</td><td>135 - 145</td><td>mmol/L</td></tr><tr><td>Potassium [Moles/volume] in Serum or Plasma</td><td>4.8</td><td>3.5 - 5.1</td><td>mmol/L</td></tr><tr><td>Chloride [Moles/volume] in Serum or Plasma</td><td>101.5</td><td>98 - 108</td><td>mmol/L</td></tr><tr><td>Carbon dioxide, total [Moles/volume] in Serum or Plasma</td><td>26.4</td><td>22 - 32</td><td>mmol/L</td></tr><tr><td>Ketones [Presence] in Urine by Test strip</td><td>Urine ketone test = ++</td><td></td><td></td></tr><tr><td>Hemoglobin A1c/Hemoglobin.total in Blood</td><td>4.0</td><td>4 - 6.4</td><td>%</td></tr><tr><td>Glucose [Mass/volume] in Blood</td><td><strong>65.7 L</strong></td><td>70 - 100</td><td>mg/dL</td></tr><tr><td>Urea nitrogen [Mass/volume] in Blood</td><td>14.6</td><td>7 - 43</td><td>mg/dL</td></tr><tr><td>Creatinine [Mass/volume] in Blood</td><td><strong>4.7 H</strong></td><td>0.6 - 1.1</td><td>mg/dL</td></tr><tr><td>Calcium [Mass/volume] in Blood</td><td>9.7</td><td>8.5 - 10.5</td><td>mg/dL</td></tr><tr><td>Sodium [Moles/volume] in Blood</td><td>138.4</td><td>135 - 145</td><td>mmol/L</td></tr><tr><td>Potassium [Moles/volume] in Blood</td><td>4.8</td><td>3.5 - 5.1</td><td>mmol/L</td></tr><tr><td>Chloride [Moles/volume] in Blood</td><td>101.5</td><td>98 - 108</td><td>mmol/L</td></tr><tr><td>Carbon dioxide, total [Moles/volume] in Blood</td><td>26.4</td><td>22 - 29</td><td>mmol/L</td></tr></tbody></table></div>"
                },
                "title": "Chemistry"
              },
              {
                "code": {
                  "coding": [
                    {
                      "code": "$18729-4",
                      "system": "http://loinc.org",
                      "display": "Urinalysis studies (set)"
                    }
                  ],
                  "text": "Urinalysis"
                },
                "entry": [
                  {
                    "reference": "urn:uuid:385dd9f1-9c63-4220-9707-c8a9fc910957"
                  },
                  {
                    "reference": "urn:uuid:499ca8f8-be3d-474e-ba0c-af5a91283507"
                  },
                  {
                    "reference": "urn:uuid:369f2216-a882-4c85-bd72-823b6073aa56"
                  },
                  {
                    "reference": "urn:uuid:44d29cf1-9f98-442e-b7de-be082da5ff5e"
                  },
                  {
                    "reference": "urn:uuid:f8c1f911-48c2-418e-88fc-b1fda3d4cb5d"
                  },
                  {
                    "reference": "urn:uuid:fb7c30d9-d8c8-4e16-999f-eefced80da84"
                  },
                  {
                    "reference": "urn:uuid:c67db3e6-f4f2-4d93-9321-20b61bfa653e"
                  },
                  {
                    "reference": "urn:uuid:1ac5e3d5-e0aa-4886-a95e-84451b84c89e"
                  },
                  {
                    "reference": "urn:uuid:2ee4b450-19fb-413a-aad5-0fe6096d328a"
                  },
                  {
                    "reference": "urn:uuid:87b7b82d-bc06-42fa-a4b2-e950c8a99464"
                  },
                  {
                    "reference": "urn:uuid:0d53de62-6000-46de-8a30-bed95bd37b9b"
                  },
                  {
                    "reference": "urn:uuid:1833542b-8907-4ef7-8c6a-c9fc2d0f71dc"
                  }
                ],
                "text": {
                  "status": "generated",
                  "div": "<div xmlns=\"http://www.w3.org/1999/xhtml\"><h3>Urinalysis</h3><table class=\"hl7__eu__lab__report\"><thead><tr><th>Test</th><th>20-JAN-2025</th><th>Reference&#xA0;Range</th><th>Unit</th></tr></thead><tbody><tr><td>Glucose [Mass/volume] in Urine by Test strip</td><td><strong>1.0 H</strong></td><td>0.8 - 0</td><td>mg/dL</td></tr><tr><td>Glucose [Presence] in Urine by Test strip</td><td>++</td><td></td><td></td></tr><tr><td>Bilirubin.total [Mass/volume] in Urine by Test strip</td><td>0.8</td><td>0 - 1</td><td>mg/dL</td></tr><tr><td>Bilirubin.total [Presence] in Urine by Test strip</td><td>Finding of bilirubin in urine</td><td></td><td></td></tr><tr><td>Ketones [Mass/volume] in Urine by Test strip</td><td><strong>7.0 H</strong></td><td>0 - 4</td><td>mg/dL</td></tr><tr><td>Specific gravity of Urine by Test strip</td><td><strong>1.0 L</strong></td><td>1.005 - 1.03</td><td>{nominal}</td></tr><tr><td>pH of Urine by Test strip</td><td>6.6</td><td>4.6 - 7</td><td>pH</td></tr><tr><td>Protein [Mass/volume] in Urine by Test strip</td><td><strong>309.9 H</strong></td><td>0 - 14</td><td>mg/dL</td></tr><tr><td>Protein [Presence] in Urine by Test strip</td><td>Urine protein test = ++</td><td></td><td></td></tr><tr><td>Nitrite [Presence] in Urine by Test strip</td><td>Urine nitrite negative</td><td></td><td></td></tr><tr><td>Hemoglobin [Presence] in Urine by Test strip</td><td>Urine blood test = negative</td><td></td><td></td></tr><tr><td>Leukocyte esterase [Presence] in Urine by Test strip</td><td>Urine leukocyte test negative</td><td></td><td></td></tr></tbody></table></div>"
                },
                "title": "Urinalysis"
              },
              {
                "code": {
                  "coding": [
                    {
                      "code": "$LP7846-1",
                      "system": "http://loinc.org",
                      "display": "Specimen information"
                    }
                  ],
                  "text": "Specimen information"
                },
                "entry": [
                  {
                    "reference": "urn:uuid:104274f7-fca3-4350-a653-8bdb96059dcb"
                  },
                  {
                    "reference": "urn:uuid:397455b9-e918-4483-94ee-608cff12c46f"
                  },
                  {
                    "reference": "urn:uuid:be0ed956-3ca7-4ce9-aeae-c848143c7499"
                  },
                  {
                    "reference": "urn:uuid:691de5cf-0f61-4f6b-9d25-871689f93f1b"
                  }
                ],
                "text": {
                  "status": "generated",
                  "div": "<div xmlns=\"http://www.w3.org/1999/xhtml\"><h3>Specimen information</h3><table class=\"hl7__eu__lab__report\"><thead><tr><th>Test</th><th>20-JAN-2025</th><th>Specimen</th><th></th></tr></thead><tbody><tr><td>Appearance of Urine</td><td>Cloudy urine</td><td>Urine</td><td></td></tr><tr><td>Odor of Urine</td><td>Urine smell ammoniacal</td><td>Urine</td><td></td></tr><tr><td>Clarity of Urine</td><td>Translucent</td><td>Urine</td><td></td></tr><tr><td>Color of Urine</td><td>Brown color</td><td>Urine</td><td></td></tr></tbody></table></div>"
                },
                "title": "Specimen information"
              }
            ],
            "title": "Laboratory Report"
          },
          {
            "text": {
              "status": "generated",
              "div": "<div xmlns=\"http://www.w3.org/1999/xhtml\"><h3>Annotation</h3><table class=\"hl7__eu__lab__report\"><tr><th>Conclusion and Recommendations based on this report and previous findings known to us</th></tr><tr><td>The patient shows significant renal impairment (elevated creatinine in both serum and blood), marked proteinuria, glucosuria, and ketonuria, with low blood glucose. Urine is cloudy, brown, and has abnormal odor, but no evidence of infection (negative nitrite/leukocytes). Findings suggest possible acute or chronic kidney disease with nephrotic-range proteinuria and possible tubular dysfunction. Further clinical correlation and nephrology evaluation are recommended.</td></tr></table></div>"
            },
            "code": {
              "coding": [
                {
                  "system": "http://loinc.org",
                  "code": "48767-8",
                  "display": "Annotation comment"
                }
              ]
            },
            "title": "Annotation comment"
          }
        ],
        "status": "final",
        "subject": {
          "reference": "urn:uuid:330a167c-0168-4477-a833-860fe5801506",
          "display": "Meaghan Neary"
        },
        "date": "2025-01-20T23:11:04Z",
        "title": "Laboratory Report",
        "confidentiality": "N"
      }
    },
    {
      "fullUrl": "urn:uuid:408f9aa3-3f2a-4c31-b7ce-9f6ccf0a7c0f",
      "resource": {
        "resourceType": "DiagnosticReport",
        "id": "408f9aa3-3f2a-4c31-b7ce-9f6ccf0a7c0f",
        "meta": {
          "profile": [
            "http://hl7.eu/fhir/laboratory/StructureDefinition/DiagnosticReport-eu-lab"
          ]
        },
        "identifier": [
          {
            "assigner": {
              "display": "HL7 Europe"
            },
            "system": "urn:oid:2.16.840.1.113883.2.51.999",
            "value": "5fa535d8-24da-4625-b649-b5634d448a1d"
          }
        ],
        "extension": [
          {
            "url": "http://hl7.org/fhir/5.0/StructureDefinition/extension-DiagnosticReport.composition",
            "valueReference": {
              "reference": "urn:uuid:74097005-3185-428d-aacf-6aa0772934c3"
            }
          }
        ],
        "category": [
          {
            "coding": [
              {
                "code": "26436-6",
                "system": "http://loinc.org",
                "display": "Laboratory studies (set)"
              }
            ]
          }
        ],
        "specimen": [
          {
            "reference": "urn:uuid:2488d53c-f81f-49f1-945a-adf17f16a1b5"
          },
          {
            "reference": "urn:uuid:fa047939-80e0-4292-ab90-cbf6c78421bd"
          },
          {
            "reference": "urn:uuid:712f6e13-2cdd-46cc-86fb-54d0d05bb6e6"
          }
        ],
        "result": [
          {
            "reference": "urn:uuid:c74c9012-5a2f-4d23-acbd-e47badf360d5"
          },
          {
            "reference": "urn:uuid:abfa40c2-ce5f-4dfc-8393-13f4f0fa9206"
          },
          {
            "reference": "urn:uuid:d17624d6-8c0f-4ca2-95d6-4621585485e4"
          },
          {
            "reference": "urn:uuid:d9f104c4-57f1-44ea-bf11-b18c9ccdce8e"
          },
          {
            "reference": "urn:uuid:55ed77e1-7ac1-4bd1-b508-8e00fcd78246"
          },
          {
            "reference": "urn:uuid:ef024b8f-673b-4e93-9f15-6e4bc83fa9ae"
          },
          {
            "reference": "urn:uuid:d350440e-06e5-481e-b909-1d5849f60ab9"
          },
          {
            "reference": "urn:uuid:938d88a1-6c07-49d8-ae03-10420ae28e5f"
          },
          {
            "reference": "urn:uuid:104274f7-fca3-4350-a653-8bdb96059dcb"
          },
          {
            "reference": "urn:uuid:397455b9-e918-4483-94ee-608cff12c46f"
          },
          {
            "reference": "urn:uuid:be0ed956-3ca7-4ce9-aeae-c848143c7499"
          },
          {
            "reference": "urn:uuid:691de5cf-0f61-4f6b-9d25-871689f93f1b"
          },
          {
            "reference": "urn:uuid:385dd9f1-9c63-4220-9707-c8a9fc910957"
          },
          {
            "reference": "urn:uuid:499ca8f8-be3d-474e-ba0c-af5a91283507"
          },
          {
            "reference": "urn:uuid:369f2216-a882-4c85-bd72-823b6073aa56"
          },
          {
            "reference": "urn:uuid:44d29cf1-9f98-442e-b7de-be082da5ff5e"
          },
          {
            "reference": "urn:uuid:f8c1f911-48c2-418e-88fc-b1fda3d4cb5d"
          },
          {
            "reference": "urn:uuid:750640fc-788c-4669-b4c5-12ccc89b4e39"
          },
          {
            "reference": "urn:uuid:fb7c30d9-d8c8-4e16-999f-eefced80da84"
          },
          {
            "reference": "urn:uuid:c67db3e6-f4f2-4d93-9321-20b61bfa653e"
          },
          {
            "reference": "urn:uuid:1ac5e3d5-e0aa-4886-a95e-84451b84c89e"
          },
          {
            "reference": "urn:uuid:2ee4b450-19fb-413a-aad5-0fe6096d328a"
          },
          {
            "reference": "urn:uuid:87b7b82d-bc06-42fa-a4b2-e950c8a99464"
          },
          {
            "reference": "urn:uuid:0d53de62-6000-46de-8a30-bed95bd37b9b"
          },
          {
            "reference": "urn:uuid:1833542b-8907-4ef7-8c6a-c9fc2d0f71dc"
          },
          {
            "reference": "urn:uuid:f2e40b5b-2e17-468c-b268-463c3749ba08"
          },
          {
            "reference": "urn:uuid:94619517-c514-45c9-814f-48a803d63538"
          },
          {
            "reference": "urn:uuid:5413f348-3380-40d1-b3fb-d4eeb91f976e"
          },
          {
            "reference": "urn:uuid:72b352d4-b810-439e-b1a4-8776a17917e4"
          },
          {
            "reference": "urn:uuid:2aea2860-eefa-4aaf-9cd4-0affe33d021c"
          },
          {
            "reference": "urn:uuid:2d808be8-f617-4a41-9ba9-8ad0d2c1b7f9"
          },
          {
            "reference": "urn:uuid:20be2a5a-5025-4622-a38d-dd405f84c864"
          },
          {
            "reference": "urn:uuid:94f6ae0e-d4f9-4349-8dbb-7a696d592650"
          },
          {
            "reference": "urn:uuid:aa95f25a-8596-473a-8af6-a147e859886a"
          }
        ],
        "status": "registered",
        "code": {
          "coding": [
            {
              "code": "11502-2",
              "system": "http://loinc.org",
              "display": "Laboratory report"
            }
          ]
        },
        "subject": {
          "reference": "urn:uuid:330a167c-0168-4477-a833-860fe5801506",
          "display": "Meaghan Neary"
        }
      }
    },
    {
      "fullUrl": "urn:uuid:330a167c-0168-4477-a833-860fe5801506",
      "resource": {
        "resourceType": "Patient",
        "id": "330a167c-0168-4477-a833-860fe5801506",
        "meta": {
          "security": [
            {
              "system": "http://terminology.hl7.org/CodeSystem/v3-ActReason",
              "code": "HTEST"
            },
            {
              "system": "http://terminology.hl7.org/CodeSystem/v3-ActReason",
              "code": "TRAIN"
            }
          ],
          "tag": [
            {
              "system": "https://synderai.net/fhir/CodeSystem/tags",
              "code": "synthetic",
              "display": "SYNDERAI Synthetic data"
            }
          ],
          "profile": [
            "http://hl7.eu/fhir/base/StructureDefinition/patient-eu-core"
          ]
        },
        "identifier": [
          {
            "type": {
              "coding": [
                {
                  "code": "PT",
                  "system": "http://terminology.hl7.org/CodeSystem/v2-0203"
                }
              ]
            },
            "system": "http://ec.europa.eu/identifier/eci",
            "value": "1586-567257-8"
          },
          {
            "type": {
              "coding": [
                {
                  "code": "MR",
                  "system": "http://terminology.hl7.org/CodeSystem/v2-0203"
                }
              ]
            },
            "system": "http://local.setting.eu/identifier",
            "value": "443e6379-f231-b364-3ccb-644740a1aa2a"
          }
        ],
        "name": [
          {
            "family": "Neary"
          },
          {
            "given": [
              "Meaghan"
            ]
          },
          {
            "text": "Meaghan Neary"
          }
        ],
        "address": [
          {
            "line": [
              "64 Linskey Street"
            ],
            "use": "home",
            "type": "physical",
            "postalCode": "D02",
            "city": "Dublin",
            "country": "Ireland"
          }
        ],
        "telecom": [
          {
            "system": "phone",
            "value": "001-967-573-0911x465"
          }
        ],
        "extension": [
          {
            "url": "http://hl7.org/fhir/StructureDefinition/patient-nationality",
            "valueCodeableConcept": {
              "coding": [
                {
                  "code": "IE",
                  "system": "http://hl7.org/fhir/ValueSet/country"
                }
              ]
            }
          }
        ],
        "text": {
          "status": "generated",
          "div": "<div xmlns=\"http://www.w3.org/1999/xhtml\"><table class=\"hl7__ips\"><tr><td>Meaghan Neary</td><td>female</td><td>19-Dec-1960</td></tr></table></div>"
        },
        "gender": "female",
        "birthDate": "1960-12-19"
      }
    },
    {
      "fullUrl": "urn:uuid:d99d9bb9-9e8c-4138-8956-bc616d8bb744",
      "resource": {
        "resourceType": "ServiceRequest",
        "id": "d99d9bb9-9e8c-4138-8956-bc616d8bb744",
        "meta": {
          "profile": [
            "http://hl7.eu/fhir/laboratory/StructureDefinition/ServiceRequest-eu-lab"
          ]
        },
        "identifier": [
          {
            "system": "http://example.org",
            "value": "44861fc9-4cf7-4a68-a688-8c45e1e9b1f4"
          }
        ],
        "specimen": [
          {
            "reference": "urn:uuid:2488d53c-f81f-49f1-945a-adf17f16a1b5"
          },
          {
            "reference": "urn:uuid:fa047939-80e0-4292-ab90-cbf6c78421bd"
          },
          {
            "reference": "urn:uuid:712f6e13-2cdd-46cc-86fb-54d0d05bb6e6"
          }
        ],
        "reasonCode": [
          {
            "coding": [
              {
                "code": "55822004",
                "system": "http://snomed.info/sct",
                "display": "Hyperlipidemia"
              }
            ]
          },
          {
            "coding": [
              {
                "code": "433144002",
                "system": "http://snomed.info/sct",
                "display": "Chronic kidney disease stage 3"
              }
            ]
          },
          {
            "coding": [
              {
                "code": "157141000119108",
                "system": "http://snomed.info/sct",
                "display": "Proteinuria due to type 2 diabetes mellitus"
              }
            ]
          },
          {
            "coding": [
              {
                "code": "431856006",
                "system": "http://snomed.info/sct",
                "display": "Chronic kidney disease stage 2"
              }
            ]
          },
          {
            "coding": [
              {
                "code": "90781000119102",
                "system": "http://snomed.info/sct",
                "display": "Microalbuminuria due to type 2 diabetes mellitus"
              }
            ]
          },
          {
            "coding": [
              {
                "code": "127013003",
                "system": "http://snomed.info/sct",
                "display": "Disorder of kidney due to diabetes mellitus"
              }
            ]
          },
          {
            "coding": [
              {
                "code": "431855005",
                "system": "http://snomed.info/sct",
                "display": "Chronic kidney disease stage 1"
              }
            ]
          },
          {
            "coding": [
              {
                "code": "237602007",
                "system": "http://snomed.info/sct",
                "display": "Metabolic syndrome X"
              }
            ]
          },
          {
            "coding": [
              {
                "code": "271737000",
                "system": "http://snomed.info/sct",
                "display": "Anemia"
              }
            ]
          },
          {
            "coding": [
              {
                "code": "15777000",
                "system": "http://snomed.info/sct",
                "display": "Prediabetes"
              }
            ]
          },
          {
            "coding": [
              {
                "code": "59621000",
                "system": "http://snomed.info/sct",
                "display": "Essential hypertension"
              }
            ]
          }
        ],
        "status": "active",
        "intent": "order",
        "code": {
          "coding": [
            {
              "code": "108252007",
              "system": "http://snomed.info/sct",
              "display": "Laboratory procedure"
            }
          ]
        },
        "subject": {
          "reference": "urn:uuid:330a167c-0168-4477-a833-860fe5801506",
          "display": "Meaghan Neary"
        },
        "requester": {
          "reference": "urn:uuid:6e38b76d-9e69-4286-86d8-53fbf285fdc4"
        }
      }
    },
    {
      "fullUrl": "urn:uuid:6e38b76d-9e69-4286-86d8-53fbf285fdc4",
      "resource": {
        "resourceType": "PractitionerRole",
        "id": "6e38b76d-9e69-4286-86d8-53fbf285fdc4",
        "meta": {
          "profile": [
            "http://hl7.eu/fhir/base/StructureDefinition/practitionerRole-eu"
          ]
        },
        "text": {
          "status": "generated",
          "div": "<div xmlns=\"http://www.w3.org/1999/xhtml\">Provider Role Id: 6e38b76d-9e69-4286-86d8-53fbf285fdc4</div>"
        },
        "organization": {
          "reference": "urn:uuid:5971fcfc-a5bf-4ad5-8d24-bf86c5a9e835"
        }
      }
    },
    {
      "fullUrl": "urn:uuid:5971fcfc-a5bf-4ad5-8d24-bf86c5a9e835",
      "resource": {
        "resourceType": "Organization",
        "id": "5971fcfc-a5bf-4ad5-8d24-bf86c5a9e835",
        "meta": {
          "profile": [
            "http://hl7.eu/fhir/base/StructureDefinition/organization-eu"
          ]
        },
        "identifier": [
          {
            "assigner": {
              "display": "HL7 Europe"
            },
            "system": "urn:oid:2.16.840.1.113883.2.51.999",
            "value": "f60602eb-3159-42e3-a554-486fb4c30521"
          }
        ],
        "address": [
          {
            "line": [
              "Parnell Square West nan"
            ],
            "city": "Dublin",
            "postalCode": "D01",
            "country": "Ireland"
          }
        ],
        "text": {
          "status": "generated",
          "div": "<div xmlns=\"http://www.w3.org/1999/xhtml\">Provider Organization: Rotunda Hospital</div>"
        },
        "name": "Rotunda Hospital"
      }
    },
    {
      "fullUrl": "urn:uuid:2488d53c-f81f-49f1-945a-adf17f16a1b5",
      "resource": {
        "resourceType": "Specimen",
        "id": "2488d53c-f81f-49f1-945a-adf17f16a1b5",
        "meta": {
          "profile": [
            "http://hl7.eu/fhir/laboratory/StructureDefinition/Specimen-eu-lab"
          ]
        },
        "collection": {
          "collectedDateTime": "2025-01-20"
        },
        "text": {
          "status": "generated",
          "div": "<div xmlns=\"http://www.w3.org/1999/xhtml\"><table class=\"hl7__eu__lab__report\"><tr><th>Specimen</th><th>Collection Date</th></tr><tr><td>Acellular blood (serum or plasma) specimen</td><td><span class=\"nb\">20-Jan-2025</span></td></tr></table></div>"
        },
        "type": {
          "coding": [
            {
              "code": "122592007",
              "system": "http://snomed.info/sct",
              "display": "Acellular blood (serum or plasma) specimen"
            }
          ]
        }
      }
    },
    {
      "fullUrl": "urn:uuid:fa047939-80e0-4292-ab90-cbf6c78421bd",
      "resource": {
        "resourceType": "Specimen",
        "id": "fa047939-80e0-4292-ab90-cbf6c78421bd",
        "meta": {
          "profile": [
            "http://hl7.eu/fhir/laboratory/StructureDefinition/Specimen-eu-lab"
          ]
        },
        "collection": {
          "collectedDateTime": "2025-01-20"
        },
        "text": {
          "status": "generated",
          "div": "<div xmlns=\"http://www.w3.org/1999/xhtml\"><table class=\"hl7__eu__lab__report\"><tr><th>Specimen</th><th>Collection Date</th></tr><tr><td>Urine specimen</td><td><span class=\"nb\">20-Jan-2025</span></td></tr></table></div>"
        },
        "type": {
          "coding": [
            {
              "code": "122575003",
              "system": "http://snomed.info/sct",
              "display": "Urine specimen"
            }
          ]
        }
      }
    },
    {
      "fullUrl": "urn:uuid:712f6e13-2cdd-46cc-86fb-54d0d05bb6e6",
      "resource": {
        "resourceType": "Specimen",
        "id": "712f6e13-2cdd-46cc-86fb-54d0d05bb6e6",
        "meta": {
          "profile": [
            "http://hl7.eu/fhir/laboratory/StructureDefinition/Specimen-eu-lab"
          ]
        },
        "collection": {
          "collectedDateTime": "2025-01-20"
        },
        "text": {
          "status": "generated",
          "div": "<div xmlns=\"http://www.w3.org/1999/xhtml\"><table class=\"hl7__eu__lab__report\"><tr><th>Specimen</th><th>Collection Date</th></tr><tr><td>Whole blood specimen (specimen)</td><td><span class=\"nb\">20-Jan-2025</span></td></tr></table></div>"
        },
        "type": {
          "coding": [
            {
              "code": "258580003",
              "system": "http://snomed.info/sct",
              "display": "Whole blood specimen (specimen)"
            }
          ]
        }
      }
    },
    {
      "fullUrl": "urn:uuid:c74c9012-5a2f-4d23-acbd-e47badf360d5",
      "resource": {
        "resourceType": "Observation",
        "id": "c74c9012-5a2f-4d23-acbd-e47badf360d5",
        "meta": {
          "profile": [
            "http://hl7.eu/fhir/laboratory/StructureDefinition/Observation-resultslab-eu-lab"
          ]
        },
        "performer": [
          {
            "display": "The Central European Lab"
          }
        ],
        "category": [
          {
            "coding": [
              {
                "system": "http://terminology.hl7.org/CodeSystem/observation-category",
                "code": "laboratory"
              }
            ]
          }
        ],
        "code": {
          "coding": [
            {
              "code": "2345-7",
              "system": "http://loinc.org",
              "display": "Glucose [Mass/volume] in Serum or Plasma"
            }
          ],
          "text": "Glucose [Mass/volume] in Serum or Plasma"
        },
        "valueQuantity": {
          "system": "http://unitsofmeasure.org",
          "value": 65.7,
          "unit": "mg/dL",
          "code": "mg/dL"
        },
        "referenceRange": [
          {
            "low": {
              "value": 70,
              "code": "mg/dL",
              "system": "http://unitsofmeasure.org"
            }
          },
          {
            "high": {
              "value": 99,
              "code": "mg/dL",
              "system": "http://unitsofmeasure.org"
            }
          }
        ],
        "interpretation": [
          {
            "coding": [
              {
                "code": "L",
                "system": "http://terminology.hl7.org/CodeSystem/v3-ObservationInterpretation",
                "display": "Low"
              }
            ]
          }
        ],
        "text": {
          "status": "generated",
          "div": "<div xmlns=\"http://www.w3.org/1999/xhtml\"><table class=\"hl7__eu__lab__report\"><tr><th>Test</th><th>20-Jan-2025</th><th>Reference&#xA0;Range</th><th>Unit</th></tr><tr><td>Glucose [Mass/volume] in Serum or Plasma</td><td>65.7</td><td>70 - 99</td><td>L</td><td>mg/dL</td></tr></table></div>"
        },
        "status": "final",
        "subject": {
          "reference": "urn:uuid:330a167c-0168-4477-a833-860fe5801506",
          "display": "Meaghan Neary"
        },
        "effectiveDateTime": "2025-01-20T22:11:04Z",
        "specimen": {
          "reference": "urn:uuid:2488d53c-f81f-49f1-945a-adf17f16a1b5"
        }
      }
    },
    {
      "fullUrl": "urn:uuid:abfa40c2-ce5f-4dfc-8393-13f4f0fa9206",
      "resource": {
        "resourceType": "Observation",
        "id": "abfa40c2-ce5f-4dfc-8393-13f4f0fa9206",
        "meta": {
          "profile": [
            "http://hl7.eu/fhir/laboratory/StructureDefinition/Observation-resultslab-eu-lab"
          ]
        },
        "performer": [
          {
            "display": "The Central European Lab"
          }
        ],
        "category": [
          {
            "coding": [
              {
                "system": "http://terminology.hl7.org/CodeSystem/observation-category",
                "code": "laboratory"
              }
            ]
          }
        ],
        "code": {
          "coding": [
            {
              "code": "3094-0",
              "system": "http://loinc.org",
              "display": "Urea nitrogen [Mass/volume] in Serum or Plasma"
            }
          ],
          "text": "Urea nitrogen [Mass/volume] in Serum or Plasma"
        },
        "valueQuantity": {
          "system": "http://unitsofmeasure.org",
          "value": 14.6,
          "unit": "mg/dL",
          "code": "mg/dL"
        },
        "referenceRange": [
          {
            "low": {
              "value": 7,
              "code": "mg/dL",
              "system": "http://unitsofmeasure.org"
            }
          },
          {
            "high": {
              "value": 50,
              "code": "mg/dL",
              "system": "http://unitsofmeasure.org"
            }
          }
        ],
        "text": {
          "status": "generated",
          "div": "<div xmlns=\"http://www.w3.org/1999/xhtml\"><table class=\"hl7__eu__lab__report\"><tr><th>Test</th><th>20-Jan-2025</th><th>Reference&#xA0;Range</th><th>Unit</th></tr><tr><td>Urea nitrogen [Mass/volume] in Serum or Plasma</td><td>14.6</td><td>7 - 50</td><td></td><td>mg/dL</td></tr></table></div>"
        },
        "status": "final",
        "subject": {
          "reference": "urn:uuid:330a167c-0168-4477-a833-860fe5801506",
          "display": "Meaghan Neary"
        },
        "effectiveDateTime": "2025-01-20T22:11:04Z",
        "specimen": {
          "reference": "urn:uuid:2488d53c-f81f-49f1-945a-adf17f16a1b5"
        }
      }
    },
    {
      "fullUrl": "urn:uuid:d17624d6-8c0f-4ca2-95d6-4621585485e4",
      "resource": {
        "resourceType": "Observation",
        "id": "d17624d6-8c0f-4ca2-95d6-4621585485e4",
        "meta": {
          "profile": [
            "http://hl7.eu/fhir/laboratory/StructureDefinition/Observation-resultslab-eu-lab"
          ]
        },
        "performer": [
          {
            "display": "The Central European Lab"
          }
        ],
        "category": [
          {
            "coding": [
              {
                "system": "http://terminology.hl7.org/CodeSystem/observation-category",
                "code": "laboratory"
              }
            ]
          }
        ],
        "code": {
          "coding": [
            {
              "code": "2160-0",
              "system": "http://loinc.org",
              "display": "Creatinine [Mass/volume] in Serum or Plasma"
            }
          ],
          "text": "Creatinine [Mass/volume] in Serum or Plasma"
        },
        "valueQuantity": {
          "system": "http://unitsofmeasure.org",
          "value": 1.9,
          "unit": "mg/dL",
          "code": "mg/dL"
        },
        "referenceRange": [
          {
            "low": {
              "value": 0.6,
              "code": "mg/dL",
              "system": "http://unitsofmeasure.org"
            }
          },
          {
            "high": {
              "value": 1.1,
              "code": "mg/dL",
              "system": "http://unitsofmeasure.org"
            }
          }
        ],
        "interpretation": [
          {
            "coding": [
              {
                "code": "H",
                "system": "http://terminology.hl7.org/CodeSystem/v3-ObservationInterpretation",
                "display": "High"
              }
            ]
          }
        ],
        "text": {
          "status": "generated",
          "div": "<div xmlns=\"http://www.w3.org/1999/xhtml\"><table class=\"hl7__eu__lab__report\"><tr><th>Test</th><th>20-Jan-2025</th><th>Reference&#xA0;Range</th><th>Unit</th></tr><tr><td>Creatinine [Mass/volume] in Serum or Plasma</td><td>1.9</td><td>0.6 - 1.1</td><td>H</td><td>mg/dL</td></tr></table></div>"
        },
        "status": "final",
        "subject": {
          "reference": "urn:uuid:330a167c-0168-4477-a833-860fe5801506",
          "display": "Meaghan Neary"
        },
        "effectiveDateTime": "2025-01-20T22:11:04Z",
        "specimen": {
          "reference": "urn:uuid:2488d53c-f81f-49f1-945a-adf17f16a1b5"
        }
      }
    },
    {
      "fullUrl": "urn:uuid:d9f104c4-57f1-44ea-bf11-b18c9ccdce8e",
      "resource": {
        "resourceType": "Observation",
        "id": "d9f104c4-57f1-44ea-bf11-b18c9ccdce8e",
        "meta": {
          "profile": [
            "http://hl7.eu/fhir/laboratory/StructureDefinition/Observation-resultslab-eu-lab"
          ]
        },
        "performer": [
          {
            "display": "The Central European Lab"
          }
        ],
        "category": [
          {
            "coding": [
              {
                "system": "http://terminology.hl7.org/CodeSystem/observation-category",
                "code": "laboratory"
              }
            ]
          }
        ],
        "code": {
          "coding": [
            {
              "code": "17861-6",
              "system": "http://loinc.org",
              "display": "Calcium [Mass/volume] in Serum or Plasma"
            }
          ],
          "text": "Calcium [Mass/volume] in Serum or Plasma"
        },
        "valueQuantity": {
          "system": "http://unitsofmeasure.org",
          "value": 9.7,
          "unit": "mg/dL",
          "code": "mg/dL"
        },
        "referenceRange": [
          {
            "low": {
              "value": 8.6,
              "code": "mg/dL",
              "system": "http://unitsofmeasure.org"
            }
          },
          {
            "high": {
              "value": 10.4,
              "code": "mg/dL",
              "system": "http://unitsofmeasure.org"
            }
          }
        ],
        "text": {
          "status": "generated",
          "div": "<div xmlns=\"http://www.w3.org/1999/xhtml\"><table class=\"hl7__eu__lab__report\"><tr><th>Test</th><th>20-Jan-2025</th><th>Reference&#xA0;Range</th><th>Unit</th></tr><tr><td>Calcium [Mass/volume] in Serum or Plasma</td><td>9.7</td><td>8.6 - 10.4</td><td></td><td>mg/dL</td></tr></table></div>"
        },
        "status": "final",
        "subject": {
          "reference": "urn:uuid:330a167c-0168-4477-a833-860fe5801506",
          "display": "Meaghan Neary"
        },
        "effectiveDateTime": "2025-01-20T22:11:04Z",
        "specimen": {
          "reference": "urn:uuid:2488d53c-f81f-49f1-945a-adf17f16a1b5"
        }
      }
    },
    {
      "fullUrl": "urn:uuid:55ed77e1-7ac1-4bd1-b508-8e00fcd78246",
      "resource": {
        "resourceType": "Observation",
        "id": "55ed77e1-7ac1-4bd1-b508-8e00fcd78246",
        "meta": {
          "profile": [
            "http://hl7.eu/fhir/laboratory/StructureDefinition/Observation-resultslab-eu-lab"
          ]
        },
        "performer": [
          {
            "display": "The Central European Lab"
          }
        ],
        "category": [
          {
            "coding": [
              {
                "system": "http://terminology.hl7.org/CodeSystem/observation-category",
                "code": "laboratory"
              }
            ]
          }
        ],
        "code": {
          "coding": [
            {
              "code": "2951-2",
              "system": "http://loinc.org",
              "display": "Sodium [Moles/volume] in Serum or Plasma"
            }
          ],
          "text": "Sodium [Moles/volume] in Serum or Plasma"
        },
        "valueQuantity": {
          "system": "http://unitsofmeasure.org",
          "value": 138.4,
          "unit": "mmol/L",
          "code": "mmol/L"
        },
        "referenceRange": [
          {
            "low": {
              "value": 135,
              "code": "mmol/L",
              "system": "http://unitsofmeasure.org"
            }
          },
          {
            "high": {
              "value": 145,
              "code": "mmol/L",
              "system": "http://unitsofmeasure.org"
            }
          }
        ],
        "text": {
          "status": "generated",
          "div": "<div xmlns=\"http://www.w3.org/1999/xhtml\"><table class=\"hl7__eu__lab__report\"><tr><th>Test</th><th>20-Jan-2025</th><th>Reference&#xA0;Range</th><th>Unit</th></tr><tr><td>Sodium [Moles/volume] in Serum or Plasma</td><td>138.4</td><td>135 - 145</td><td></td><td>mmol/L</td></tr></table></div>"
        },
        "status": "final",
        "subject": {
          "reference": "urn:uuid:330a167c-0168-4477-a833-860fe5801506",
          "display": "Meaghan Neary"
        },
        "effectiveDateTime": "2025-01-20T22:11:04Z",
        "specimen": {
          "reference": "urn:uuid:2488d53c-f81f-49f1-945a-adf17f16a1b5"
        }
      }
    },
    {
      "fullUrl": "urn:uuid:ef024b8f-673b-4e93-9f15-6e4bc83fa9ae",
      "resource": {
        "resourceType": "Observation",
        "id": "ef024b8f-673b-4e93-9f15-6e4bc83fa9ae",
        "meta": {
          "profile": [
            "http://hl7.eu/fhir/laboratory/StructureDefinition/Observation-resultslab-eu-lab"
          ]
        },
        "performer": [
          {
            "display": "The Central European Lab"
          }
        ],
        "category": [
          {
            "coding": [
              {
                "system": "http://terminology.hl7.org/CodeSystem/observation-category",
                "code": "laboratory"
              }
            ]
          }
        ],
        "code": {
          "coding": [
            {
              "code": "2823-3",
              "system": "http://loinc.org",
              "display": "Potassium [Moles/volume] in Serum or Plasma"
            }
          ],
          "text": "Potassium [Moles/volume] in Serum or Plasma"
        },
        "valueQuantity": {
          "system": "http://unitsofmeasure.org",
          "value": 4.8,
          "unit": "mmol/L",
          "code": "mmol/L"
        },
        "referenceRange": [
          {
            "low": {
              "value": 3.5,
              "code": "mmol/L",
              "system": "http://unitsofmeasure.org"
            }
          },
          {
            "high": {
              "value": 5.1,
              "code": "mmol/L",
              "system": "http://unitsofmeasure.org"
            }
          }
        ],
        "text": {
          "status": "generated",
          "div": "<div xmlns=\"http://www.w3.org/1999/xhtml\"><table class=\"hl7__eu__lab__report\"><tr><th>Test</th><th>20-Jan-2025</th><th>Reference&#xA0;Range</th><th>Unit</th></tr><tr><td>Potassium [Moles/volume] in Serum or Plasma</td><td>4.8</td><td>3.5 - 5.1</td><td></td><td>mmol/L</td></tr></table></div>"
        },
        "status": "final",
        "subject": {
          "reference": "urn:uuid:330a167c-0168-4477-a833-860fe5801506",
          "display": "Meaghan Neary"
        },
        "effectiveDateTime": "2025-01-20T22:11:04Z",
        "specimen": {
          "reference": "urn:uuid:2488d53c-f81f-49f1-945a-adf17f16a1b5"
        }
      }
    },
    {
      "fullUrl": "urn:uuid:d350440e-06e5-481e-b909-1d5849f60ab9",
      "resource": {
        "resourceType": "Observation",
        "id": "d350440e-06e5-481e-b909-1d5849f60ab9",
        "meta": {
          "profile": [
            "http://hl7.eu/fhir/laboratory/StructureDefinition/Observation-resultslab-eu-lab"
          ]
        },
        "performer": [
          {
            "display": "The Central European Lab"
          }
        ],
        "category": [
          {
            "coding": [
              {
                "system": "http://terminology.hl7.org/CodeSystem/observation-category",
                "code": "laboratory"
              }
            ]
          }
        ],
        "code": {
          "coding": [
            {
              "code": "2075-0",
              "system": "http://loinc.org",
              "display": "Chloride [Moles/volume] in Serum or Plasma"
            }
          ],
          "text": "Chloride [Moles/volume] in Serum or Plasma"
        },
        "valueQuantity": {
          "system": "http://unitsofmeasure.org",
          "value": 101.5,
          "unit": "mmol/L",
          "code": "mmol/L"
        },
        "referenceRange": [
          {
            "low": {
              "value": 98,
              "code": "mmol/L",
              "system": "http://unitsofmeasure.org"
            }
          },
          {
            "high": {
              "value": 108,
              "code": "mmol/L",
              "system": "http://unitsofmeasure.org"
            }
          }
        ],
        "text": {
          "status": "generated",
          "div": "<div xmlns=\"http://www.w3.org/1999/xhtml\"><table class=\"hl7__eu__lab__report\"><tr><th>Test</th><th>20-Jan-2025</th><th>Reference&#xA0;Range</th><th>Unit</th></tr><tr><td>Chloride [Moles/volume] in Serum or Plasma</td><td>101.5</td><td>98 - 108</td><td></td><td>mmol/L</td></tr></table></div>"
        },
        "status": "final",
        "subject": {
          "reference": "urn:uuid:330a167c-0168-4477-a833-860fe5801506",
          "display": "Meaghan Neary"
        },
        "effectiveDateTime": "2025-01-20T22:11:04Z",
        "specimen": {
          "reference": "urn:uuid:2488d53c-f81f-49f1-945a-adf17f16a1b5"
        }
      }
    },
    {
      "fullUrl": "urn:uuid:938d88a1-6c07-49d8-ae03-10420ae28e5f",
      "resource": {
        "resourceType": "Observation",
        "id": "938d88a1-6c07-49d8-ae03-10420ae28e5f",
        "meta": {
          "profile": [
            "http://hl7.eu/fhir/laboratory/StructureDefinition/Observation-resultslab-eu-lab"
          ]
        },
        "performer": [
          {
            "display": "The Central European Lab"
          }
        ],
        "category": [
          {
            "coding": [
              {
                "system": "http://terminology.hl7.org/CodeSystem/observation-category",
                "code": "laboratory"
              }
            ]
          }
        ],
        "code": {
          "coding": [
            {
              "code": "2028-9",
              "system": "http://loinc.org",
              "display": "Carbon dioxide, total [Moles/volume] in Serum or Plasma"
            }
          ],
          "text": "Carbon dioxide, total [Moles/volume] in Serum or Plasma"
        },
        "valueQuantity": {
          "system": "http://unitsofmeasure.org",
          "value": 26.4,
          "unit": "mmol/L",
          "code": "mmol/L"
        },
        "referenceRange": [
          {
            "low": {
              "value": 22,
              "code": "mmol/L",
              "system": "http://unitsofmeasure.org"
            }
          },
          {
            "high": {
              "value": 32,
              "code": "mmol/L",
              "system": "http://unitsofmeasure.org"
            }
          }
        ],
        "text": {
          "status": "generated",
          "div": "<div xmlns=\"http://www.w3.org/1999/xhtml\"><table class=\"hl7__eu__lab__report\"><tr><th>Test</th><th>20-Jan-2025</th><th>Reference&#xA0;Range</th><th>Unit</th></tr><tr><td>Carbon dioxide, total [Moles/volume] in Serum or Plasma</td><td>26.4</td><td>22 - 32</td><td></td><td>mmol/L</td></tr></table></div>"
        },
        "status": "final",
        "subject": {
          "reference": "urn:uuid:330a167c-0168-4477-a833-860fe5801506",
          "display": "Meaghan Neary"
        },
        "effectiveDateTime": "2025-01-20T22:11:04Z",
        "specimen": {
          "reference": "urn:uuid:2488d53c-f81f-49f1-945a-adf17f16a1b5"
        }
      }
    },
    {
      "fullUrl": "urn:uuid:104274f7-fca3-4350-a653-8bdb96059dcb",
      "resource": {
        "resourceType": "Observation",
        "id": "104274f7-fca3-4350-a653-8bdb96059dcb",
        "meta": {
          "profile": [
            "http://hl7.eu/fhir/laboratory/StructureDefinition/Observation-resultslab-eu-lab"
          ]
        },
        "performer": [
          {
            "display": "The Central European Lab"
          }
        ],
        "category": [
          {
            "coding": [
              {
                "system": "http://terminology.hl7.org/CodeSystem/observation-category",
                "code": "laboratory"
              }
            ]
          }
        ],
        "code": {
          "coding": [
            {
              "code": "5767-9",
              "system": "http://loinc.org",
              "display": "Appearance of Urine"
            }
          ],
          "text": "Appearance of Urine"
        },
        "text": {
          "status": "generated",
          "div": "<div xmlns=\"http://www.w3.org/1999/xhtml\"><table class=\"hl7__eu__lab__report\"><tr><th>Test</th><th>20-Jan-2025</th><th>Reference&#xA0;Range</th><th>Unit</th></tr><tr><td>Appearance of Urine</td></tr></table></div>"
        },
        "status": "final",
        "subject": {
          "reference": "urn:uuid:330a167c-0168-4477-a833-860fe5801506",
          "display": "Meaghan Neary"
        },
        "effectiveDateTime": "2025-01-20T22:11:04Z",
        "specimen": {
          "reference": "urn:uuid:fa047939-80e0-4292-ab90-cbf6c78421bd"
        }
      }
    },
    {
      "fullUrl": "urn:uuid:397455b9-e918-4483-94ee-608cff12c46f",
      "resource": {
        "resourceType": "Observation",
        "id": "397455b9-e918-4483-94ee-608cff12c46f",
        "meta": {
          "profile": [
            "http://hl7.eu/fhir/laboratory/StructureDefinition/Observation-resultslab-eu-lab"
          ]
        },
        "performer": [
          {
            "display": "The Central European Lab"
          }
        ],
        "category": [
          {
            "coding": [
              {
                "system": "http://terminology.hl7.org/CodeSystem/observation-category",
                "code": "laboratory"
              }
            ]
          }
        ],
        "code": {
          "coding": [
            {
              "code": "34533-0",
              "system": "http://loinc.org",
              "display": "Odor of Urine"
            }
          ],
          "text": "Odor of Urine"
        },
        "text": {
          "status": "generated",
          "div": "<div xmlns=\"http://www.w3.org/1999/xhtml\"><table class=\"hl7__eu__lab__report\"><tr><th>Test</th><th>20-Jan-2025</th><th>Reference&#xA0;Range</th><th>Unit</th></tr><tr><td>Odor of Urine</td></tr></table></div>"
        },
        "status": "final",
        "subject": {
          "reference": "urn:uuid:330a167c-0168-4477-a833-860fe5801506",
          "display": "Meaghan Neary"
        },
        "effectiveDateTime": "2025-01-20T22:11:04Z",
        "specimen": {
          "reference": "urn:uuid:fa047939-80e0-4292-ab90-cbf6c78421bd"
        }
      }
    },
    {
      "fullUrl": "urn:uuid:be0ed956-3ca7-4ce9-aeae-c848143c7499",
      "resource": {
        "resourceType": "Observation",
        "id": "be0ed956-3ca7-4ce9-aeae-c848143c7499",
        "meta": {
          "profile": [
            "http://hl7.eu/fhir/laboratory/StructureDefinition/Observation-resultslab-eu-lab"
          ]
        },
        "performer": [
          {
            "display": "The Central European Lab"
          }
        ],
        "category": [
          {
            "coding": [
              {
                "system": "http://terminology.hl7.org/CodeSystem/observation-category",
                "code": "laboratory"
              }
            ]
          }
        ],
        "code": {
          "coding": [
            {
              "code": "32167-9",
              "system": "http://loinc.org",
              "display": "Clarity of Urine"
            }
          ],
          "text": "Clarity of Urine"
        },
        "text": {
          "status": "generated",
          "div": "<div xmlns=\"http://www.w3.org/1999/xhtml\"><table class=\"hl7__eu__lab__report\"><tr><th>Test</th><th>20-Jan-2025</th><th>Reference&#xA0;Range</th><th>Unit</th></tr><tr><td>Clarity of Urine</td></tr></table></div>"
        },
        "status": "final",
        "subject": {
          "reference": "urn:uuid:330a167c-0168-4477-a833-860fe5801506",
          "display": "Meaghan Neary"
        },
        "effectiveDateTime": "2025-01-20T22:11:04Z",
        "specimen": {
          "reference": "urn:uuid:fa047939-80e0-4292-ab90-cbf6c78421bd"
        }
      }
    },
    {
      "fullUrl": "urn:uuid:691de5cf-0f61-4f6b-9d25-871689f93f1b",
      "resource": {
        "resourceType": "Observation",
        "id": "691de5cf-0f61-4f6b-9d25-871689f93f1b",
        "meta": {
          "profile": [
            "http://hl7.eu/fhir/laboratory/StructureDefinition/Observation-resultslab-eu-lab"
          ]
        },
        "performer": [
          {
            "display": "The Central European Lab"
          }
        ],
        "category": [
          {
            "coding": [
              {
                "system": "http://terminology.hl7.org/CodeSystem/observation-category",
                "code": "laboratory"
              }
            ]
          }
        ],
        "code": {
          "coding": [
            {
              "code": "5778-6",
              "system": "http://loinc.org",
              "display": "Color of Urine"
            }
          ],
          "text": "Color of Urine"
        },
        "text": {
          "status": "generated",
          "div": "<div xmlns=\"http://www.w3.org/1999/xhtml\"><table class=\"hl7__eu__lab__report\"><tr><th>Test</th><th>20-Jan-2025</th><th>Reference&#xA0;Range</th><th>Unit</th></tr><tr><td>Color of Urine</td></tr></table></div>"
        },
        "status": "final",
        "subject": {
          "reference": "urn:uuid:330a167c-0168-4477-a833-860fe5801506",
          "display": "Meaghan Neary"
        },
        "effectiveDateTime": "2025-01-20T22:11:04Z",
        "specimen": {
          "reference": "urn:uuid:fa047939-80e0-4292-ab90-cbf6c78421bd"
        }
      }
    },
    {
      "fullUrl": "urn:uuid:385dd9f1-9c63-4220-9707-c8a9fc910957",
      "resource": {
        "resourceType": "Observation",
        "id": "385dd9f1-9c63-4220-9707-c8a9fc910957",
        "meta": {
          "profile": [
            "http://hl7.eu/fhir/laboratory/StructureDefinition/Observation-resultslab-eu-lab"
          ]
        },
        "performer": [
          {
            "display": "The Central European Lab"
          }
        ],
        "category": [
          {
            "coding": [
              {
                "system": "http://terminology.hl7.org/CodeSystem/observation-category",
                "code": "laboratory"
              }
            ]
          }
        ],
        "code": {
          "coding": [
            {
              "code": "5792-7",
              "system": "http://loinc.org",
              "display": "Glucose [Mass/volume] in Urine by Test strip"
            }
          ],
          "text": "Glucose [Mass/volume] in Urine by Test strip"
        },
        "valueQuantity": {
          "system": "http://unitsofmeasure.org",
          "value": 1,
          "unit": "mg/dL",
          "code": "mg/dL"
        },
        "referenceRange": [
          {
            "low": {
              "value": 0.8,
              "code": "mg/dL",
              "system": "http://unitsofmeasure.org"
            }
          },
          {
            "high": {
              "value": 0,
              "code": "mg/dL",
              "system": "http://unitsofmeasure.org"
            }
          }
        ],
        "interpretation": [
          {
            "coding": [
              {
                "code": "H",
                "system": "http://terminology.hl7.org/CodeSystem/v3-ObservationInterpretation",
                "display": "High"
              }
            ]
          }
        ],
        "text": {
          "status": "generated",
          "div": "<div xmlns=\"http://www.w3.org/1999/xhtml\"><table class=\"hl7__eu__lab__report\"><tr><th>Test</th><th>20-Jan-2025</th><th>Reference&#xA0;Range</th><th>Unit</th></tr><tr><td>Glucose [Mass/volume] in Urine by Test strip</td><td>1.0</td><td>0.8 - 0</td><td>H</td><td>mg/dL</td></tr></table></div>"
        },
        "status": "final",
        "subject": {
          "reference": "urn:uuid:330a167c-0168-4477-a833-860fe5801506",
          "display": "Meaghan Neary"
        },
        "effectiveDateTime": "2025-01-20T22:11:04Z",
        "specimen": {
          "reference": "urn:uuid:fa047939-80e0-4292-ab90-cbf6c78421bd"
        }
      }
    },
    {
      "fullUrl": "urn:uuid:499ca8f8-be3d-474e-ba0c-af5a91283507",
      "resource": {
        "resourceType": "Observation",
        "id": "499ca8f8-be3d-474e-ba0c-af5a91283507",
        "meta": {
          "profile": [
            "http://hl7.eu/fhir/laboratory/StructureDefinition/Observation-resultslab-eu-lab"
          ]
        },
        "performer": [
          {
            "display": "The Central European Lab"
          }
        ],
        "category": [
          {
            "coding": [
              {
                "system": "http://terminology.hl7.org/CodeSystem/observation-category",
                "code": "laboratory"
              }
            ]
          }
        ],
        "code": {
          "coding": [
            {
              "code": "25428-4",
              "system": "http://loinc.org",
              "display": "Glucose [Presence] in Urine by Test strip"
            }
          ],
          "text": "Glucose [Presence] in Urine by Test strip"
        },
        "text": {
          "status": "generated",
          "div": "<div xmlns=\"http://www.w3.org/1999/xhtml\"><table class=\"hl7__eu__lab__report\"><tr><th>Test</th><th>20-Jan-2025</th><th>Reference&#xA0;Range</th><th>Unit</th></tr><tr><td>Glucose [Presence] in Urine by Test strip</td></tr></table></div>"
        },
        "status": "final",
        "subject": {
          "reference": "urn:uuid:330a167c-0168-4477-a833-860fe5801506",
          "display": "Meaghan Neary"
        },
        "effectiveDateTime": "2025-01-20T22:11:04Z",
        "specimen": {
          "reference": "urn:uuid:fa047939-80e0-4292-ab90-cbf6c78421bd"
        }
      }
    },
    {
      "fullUrl": "urn:uuid:369f2216-a882-4c85-bd72-823b6073aa56",
      "resource": {
        "resourceType": "Observation",
        "id": "369f2216-a882-4c85-bd72-823b6073aa56",
        "meta": {
          "profile": [
            "http://hl7.eu/fhir/laboratory/StructureDefinition/Observation-resultslab-eu-lab"
          ]
        },
        "performer": [
          {
            "display": "The Central European Lab"
          }
        ],
        "category": [
          {
            "coding": [
              {
                "system": "http://terminology.hl7.org/CodeSystem/observation-category",
                "code": "laboratory"
              }
            ]
          }
        ],
        "code": {
          "coding": [
            {
              "code": "20505-4",
              "system": "http://loinc.org",
              "display": "Bilirubin.total [Mass/volume] in Urine by Test strip"
            }
          ],
          "text": "Bilirubin.total [Mass/volume] in Urine by Test strip"
        },
        "valueQuantity": {
          "system": "http://unitsofmeasure.org",
          "value": 0.8,
          "unit": "mg/dL",
          "code": "mg/dL"
        },
        "referenceRange": [
          {
            "low": {
              "value": 0,
              "code": "mg/dL",
              "system": "http://unitsofmeasure.org"
            }
          },
          {
            "high": {
              "value": 1,
              "code": "mg/dL",
              "system": "http://unitsofmeasure.org"
            }
          }
        ],
        "text": {
          "status": "generated",
          "div": "<div xmlns=\"http://www.w3.org/1999/xhtml\"><table class=\"hl7__eu__lab__report\"><tr><th>Test</th><th>20-Jan-2025</th><th>Reference&#xA0;Range</th><th>Unit</th></tr><tr><td>Bilirubin.total [Mass/volume] in Urine by Test strip</td><td>0.8</td><td>0 - 1</td><td></td><td>mg/dL</td></tr></table></div>"
        },
        "status": "final",
        "subject": {
          "reference": "urn:uuid:330a167c-0168-4477-a833-860fe5801506",
          "display": "Meaghan Neary"
        },
        "effectiveDateTime": "2025-01-20T22:11:04Z",
        "specimen": {
          "reference": "urn:uuid:fa047939-80e0-4292-ab90-cbf6c78421bd"
        }
      }
    },
    {
      "fullUrl": "urn:uuid:44d29cf1-9f98-442e-b7de-be082da5ff5e",
      "resource": {
        "resourceType": "Observation",
        "id": "44d29cf1-9f98-442e-b7de-be082da5ff5e",
        "meta": {
          "profile": [
            "http://hl7.eu/fhir/laboratory/StructureDefinition/Observation-resultslab-eu-lab"
          ]
        },
        "performer": [
          {
            "display": "The Central European Lab"
          }
        ],
        "category": [
          {
            "coding": [
              {
                "system": "http://terminology.hl7.org/CodeSystem/observation-category",
                "code": "laboratory"
              }
            ]
          }
        ],
        "code": {
          "coding": [
            {
              "code": "5770-3",
              "system": "http://loinc.org",
              "display": "Bilirubin.total [Presence] in Urine by Test strip"
            }
          ],
          "text": "Bilirubin.total [Presence] in Urine by Test strip"
        },
        "text": {
          "status": "generated",
          "div": "<div xmlns=\"http://www.w3.org/1999/xhtml\"><table class=\"hl7__eu__lab__report\"><tr><th>Test</th><th>20-Jan-2025</th><th>Reference&#xA0;Range</th><th>Unit</th></tr><tr><td>Bilirubin.total [Presence] in Urine by Test strip</td></tr></table></div>"
        },
        "status": "final",
        "subject": {
          "reference": "urn:uuid:330a167c-0168-4477-a833-860fe5801506",
          "display": "Meaghan Neary"
        },
        "effectiveDateTime": "2025-01-20T22:11:04Z",
        "specimen": {
          "reference": "urn:uuid:fa047939-80e0-4292-ab90-cbf6c78421bd"
        }
      }
    },
    {
      "fullUrl": "urn:uuid:f8c1f911-48c2-418e-88fc-b1fda3d4cb5d",
      "resource": {
        "resourceType": "Observation",
        "id": "f8c1f911-48c2-418e-88fc-b1fda3d4cb5d",
        "meta": {
          "profile": [
            "http://hl7.eu/fhir/laboratory/StructureDefinition/Observation-resultslab-eu-lab"
          ]
        },
        "performer": [
          {
            "display": "The Central European Lab"
          }
        ],
        "category": [
          {
            "coding": [
              {
                "system": "http://terminology.hl7.org/CodeSystem/observation-category",
                "code": "laboratory"
              }
            ]
          }
        ],
        "code": {
          "coding": [
            {
              "code": "5797-6",
              "system": "http://loinc.org",
              "display": "Ketones [Mass/volume] in Urine by Test strip"
            }
          ],
          "text": "Ketones [Mass/volume] in Urine by Test strip"
        },
        "valueQuantity": {
          "system": "http://unitsofmeasure.org",
          "value": 7,
          "unit": "mg/dL",
          "code": "mg/dL"
        },
        "referenceRange": [
          {
            "low": {
              "value": 0,
              "code": "mg/dL",
              "system": "http://unitsofmeasure.org"
            }
          },
          {
            "high": {
              "value": 4,
              "code": "mg/dL",
              "system": "http://unitsofmeasure.org"
            }
          }
        ],
        "interpretation": [
          {
            "coding": [
              {
                "code": "H",
                "system": "http://terminology.hl7.org/CodeSystem/v3-ObservationInterpretation",
                "display": "High"
              }
            ]
          }
        ],
        "text": {
          "status": "generated",
          "div": "<div xmlns=\"http://www.w3.org/1999/xhtml\"><table class=\"hl7__eu__lab__report\"><tr><th>Test</th><th>20-Jan-2025</th><th>Reference&#xA0;Range</th><th>Unit</th></tr><tr><td>Ketones [Mass/volume] in Urine by Test strip</td><td>7.0</td><td>0 - 4</td><td>H</td><td>mg/dL</td></tr></table></div>"
        },
        "status": "final",
        "subject": {
          "reference": "urn:uuid:330a167c-0168-4477-a833-860fe5801506",
          "display": "Meaghan Neary"
        },
        "effectiveDateTime": "2025-01-20T22:11:04Z",
        "specimen": {
          "reference": "urn:uuid:fa047939-80e0-4292-ab90-cbf6c78421bd"
        }
      }
    },
    {
      "fullUrl": "urn:uuid:750640fc-788c-4669-b4c5-12ccc89b4e39",
      "resource": {
        "resourceType": "Observation",
        "id": "750640fc-788c-4669-b4c5-12ccc89b4e39",
        "meta": {
          "profile": [
            "http://hl7.eu/fhir/laboratory/StructureDefinition/Observation-resultslab-eu-lab"
          ]
        },
        "performer": [
          {
            "display": "The Central European Lab"
          }
        ],
        "category": [
          {
            "coding": [
              {
                "system": "http://terminology.hl7.org/CodeSystem/observation-category",
                "code": "laboratory"
              }
            ]
          }
        ],
        "code": {
          "coding": [
            {
              "code": "2514-8",
              "system": "http://loinc.org",
              "display": "Ketones [Presence] in Urine by Test strip"
            }
          ],
          "text": "Ketones [Presence] in Urine by Test strip"
        },
        "text": {
          "status": "generated",
          "div": "<div xmlns=\"http://www.w3.org/1999/xhtml\"><table class=\"hl7__eu__lab__report\"><tr><th>Test</th><th>20-Jan-2025</th><th>Reference&#xA0;Range</th><th>Unit</th></tr><tr><td>Ketones [Presence] in Urine by Test strip</td></tr></table></div>"
        },
        "status": "final",
        "subject": {
          "reference": "urn:uuid:330a167c-0168-4477-a833-860fe5801506",
          "display": "Meaghan Neary"
        },
        "effectiveDateTime": "2025-01-20T22:11:04Z",
        "specimen": {
          "reference": "urn:uuid:fa047939-80e0-4292-ab90-cbf6c78421bd"
        }
      }
    },
    {
      "fullUrl": "urn:uuid:fb7c30d9-d8c8-4e16-999f-eefced80da84",
      "resource": {
        "resourceType": "Observation",
        "id": "fb7c30d9-d8c8-4e16-999f-eefced80da84",
        "meta": {
          "profile": [
            "http://hl7.eu/fhir/laboratory/StructureDefinition/Observation-resultslab-eu-lab"
          ]
        },
        "performer": [
          {
            "display": "The Central European Lab"
          }
        ],
        "category": [
          {
            "coding": [
              {
                "system": "http://terminology.hl7.org/CodeSystem/observation-category",
                "code": "laboratory"
              }
            ]
          }
        ],
        "code": {
          "coding": [
            {
              "code": "5811-5",
              "system": "http://loinc.org",
              "display": "Specific gravity of Urine by Test strip"
            }
          ],
          "text": "Specific gravity of Urine by Test strip"
        },
        "valueQuantity": {
          "system": "http://unitsofmeasure.org",
          "value": 1,
          "unit": "{nominal}",
          "code": "{nominal}"
        },
        "referenceRange": [
          {
            "low": {
              "value": 1.005,
              "code": "g/mL",
              "system": "http://unitsofmeasure.org"
            }
          },
          {
            "high": {
              "value": 1.03,
              "code": "g/mL",
              "system": "http://unitsofmeasure.org"
            }
          }
        ],
        "interpretation": [
          {
            "coding": [
              {
                "code": "L",
                "system": "http://terminology.hl7.org/CodeSystem/v3-ObservationInterpretation",
                "display": "Low"
              }
            ]
          }
        ],
        "text": {
          "status": "generated",
          "div": "<div xmlns=\"http://www.w3.org/1999/xhtml\"><table class=\"hl7__eu__lab__report\"><tr><th>Test</th><th>20-Jan-2025</th><th>Reference&#xA0;Range</th><th>Unit</th></tr><tr><td>Specific gravity of Urine by Test strip</td><td>1.0</td><td>1.005 - 1.03</td><td>L</td><td>{nominal}</td></tr></table></div>"
        },
        "status": "final",
        "subject": {
          "reference": "urn:uuid:330a167c-0168-4477-a833-860fe5801506",
          "display": "Meaghan Neary"
        },
        "effectiveDateTime": "2025-01-20T22:11:04Z",
        "specimen": {
          "reference": "urn:uuid:fa047939-80e0-4292-ab90-cbf6c78421bd"
        }
      }
    },
    {
      "fullUrl": "urn:uuid:c67db3e6-f4f2-4d93-9321-20b61bfa653e",
      "resource": {
        "resourceType": "Observation",
        "id": "c67db3e6-f4f2-4d93-9321-20b61bfa653e",
        "meta": {
          "profile": [
            "http://hl7.eu/fhir/laboratory/StructureDefinition/Observation-resultslab-eu-lab"
          ]
        },
        "performer": [
          {
            "display": "The Central European Lab"
          }
        ],
        "category": [
          {
            "coding": [
              {
                "system": "http://terminology.hl7.org/CodeSystem/observation-category",
                "code": "laboratory"
              }
            ]
          }
        ],
        "code": {
          "coding": [
            {
              "code": "5803-2",
              "system": "http://loinc.org",
              "display": "pH of Urine by Test strip"
            }
          ],
          "text": "pH of Urine by Test strip"
        },
        "valueQuantity": {
          "system": "http://unitsofmeasure.org",
          "value": 6.6,
          "unit": "pH",
          "code": "pH"
        },
        "referenceRange": [
          {
            "low": {
              "value": 4.6,
              "code": "pH",
              "system": "http://unitsofmeasure.org"
            }
          },
          {
            "high": {
              "value": 7,
              "code": "pH",
              "system": "http://unitsofmeasure.org"
            }
          }
        ],
        "text": {
          "status": "generated",
          "div": "<div xmlns=\"http://www.w3.org/1999/xhtml\"><table class=\"hl7__eu__lab__report\"><tr><th>Test</th><th>20-Jan-2025</th><th>Reference&#xA0;Range</th><th>Unit</th></tr><tr><td>pH of Urine by Test strip</td><td>6.6</td><td>4.6 - 7</td><td></td><td>pH</td></tr></table></div>"
        },
        "status": "final",
        "subject": {
          "reference": "urn:uuid:330a167c-0168-4477-a833-860fe5801506",
          "display": "Meaghan Neary"
        },
        "effectiveDateTime": "2025-01-20T22:11:04Z",
        "specimen": {
          "reference": "urn:uuid:fa047939-80e0-4292-ab90-cbf6c78421bd"
        }
      }
    },
    {
      "fullUrl": "urn:uuid:1ac5e3d5-e0aa-4886-a95e-84451b84c89e",
      "resource": {
        "resourceType": "Observation",
        "id": "1ac5e3d5-e0aa-4886-a95e-84451b84c89e",
        "meta": {
          "profile": [
            "http://hl7.eu/fhir/laboratory/StructureDefinition/Observation-resultslab-eu-lab"
          ]
        },
        "performer": [
          {
            "display": "The Central European Lab"
          }
        ],
        "category": [
          {
            "coding": [
              {
                "system": "http://terminology.hl7.org/CodeSystem/observation-category",
                "code": "laboratory"
              }
            ]
          }
        ],
        "code": {
          "coding": [
            {
              "code": "5804-0",
              "system": "http://loinc.org",
              "display": "Protein [Mass/volume] in Urine by Test strip"
            }
          ],
          "text": "Protein [Mass/volume] in Urine by Test strip"
        },
        "valueQuantity": {
          "system": "http://unitsofmeasure.org",
          "value": 309.9,
          "unit": "mg/dL",
          "code": "mg/dL"
        },
        "referenceRange": [
          {
            "low": {
              "value": 0,
              "code": "mg/dL",
              "system": "http://unitsofmeasure.org"
            }
          },
          {
            "high": {
              "value": 14,
              "code": "mg/dL",
              "system": "http://unitsofmeasure.org"
            }
          }
        ],
        "interpretation": [
          {
            "coding": [
              {
                "code": "H",
                "system": "http://terminology.hl7.org/CodeSystem/v3-ObservationInterpretation",
                "display": "High"
              }
            ]
          }
        ],
        "text": {
          "status": "generated",
          "div": "<div xmlns=\"http://www.w3.org/1999/xhtml\"><table class=\"hl7__eu__lab__report\"><tr><th>Test</th><th>20-Jan-2025</th><th>Reference&#xA0;Range</th><th>Unit</th></tr><tr><td>Protein [Mass/volume] in Urine by Test strip</td><td>309.9</td><td>0 - 14</td><td>H</td><td>mg/dL</td></tr></table></div>"
        },
        "status": "final",
        "subject": {
          "reference": "urn:uuid:330a167c-0168-4477-a833-860fe5801506",
          "display": "Meaghan Neary"
        },
        "effectiveDateTime": "2025-01-20T22:11:04Z",
        "specimen": {
          "reference": "urn:uuid:fa047939-80e0-4292-ab90-cbf6c78421bd"
        }
      }
    },
    {
      "fullUrl": "urn:uuid:2ee4b450-19fb-413a-aad5-0fe6096d328a",
      "resource": {
        "resourceType": "Observation",
        "id": "2ee4b450-19fb-413a-aad5-0fe6096d328a",
        "meta": {
          "profile": [
            "http://hl7.eu/fhir/laboratory/StructureDefinition/Observation-resultslab-eu-lab"
          ]
        },
        "performer": [
          {
            "display": "The Central European Lab"
          }
        ],
        "category": [
          {
            "coding": [
              {
                "system": "http://terminology.hl7.org/CodeSystem/observation-category",
                "code": "laboratory"
              }
            ]
          }
        ],
        "code": {
          "coding": [
            {
              "code": "20454-5",
              "system": "http://loinc.org",
              "display": "Protein [Presence] in Urine by Test strip"
            }
          ],
          "text": "Protein [Presence] in Urine by Test strip"
        },
        "text": {
          "status": "generated",
          "div": "<div xmlns=\"http://www.w3.org/1999/xhtml\"><table class=\"hl7__eu__lab__report\"><tr><th>Test</th><th>20-Jan-2025</th><th>Reference&#xA0;Range</th><th>Unit</th></tr><tr><td>Protein [Presence] in Urine by Test strip</td></tr></table></div>"
        },
        "status": "final",
        "subject": {
          "reference": "urn:uuid:330a167c-0168-4477-a833-860fe5801506",
          "display": "Meaghan Neary"
        },
        "effectiveDateTime": "2025-01-20T22:11:04Z",
        "specimen": {
          "reference": "urn:uuid:fa047939-80e0-4292-ab90-cbf6c78421bd"
        }
      }
    },
    {
      "fullUrl": "urn:uuid:87b7b82d-bc06-42fa-a4b2-e950c8a99464",
      "resource": {
        "resourceType": "Observation",
        "id": "87b7b82d-bc06-42fa-a4b2-e950c8a99464",
        "meta": {
          "profile": [
            "http://hl7.eu/fhir/laboratory/StructureDefinition/Observation-resultslab-eu-lab"
          ]
        },
        "performer": [
          {
            "display": "The Central European Lab"
          }
        ],
        "category": [
          {
            "coding": [
              {
                "system": "http://terminology.hl7.org/CodeSystem/observation-category",
                "code": "laboratory"
              }
            ]
          }
        ],
        "code": {
          "coding": [
            {
              "code": "5802-4",
              "system": "http://loinc.org",
              "display": "Nitrite [Presence] in Urine by Test strip"
            }
          ],
          "text": "Nitrite [Presence] in Urine by Test strip"
        },
        "text": {
          "status": "generated",
          "div": "<div xmlns=\"http://www.w3.org/1999/xhtml\"><table class=\"hl7__eu__lab__report\"><tr><th>Test</th><th>20-Jan-2025</th><th>Reference&#xA0;Range</th><th>Unit</th></tr><tr><td>Nitrite [Presence] in Urine by Test strip</td></tr></table></div>"
        },
        "status": "final",
        "subject": {
          "reference": "urn:uuid:330a167c-0168-4477-a833-860fe5801506",
          "display": "Meaghan Neary"
        },
        "effectiveDateTime": "2025-01-20T22:11:04Z",
        "specimen": {
          "reference": "urn:uuid:fa047939-80e0-4292-ab90-cbf6c78421bd"
        }
      }
    },
    {
      "fullUrl": "urn:uuid:0d53de62-6000-46de-8a30-bed95bd37b9b",
      "resource": {
        "resourceType": "Observation",
        "id": "0d53de62-6000-46de-8a30-bed95bd37b9b",
        "meta": {
          "profile": [
            "http://hl7.eu/fhir/laboratory/StructureDefinition/Observation-resultslab-eu-lab"
          ]
        },
        "performer": [
          {
            "display": "The Central European Lab"
          }
        ],
        "category": [
          {
            "coding": [
              {
                "system": "http://terminology.hl7.org/CodeSystem/observation-category",
                "code": "laboratory"
              }
            ]
          }
        ],
        "code": {
          "coding": [
            {
              "code": "5794-3",
              "system": "http://loinc.org",
              "display": "Hemoglobin [Presence] in Urine by Test strip"
            }
          ],
          "text": "Hemoglobin [Presence] in Urine by Test strip"
        },
        "text": {
          "status": "generated",
          "div": "<div xmlns=\"http://www.w3.org/1999/xhtml\"><table class=\"hl7__eu__lab__report\"><tr><th>Test</th><th>20-Jan-2025</th><th>Reference&#xA0;Range</th><th>Unit</th></tr><tr><td>Hemoglobin [Presence] in Urine by Test strip</td></tr></table></div>"
        },
        "status": "final",
        "subject": {
          "reference": "urn:uuid:330a167c-0168-4477-a833-860fe5801506",
          "display": "Meaghan Neary"
        },
        "effectiveDateTime": "2025-01-20T22:11:04Z",
        "specimen": {
          "reference": "urn:uuid:fa047939-80e0-4292-ab90-cbf6c78421bd"
        }
      }
    },
    {
      "fullUrl": "urn:uuid:1833542b-8907-4ef7-8c6a-c9fc2d0f71dc",
      "resource": {
        "resourceType": "Observation",
        "id": "1833542b-8907-4ef7-8c6a-c9fc2d0f71dc",
        "meta": {
          "profile": [
            "http://hl7.eu/fhir/laboratory/StructureDefinition/Observation-resultslab-eu-lab"
          ]
        },
        "performer": [
          {
            "display": "The Central European Lab"
          }
        ],
        "category": [
          {
            "coding": [
              {
                "system": "http://terminology.hl7.org/CodeSystem/observation-category",
                "code": "laboratory"
              }
            ]
          }
        ],
        "code": {
          "coding": [
            {
              "code": "5799-2",
              "system": "http://loinc.org",
              "display": "Leukocyte esterase [Presence] in Urine by Test strip"
            }
          ],
          "text": "Leukocyte esterase [Presence] in Urine by Test strip"
        },
        "text": {
          "status": "generated",
          "div": "<div xmlns=\"http://www.w3.org/1999/xhtml\"><table class=\"hl7__eu__lab__report\"><tr><th>Test</th><th>20-Jan-2025</th><th>Reference&#xA0;Range</th><th>Unit</th></tr><tr><td>Leukocyte esterase [Presence] in Urine by Test strip</td></tr></table></div>"
        },
        "status": "final",
        "subject": {
          "reference": "urn:uuid:330a167c-0168-4477-a833-860fe5801506",
          "display": "Meaghan Neary"
        },
        "effectiveDateTime": "2025-01-20T22:11:04Z",
        "specimen": {
          "reference": "urn:uuid:fa047939-80e0-4292-ab90-cbf6c78421bd"
        }
      }
    },
    {
      "fullUrl": "urn:uuid:f2e40b5b-2e17-468c-b268-463c3749ba08",
      "resource": {
        "resourceType": "Observation",
        "id": "f2e40b5b-2e17-468c-b268-463c3749ba08",
        "meta": {
          "profile": [
            "http://hl7.eu/fhir/laboratory/StructureDefinition/Observation-resultslab-eu-lab"
          ]
        },
        "performer": [
          {
            "display": "The Central European Lab"
          }
        ],
        "category": [
          {
            "coding": [
              {
                "system": "http://terminology.hl7.org/CodeSystem/observation-category",
                "code": "laboratory"
              }
            ]
          }
        ],
        "code": {
          "coding": [
            {
              "code": "4548-4",
              "system": "http://loinc.org",
              "display": "Hemoglobin A1c/Hemoglobin.total in Blood"
            }
          ],
          "text": "Hemoglobin A1c/Hemoglobin.total in Blood"
        },
        "valueQuantity": {
          "system": "http://unitsofmeasure.org",
          "value": 4,
          "unit": "%",
          "code": "%"
        },
        "referenceRange": [
          {
            "low": {
              "value": 4,
              "code": "%",
              "system": "http://unitsofmeasure.org"
            }
          },
          {
            "high": {
              "value": 6.4,
              "code": "%",
              "system": "http://unitsofmeasure.org"
            }
          }
        ],
        "text": {
          "status": "generated",
          "div": "<div xmlns=\"http://www.w3.org/1999/xhtml\"><table class=\"hl7__eu__lab__report\"><tr><th>Test</th><th>20-Jan-2025</th><th>Reference&#xA0;Range</th><th>Unit</th></tr><tr><td>Hemoglobin A1c/Hemoglobin.total in Blood</td><td>4.0</td><td>4 - 6.4</td><td></td><td>%</td></tr></table></div>"
        },
        "status": "final",
        "subject": {
          "reference": "urn:uuid:330a167c-0168-4477-a833-860fe5801506",
          "display": "Meaghan Neary"
        },
        "effectiveDateTime": "2025-01-20T22:11:04Z",
        "specimen": {
          "reference": "urn:uuid:712f6e13-2cdd-46cc-86fb-54d0d05bb6e6"
        }
      }
    },
    {
      "fullUrl": "urn:uuid:94619517-c514-45c9-814f-48a803d63538",
      "resource": {
        "resourceType": "Observation",
        "id": "94619517-c514-45c9-814f-48a803d63538",
        "meta": {
          "profile": [
            "http://hl7.eu/fhir/laboratory/StructureDefinition/Observation-resultslab-eu-lab"
          ]
        },
        "performer": [
          {
            "display": "The Central European Lab"
          }
        ],
        "category": [
          {
            "coding": [
              {
                "system": "http://terminology.hl7.org/CodeSystem/observation-category",
                "code": "laboratory"
              }
            ]
          }
        ],
        "code": {
          "coding": [
            {
              "code": "2339-0",
              "system": "http://loinc.org",
              "display": "Glucose [Mass/volume] in Blood"
            }
          ],
          "text": "Glucose [Mass/volume] in Blood"
        },
        "valueQuantity": {
          "system": "http://unitsofmeasure.org",
          "value": 65.7,
          "unit": "mg/dL",
          "code": "mg/dL"
        },
        "referenceRange": [
          {
            "low": {
              "value": 70,
              "code": "mg/dL",
              "system": "http://unitsofmeasure.org"
            }
          },
          {
            "high": {
              "value": 100,
              "code": "mg/dL",
              "system": "http://unitsofmeasure.org"
            }
          }
        ],
        "interpretation": [
          {
            "coding": [
              {
                "code": "L",
                "system": "http://terminology.hl7.org/CodeSystem/v3-ObservationInterpretation",
                "display": "Low"
              }
            ]
          }
        ],
        "text": {
          "status": "generated",
          "div": "<div xmlns=\"http://www.w3.org/1999/xhtml\"><table class=\"hl7__eu__lab__report\"><tr><th>Test</th><th>20-Jan-2025</th><th>Reference&#xA0;Range</th><th>Unit</th></tr><tr><td>Glucose [Mass/volume] in Blood</td><td>65.7</td><td>70 - 100</td><td>L</td><td>mg/dL</td></tr></table></div>"
        },
        "status": "final",
        "subject": {
          "reference": "urn:uuid:330a167c-0168-4477-a833-860fe5801506",
          "display": "Meaghan Neary"
        },
        "effectiveDateTime": "2025-01-20T22:11:04Z",
        "specimen": {
          "reference": "urn:uuid:712f6e13-2cdd-46cc-86fb-54d0d05bb6e6"
        }
      }
    },
    {
      "fullUrl": "urn:uuid:5413f348-3380-40d1-b3fb-d4eeb91f976e",
      "resource": {
        "resourceType": "Observation",
        "id": "5413f348-3380-40d1-b3fb-d4eeb91f976e",
        "meta": {
          "profile": [
            "http://hl7.eu/fhir/laboratory/StructureDefinition/Observation-resultslab-eu-lab"
          ]
        },
        "performer": [
          {
            "display": "The Central European Lab"
          }
        ],
        "category": [
          {
            "coding": [
              {
                "system": "http://terminology.hl7.org/CodeSystem/observation-category",
                "code": "laboratory"
              }
            ]
          }
        ],
        "code": {
          "coding": [
            {
              "code": "6299-2",
              "system": "http://loinc.org",
              "display": "Urea nitrogen [Mass/volume] in Blood"
            }
          ],
          "text": "Urea nitrogen [Mass/volume] in Blood"
        },
        "valueQuantity": {
          "system": "http://unitsofmeasure.org",
          "value": 14.6,
          "unit": "mg/dL",
          "code": "mg/dL"
        },
        "referenceRange": [
          {
            "low": {
              "value": 7,
              "code": "mg/dL",
              "system": "http://unitsofmeasure.org"
            }
          },
          {
            "high": {
              "value": 43,
              "code": "mg/dL",
              "system": "http://unitsofmeasure.org"
            }
          }
        ],
        "text": {
          "status": "generated",
          "div": "<div xmlns=\"http://www.w3.org/1999/xhtml\"><table class=\"hl7__eu__lab__report\"><tr><th>Test</th><th>20-Jan-2025</th><th>Reference&#xA0;Range</th><th>Unit</th></tr><tr><td>Urea nitrogen [Mass/volume] in Blood</td><td>14.6</td><td>7 - 43</td><td></td><td>mg/dL</td></tr></table></div>"
        },
        "status": "final",
        "subject": {
          "reference": "urn:uuid:330a167c-0168-4477-a833-860fe5801506",
          "display": "Meaghan Neary"
        },
        "effectiveDateTime": "2025-01-20T22:11:04Z",
        "specimen": {
          "reference": "urn:uuid:712f6e13-2cdd-46cc-86fb-54d0d05bb6e6"
        }
      }
    },
    {
      "fullUrl": "urn:uuid:72b352d4-b810-439e-b1a4-8776a17917e4",
      "resource": {
        "resourceType": "Observation",
        "id": "72b352d4-b810-439e-b1a4-8776a17917e4",
        "meta": {
          "profile": [
            "http://hl7.eu/fhir/laboratory/StructureDefinition/Observation-resultslab-eu-lab"
          ]
        },
        "performer": [
          {
            "display": "The Central European Lab"
          }
        ],
        "category": [
          {
            "coding": [
              {
                "system": "http://terminology.hl7.org/CodeSystem/observation-category",
                "code": "laboratory"
              }
            ]
          }
        ],
        "code": {
          "coding": [
            {
              "code": "38483-4",
              "system": "http://loinc.org",
              "display": "Creatinine [Mass/volume] in Blood"
            }
          ],
          "text": "Creatinine [Mass/volume] in Blood"
        },
        "valueQuantity": {
          "system": "http://unitsofmeasure.org",
          "value": 4.7,
          "unit": "mg/dL",
          "code": "mg/dL"
        },
        "referenceRange": [
          {
            "low": {
              "value": 0.6,
              "code": "mg/dL",
              "system": "http://unitsofmeasure.org"
            }
          },
          {
            "high": {
              "value": 1.1,
              "code": "mg/dL",
              "system": "http://unitsofmeasure.org"
            }
          }
        ],
        "interpretation": [
          {
            "coding": [
              {
                "code": "H",
                "system": "http://terminology.hl7.org/CodeSystem/v3-ObservationInterpretation",
                "display": "High"
              }
            ]
          }
        ],
        "text": {
          "status": "generated",
          "div": "<div xmlns=\"http://www.w3.org/1999/xhtml\"><table class=\"hl7__eu__lab__report\"><tr><th>Test</th><th>20-Jan-2025</th><th>Reference&#xA0;Range</th><th>Unit</th></tr><tr><td>Creatinine [Mass/volume] in Blood</td><td>4.7</td><td>0.6 - 1.1</td><td>H</td><td>mg/dL</td></tr></table></div>"
        },
        "status": "final",
        "subject": {
          "reference": "urn:uuid:330a167c-0168-4477-a833-860fe5801506",
          "display": "Meaghan Neary"
        },
        "effectiveDateTime": "2025-01-20T22:11:04Z",
        "specimen": {
          "reference": "urn:uuid:712f6e13-2cdd-46cc-86fb-54d0d05bb6e6"
        }
      }
    },
    {
      "fullUrl": "urn:uuid:2aea2860-eefa-4aaf-9cd4-0affe33d021c",
      "resource": {
        "resourceType": "Observation",
        "id": "2aea2860-eefa-4aaf-9cd4-0affe33d021c",
        "meta": {
          "profile": [
            "http://hl7.eu/fhir/laboratory/StructureDefinition/Observation-resultslab-eu-lab"
          ]
        },
        "performer": [
          {
            "display": "The Central European Lab"
          }
        ],
        "category": [
          {
            "coding": [
              {
                "system": "http://terminology.hl7.org/CodeSystem/observation-category",
                "code": "laboratory"
              }
            ]
          }
        ],
        "code": {
          "coding": [
            {
              "code": "49765-1",
              "system": "http://loinc.org",
              "display": "Calcium [Mass/volume] in Blood"
            }
          ],
          "text": "Calcium [Mass/volume] in Blood"
        },
        "valueQuantity": {
          "system": "http://unitsofmeasure.org",
          "value": 9.7,
          "unit": "mg/dL",
          "code": "mg/dL"
        },
        "referenceRange": [
          {
            "low": {
              "value": 8.5,
              "code": "mg/dL",
              "system": "http://unitsofmeasure.org"
            }
          },
          {
            "high": {
              "value": 10.5,
              "code": "mg/dL",
              "system": "http://unitsofmeasure.org"
            }
          }
        ],
        "text": {
          "status": "generated",
          "div": "<div xmlns=\"http://www.w3.org/1999/xhtml\"><table class=\"hl7__eu__lab__report\"><tr><th>Test</th><th>20-Jan-2025</th><th>Reference&#xA0;Range</th><th>Unit</th></tr><tr><td>Calcium [Mass/volume] in Blood</td><td>9.7</td><td>8.5 - 10.5</td><td></td><td>mg/dL</td></tr></table></div>"
        },
        "status": "final",
        "subject": {
          "reference": "urn:uuid:330a167c-0168-4477-a833-860fe5801506",
          "display": "Meaghan Neary"
        },
        "effectiveDateTime": "2025-01-20T22:11:04Z",
        "specimen": {
          "reference": "urn:uuid:712f6e13-2cdd-46cc-86fb-54d0d05bb6e6"
        }
      }
    },
    {
      "fullUrl": "urn:uuid:2d808be8-f617-4a41-9ba9-8ad0d2c1b7f9",
      "resource": {
        "resourceType": "Observation",
        "id": "2d808be8-f617-4a41-9ba9-8ad0d2c1b7f9",
        "meta": {
          "profile": [
            "http://hl7.eu/fhir/laboratory/StructureDefinition/Observation-resultslab-eu-lab"
          ]
        },
        "performer": [
          {
            "display": "The Central European Lab"
          }
        ],
        "category": [
          {
            "coding": [
              {
                "system": "http://terminology.hl7.org/CodeSystem/observation-category",
                "code": "laboratory"
              }
            ]
          }
        ],
        "code": {
          "coding": [
            {
              "code": "2947-0",
              "system": "http://loinc.org",
              "display": "Sodium [Moles/volume] in Blood"
            }
          ],
          "text": "Sodium [Moles/volume] in Blood"
        },
        "valueQuantity": {
          "system": "http://unitsofmeasure.org",
          "value": 138.4,
          "unit": "mmol/L",
          "code": "mmol/L"
        },
        "referenceRange": [
          {
            "low": {
              "value": 135,
              "code": "mmol/L",
              "system": "http://unitsofmeasure.org"
            }
          },
          {
            "high": {
              "value": 145,
              "code": "mmol/L",
              "system": "http://unitsofmeasure.org"
            }
          }
        ],
        "text": {
          "status": "generated",
          "div": "<div xmlns=\"http://www.w3.org/1999/xhtml\"><table class=\"hl7__eu__lab__report\"><tr><th>Test</th><th>20-Jan-2025</th><th>Reference&#xA0;Range</th><th>Unit</th></tr><tr><td>Sodium [Moles/volume] in Blood</td><td>138.4</td><td>135 - 145</td><td></td><td>mmol/L</td></tr></table></div>"
        },
        "status": "final",
        "subject": {
          "reference": "urn:uuid:330a167c-0168-4477-a833-860fe5801506",
          "display": "Meaghan Neary"
        },
        "effectiveDateTime": "2025-01-20T22:11:04Z",
        "specimen": {
          "reference": "urn:uuid:712f6e13-2cdd-46cc-86fb-54d0d05bb6e6"
        }
      }
    },
    {
      "fullUrl": "urn:uuid:20be2a5a-5025-4622-a38d-dd405f84c864",
      "resource": {
        "resourceType": "Observation",
        "id": "20be2a5a-5025-4622-a38d-dd405f84c864",
        "meta": {
          "profile": [
            "http://hl7.eu/fhir/laboratory/StructureDefinition/Observation-resultslab-eu-lab"
          ]
        },
        "performer": [
          {
            "display": "The Central European Lab"
          }
        ],
        "category": [
          {
            "coding": [
              {
                "system": "http://terminology.hl7.org/CodeSystem/observation-category",
                "code": "laboratory"
              }
            ]
          }
        ],
        "code": {
          "coding": [
            {
              "code": "6298-4",
              "system": "http://loinc.org",
              "display": "Potassium [Moles/volume] in Blood"
            }
          ],
          "text": "Potassium [Moles/volume] in Blood"
        },
        "valueQuantity": {
          "system": "http://unitsofmeasure.org",
          "value": 4.8,
          "unit": "mmol/L",
          "code": "mmol/L"
        },
        "referenceRange": [
          {
            "low": {
              "value": 3.5,
              "code": "mmol/L",
              "system": "http://unitsofmeasure.org"
            }
          },
          {
            "high": {
              "value": 5.1,
              "code": "mmol/L",
              "system": "http://unitsofmeasure.org"
            }
          }
        ],
        "text": {
          "status": "generated",
          "div": "<div xmlns=\"http://www.w3.org/1999/xhtml\"><table class=\"hl7__eu__lab__report\"><tr><th>Test</th><th>20-Jan-2025</th><th>Reference&#xA0;Range</th><th>Unit</th></tr><tr><td>Potassium [Moles/volume] in Blood</td><td>4.8</td><td>3.5 - 5.1</td><td></td><td>mmol/L</td></tr></table></div>"
        },
        "status": "final",
        "subject": {
          "reference": "urn:uuid:330a167c-0168-4477-a833-860fe5801506",
          "display": "Meaghan Neary"
        },
        "effectiveDateTime": "2025-01-20T22:11:04Z",
        "specimen": {
          "reference": "urn:uuid:712f6e13-2cdd-46cc-86fb-54d0d05bb6e6"
        }
      }
    },
    {
      "fullUrl": "urn:uuid:94f6ae0e-d4f9-4349-8dbb-7a696d592650",
      "resource": {
        "resourceType": "Observation",
        "id": "94f6ae0e-d4f9-4349-8dbb-7a696d592650",
        "meta": {
          "profile": [
            "http://hl7.eu/fhir/laboratory/StructureDefinition/Observation-resultslab-eu-lab"
          ]
        },
        "performer": [
          {
            "display": "The Central European Lab"
          }
        ],
        "category": [
          {
            "coding": [
              {
                "system": "http://terminology.hl7.org/CodeSystem/observation-category",
                "code": "laboratory"
              }
            ]
          }
        ],
        "code": {
          "coding": [
            {
              "code": "2069-3",
              "system": "http://loinc.org",
              "display": "Chloride [Moles/volume] in Blood"
            }
          ],
          "text": "Chloride [Moles/volume] in Blood"
        },
        "valueQuantity": {
          "system": "http://unitsofmeasure.org",
          "value": 101.5,
          "unit": "mmol/L",
          "code": "mmol/L"
        },
        "referenceRange": [
          {
            "low": {
              "value": 98,
              "code": "mmol/L",
              "system": "http://unitsofmeasure.org"
            }
          },
          {
            "high": {
              "value": 108,
              "code": "mmol/L",
              "system": "http://unitsofmeasure.org"
            }
          }
        ],
        "text": {
          "status": "generated",
          "div": "<div xmlns=\"http://www.w3.org/1999/xhtml\"><table class=\"hl7__eu__lab__report\"><tr><th>Test</th><th>20-Jan-2025</th><th>Reference&#xA0;Range</th><th>Unit</th></tr><tr><td>Chloride [Moles/volume] in Blood</td><td>101.5</td><td>98 - 108</td><td></td><td>mmol/L</td></tr></table></div>"
        },
        "status": "final",
        "subject": {
          "reference": "urn:uuid:330a167c-0168-4477-a833-860fe5801506",
          "display": "Meaghan Neary"
        },
        "effectiveDateTime": "2025-01-20T22:11:04Z",
        "specimen": {
          "reference": "urn:uuid:712f6e13-2cdd-46cc-86fb-54d0d05bb6e6"
        }
      }
    },
    {
      "fullUrl": "urn:uuid:aa95f25a-8596-473a-8af6-a147e859886a",
      "resource": {
        "resourceType": "Observation",
        "id": "aa95f25a-8596-473a-8af6-a147e859886a",
        "meta": {
          "profile": [
            "http://hl7.eu/fhir/laboratory/StructureDefinition/Observation-resultslab-eu-lab"
          ]
        },
        "performer": [
          {
            "display": "The Central European Lab"
          }
        ],
        "category": [
          {
            "coding": [
              {
                "system": "http://terminology.hl7.org/CodeSystem/observation-category",
                "code": "laboratory"
              }
            ]
          }
        ],
        "code": {
          "coding": [
            {
              "code": "20565-8",
              "system": "http://loinc.org",
              "display": "Carbon dioxide, total [Moles/volume] in Blood"
            }
          ],
          "text": "Carbon dioxide, total [Moles/volume] in Blood"
        },
        "valueQuantity": {
          "system": "http://unitsofmeasure.org",
          "value": 26.4,
          "unit": "mmol/L",
          "code": "mmol/L"
        },
        "referenceRange": [
          {
            "low": {
              "value": 22,
              "code": "mmol/L",
              "system": "http://unitsofmeasure.org"
            }
          },
          {
            "high": {
              "value": 29,
              "code": "mmol/L",
              "system": "http://unitsofmeasure.org"
            }
          }
        ],
        "text": {
          "status": "generated",
          "div": "<div xmlns=\"http://www.w3.org/1999/xhtml\"><table class=\"hl7__eu__lab__report\"><tr><th>Test</th><th>20-Jan-2025</th><th>Reference&#xA0;Range</th><th>Unit</th></tr><tr><td>Carbon dioxide, total [Moles/volume] in Blood</td><td>26.4</td><td>22 - 29</td><td></td><td>mmol/L</td></tr></table></div>"
        },
        "status": "final",
        "subject": {
          "reference": "urn:uuid:330a167c-0168-4477-a833-860fe5801506",
          "display": "Meaghan Neary"
        },
        "effectiveDateTime": "2025-01-20T22:11:04Z",
        "specimen": {
          "reference": "urn:uuid:712f6e13-2cdd-46cc-86fb-54d0d05bb6e6"
        }
      }
    },
    {
      "fullUrl": "urn:uuid:aae2f80b-7593-4705-9b1c-74b9b8f17be4",
      "resource": {
        "resourceType": "Device",
        "id": "aae2f80b-7593-4705-9b1c-74b9b8f17be4",
        "deviceName": [
          {
            "name": "SYNDERAI Synthetic Generator",
            "type": "manufacturer-name"
          }
        ],
        "version": [
          {
            "value": "5.0"
          }
        ],
        "text": {
          "status": "generated",
          "div": "<div xmlns=\"http://www.w3.org/1999/xhtml\">SYNDERAI Synthetic Generator v5.0</div>"
        },
        "status": "active\"",
        "distinctIdentifier": "synderai-generator-50",
        "manufacturer": "SYNDERAI Project"
      }
    },
    {
      "fullUrl": "urn:uuid:95471525-e786-4fe2-9903-38678a943c94",
      "resource": {
        "resourceType": "Provenance",
        "id": "95471525-e786-4fe2-9903-38678a943c94",
        "target": [
          {
            "reference": "Patient/330a167c-0168-4477-a833-860fe5801506"
          },
          {
            "reference": "Bundle/d74757b7-dc4c-4ed9-9d19-dfd1996728c3"
          },
          {
            "reference": "Composition/b81afbf1-b8e4-406d-9b63-de1a22eeccb3"
          },
          {
            "reference": "PractitionerRole/56d9f306-1260-48de-8606-0f24a6b0e1a3"
          },
          {
            "reference": "Practitioner/0d735325-b5d0-434a-987c-e2b5d8d62964"
          },
          {
            "reference": "PractitionerRole/6e38b76d-9e69-4286-86d8-53fbf285fdc4"
          },
          {
            "reference": "Organization/5971fcfc-a5bf-4ad5-8d24-bf86c5a9e835"
          }
        ],
        "activity": {
          "text": "Synthetic Example Data Generation"
        },
        "policy": [
          "https://synderai.net/synderai-synthetic-data-policy"
        ],
        "agent": [
          {
            "type": {
              "text": "author"
            },
            "who": {
              "reference": "Device/aae2f80b-7593-4705-9b1c-74b9b8f17be4"
            }
          }
        ],
        "reason": [
          {
            "text": "Interoperability Testing and Training (non-clinical use)"
          }
        ],
        "text": {
          "status": "generated",
          "div": "<div xmlns=\"http://www.w3.org/1999/xhtml\">Provenance for SYNDERAI Synthetic Example Data Resource</div>"
        },
        "recorded": "2025-01-20T23:11:04Z"
      }
    },
    {
      "fullUrl": "urn:uuid:56d9f306-1260-48de-8606-0f24a6b0e1a3",
      "resource": {
        "resourceType": "PractitionerRole",
        "id": "56d9f306-1260-48de-8606-0f24a6b0e1a3",
        "meta": {
          "profile": [
            "http://hl7.eu/fhir/base/StructureDefinition/practitionerRole-eu"
          ]
        },
        "text": {
          "status": "generated",
          "div": "<div xmlns=\"http://www.w3.org/1999/xhtml\">Laboratory Role Id: 56d9f306-1260-48de-8606-0f24a6b0e1a3</div>"
        },
        "practitioner": {
          "reference": "urn:uuid:0d735325-b5d0-434a-987c-e2b5d8d62964"
        }
      }
    },
    {
      "fullUrl": "urn:uuid:0d735325-b5d0-434a-987c-e2b5d8d62964",
      "resource": {
        "resourceType": "Practitioner",
        "id": "0d735325-b5d0-434a-987c-e2b5d8d62964",
        "meta": {
          "profile": [
            "http://hl7.eu/fhir/base/StructureDefinition/practitioner-eu"
          ]
        },
        "identifier": [
          {
            "assigner": {
              "display": "HL7 Europe"
            },
            "system": "urn:oid:2.16.840.1.113883.2.51.999",
            "value": "4030c353-773d-489a-9b3f-319b145d1271"
          }
        ],
        "name": [
          {
            "prefix": [
              "dr"
            ],
            "given": [
              "Ex"
            ],
            "family": "Ample"
          }
        ],
        "address": [
          {
            "line": [
              "Laboratoire Central Européenne",
              "Boulevard du Jardin Botanique 32"
            ],
            "postalCode": "1000",
            "city": "Brussels",
            "country": "Belgium"
          }
        ],
        "text": {
          "status": "generated",
          "div": "<div xmlns=\"http://www.w3.org/1999/xhtml\">Laboratory: Laboratoire Central Européenne, 1000 Brussels, Belgium</div>"
        }
      }
    }
  ],
  "type": "document",
  "timestamp": "2025-01-20T23:11:04Z"
}
