{
  "resourceType": "Bundle",
  "id": "5406204b-6c1c-439a-9e78-78660b118e0b",
  "meta": {
    "profile": [
      "http://hl7.eu/fhir/laboratory/StructureDefinition/Bundle-eu-lab"
    ]
  },
  "identifier": {
    "assigner": {
      "display": "HL7 Europe"
    },
    "system": "urn:oid:2.16.840.1.113883.2.51.999",
    "value": "c2fba62b-94b3-459a-adb3-96e30fa7138c"
  },
  "entry": [
    {
      "fullUrl": "urn:uuid:957ffed4-71f9-40a8-bd4e-c4509218cc86",
      "resource": {
        "resourceType": "Composition",
        "id": "957ffed4-71f9-40a8-bd4e-c4509218cc86",
        "meta": {
          "profile": [
            "http://hl7.eu/fhir/laboratory/StructureDefinition/Composition-eu-lab"
          ]
        },
        "identifier": {
          "assigner": {
            "display": "HL7 Europe"
          },
          "system": "urn:oid:2.16.840.1.113883.2.51.999",
          "value": "70faedac-df84-4ff9-9388-909077f0d157"
        },
        "author": [
          {
            "reference": "urn:uuid:e08eb0ab-1d13-47f1-a551-c8ded69132d9"
          }
        ],
        "category": [
          {
            "coding": [
              {
                "code": "26436-6",
                "system": "http://loinc.org",
                "display": "Laboratory studies (set)"
              }
            ]
          }
        ],
        "type": {
          "coding": [
            {
              "code": "11502-2",
              "system": "http://loinc.org",
              "display": "Laboratory report"
            }
          ],
          "text": "Laboratory Report"
        },
        "section": [
          {
            "code": {
              "coding": [
                {
                  "code": "26436-6",
                  "system": "http://loinc.org",
                  "display": "Laboratory studies (set)"
                }
              ],
              "text": "Laboratory studies"
            },
            "section": [
              {
                "code": {
                  "coding": [
                    {
                      "code": "$18719-5",
                      "system": "http://loinc.org",
                      "display": "Chemistry studies (set)"
                    }
                  ],
                  "text": "Chemistry"
                },
                "entry": [
                  {
                    "reference": "urn:uuid:9914daca-4026-434b-a52e-6f4675198787"
                  },
                  {
                    "reference": "urn:uuid:9be4bd68-76f8-4b72-893b-730e6eff2533"
                  },
                  {
                    "reference": "urn:uuid:c960f303-4ca0-46dd-9f6d-a278939641fc"
                  },
                  {
                    "reference": "urn:uuid:9df5d338-6475-456e-9ceb-86863cdf5813"
                  },
                  {
                    "reference": "urn:uuid:b05b9483-03ca-4df4-943b-5696b470cfed"
                  },
                  {
                    "reference": "urn:uuid:b929f0b7-474e-4845-9535-cb9d03852453"
                  },
                  {
                    "reference": "urn:uuid:1270f3c3-1fdb-4b9f-a992-4402a7dba430"
                  },
                  {
                    "reference": "urn:uuid:fcbba21d-fc89-442d-b964-af46fcb10218"
                  },
                  {
                    "reference": "urn:uuid:a550959e-65ae-49e3-8eb6-1be2b8071bfd"
                  },
                  {
                    "reference": "urn:uuid:78efddc4-2be5-4420-9ce8-4a5707c58053"
                  },
                  {
                    "reference": "urn:uuid:39f67b28-7059-4fe5-a0c0-33ae2b1009ac"
                  },
                  {
                    "reference": "urn:uuid:d1dc23ef-1e68-42e8-a0ef-ad67a1851ab2"
                  },
                  {
                    "reference": "urn:uuid:924f1198-0394-4fe0-84d2-a4f491cdb97c"
                  },
                  {
                    "reference": "urn:uuid:2513a458-dcb3-4028-8c63-2c4365cf258b"
                  },
                  {
                    "reference": "urn:uuid:4860e8e0-baa7-4e99-87d5-5eeef595235b"
                  },
                  {
                    "reference": "urn:uuid:8f37621e-45a3-4eb7-8151-ea46cb15b4e5"
                  }
                ],
                "text": {
                  "status": "generated",
                  "div": "<div xmlns=\"http://www.w3.org/1999/xhtml\"><h3>Chemistry</h3><table class=\"hl7__eu__lab__report\"><thead><tr><th>Test</th><th>30-NOV-2017</th><th>Reference&#xA0;Range</th><th>Unit</th></tr></thead><tbody><tr><td>Glucose [Mass/volume] in Blood</td><td>70.3</td><td>70 - 140</td><td>mg/dL</td></tr><tr><td>Urea nitrogen [Mass/volume] in Blood</td><td>19.0</td><td>7 - 30</td><td>mg/dL</td></tr><tr><td>Creatinine [Mass/volume] in Blood</td><td><strong>3.3 H</strong></td><td>0.5 - 1.3</td><td>mg/dL</td></tr><tr><td>Calcium [Mass/volume] in Blood</td><td>8.9</td><td>8.6 - 10.2</td><td>mg/dL</td></tr><tr><td>Sodium [Moles/volume] in Blood</td><td>136.2</td><td>135 - 145</td><td>mmol/L</td></tr><tr><td>Potassium [Moles/volume] in Blood</td><td>5.1</td><td>3.5 - 5.1</td><td>mmol/L</td></tr><tr><td>Chloride [Moles/volume] in Blood</td><td>103.5</td><td>98 - 114</td><td>mmol/L</td></tr><tr><td>Carbon dioxide, total [Moles/volume] in Blood</td><td>26.1</td><td>22 - 32</td><td>mmol/L</td></tr><tr><td>Protein [Mass/volume] in Serum or Plasma</td><td>6.5</td><td>6 - 8.3</td><td>g/dL</td></tr><tr><td>Albumin [Mass/volume] in Serum or Plasma</td><td>5.2</td><td>3.5 - 5.5</td><td>g/dL</td></tr><tr><td>Globulin [Mass/volume] in Serum by calculation</td><td>2.1</td><td>2 - 3.5</td><td>g/L</td></tr><tr><td>Bilirubin.total [Mass/volume] in Serum or Plasma</td><td>0.6</td><td>0.3 - 1.2</td><td>mg/dL</td></tr><tr><td>Alkaline phosphatase [Enzymatic activity/volume] in Serum or Plasma</td><td>72.1</td><td>44 - 142</td><td>U/L</td></tr><tr><td>Alanine aminotransferase [Enzymatic activity/volume] in Serum or Plasma</td><td><strong>57.9 H</strong></td><td>7 - 40</td><td>U/L</td></tr><tr><td>Aspartate aminotransferase [Enzymatic activity/volume] in Serum or Plasma</td><td>21.9</td><td>10 - 40</td><td>U/L</td></tr><tr><td>Ketones [Presence] in Urine by Test strip</td><td>Urine ketone test = +++</td><td></td><td></td></tr></tbody></table></div>"
                },
                "title": "Chemistry"
              },
              {
                "code": {
                  "coding": [
                    {
                      "code": "$18729-4",
                      "system": "http://loinc.org",
                      "display": "Urinalysis studies (set)"
                    }
                  ],
                  "text": "Urinalysis"
                },
                "entry": [
                  {
                    "reference": "urn:uuid:fabf018f-ccc9-4ecc-9f05-a12d35e476d3"
                  },
                  {
                    "reference": "urn:uuid:9bfa0d08-0808-4289-946a-678eca2946ca"
                  },
                  {
                    "reference": "urn:uuid:cff16709-13c9-4c51-9a55-53c06b19c8d4"
                  },
                  {
                    "reference": "urn:uuid:2d8c752e-8bf2-49a6-a647-51d5ada30ef8"
                  },
                  {
                    "reference": "urn:uuid:fdafce7e-eaf3-4724-95ff-c537fcfb4d58"
                  },
                  {
                    "reference": "urn:uuid:28373147-2b9b-4689-8cce-bbc6c132d8ce"
                  },
                  {
                    "reference": "urn:uuid:229709c0-5b58-4317-b906-1cf90d74a629"
                  },
                  {
                    "reference": "urn:uuid:131a1223-2618-4538-89c7-e06981f4420e"
                  },
                  {
                    "reference": "urn:uuid:d0b6fb5b-8861-42c8-a1a1-93fba409ae6a"
                  },
                  {
                    "reference": "urn:uuid:1c11fef7-15fb-4c8d-a0c7-b8d9f10541af"
                  },
                  {
                    "reference": "urn:uuid:e7a79703-75a3-49e7-b328-1a0aef475f55"
                  },
                  {
                    "reference": "urn:uuid:a04392aa-1a95-4fe9-86d7-04408b1e9dd1"
                  }
                ],
                "text": {
                  "status": "generated",
                  "div": "<div xmlns=\"http://www.w3.org/1999/xhtml\"><h3>Urinalysis</h3><table class=\"hl7__eu__lab__report\"><thead><tr><th>Test</th><th>30-NOV-2017</th><th>Reference&#xA0;Range</th><th>Unit</th></tr></thead><tbody><tr><td>Glucose [Mass/volume] in Urine by Test strip</td><td><strong>1.7 H</strong></td><td>0.8 - 0</td><td>mg/dL</td></tr><tr><td>Glucose [Presence] in Urine by Test strip</td><td>++</td><td></td><td></td></tr><tr><td>Bilirubin.total [Mass/volume] in Urine by Test strip</td><td>0.4</td><td>0 - 1.5</td><td>mg/dL</td></tr><tr><td>Bilirubin.total [Presence] in Urine by Test strip</td><td>Finding of bilirubin in urine</td><td></td><td></td></tr><tr><td>Ketones [Mass/volume] in Urine by Test strip</td><td><strong>13.8 H</strong></td><td>0 - 8</td><td>mg/dL</td></tr><tr><td>Specific gravity of Urine by Test strip</td><td><strong>1.0 L</strong></td><td>1.01 - 1.03</td><td>{nominal}</td></tr><tr><td>pH of Urine by Test strip</td><td>5.5</td><td>4.6 - 7.5</td><td>pH</td></tr><tr><td>Protein [Mass/volume] in Urine by Test strip</td><td><strong>421.7 H</strong></td><td>0 - 14</td><td>mg/dL</td></tr><tr><td>Protein [Presence] in Urine by Test strip</td><td>Urine protein test = +++</td><td></td><td></td></tr><tr><td>Nitrite [Presence] in Urine by Test strip</td><td>Urine nitrite negative</td><td></td><td></td></tr><tr><td>Hemoglobin [Presence] in Urine by Test strip</td><td>Urine blood test = negative</td><td></td><td></td></tr><tr><td>Leukocyte esterase [Presence] in Urine by Test strip</td><td>Urine leukocyte test negative</td><td></td><td></td></tr></tbody></table></div>"
                },
                "title": "Urinalysis"
              },
              {
                "code": {
                  "coding": [
                    {
                      "code": "$LP7846-1",
                      "system": "http://loinc.org",
                      "display": "Specimen information"
                    }
                  ],
                  "text": "Specimen information"
                },
                "entry": [
                  {
                    "reference": "urn:uuid:0fed8935-44cb-4511-b272-b4249015a45e"
                  },
                  {
                    "reference": "urn:uuid:cf1d8fd1-26f5-4318-a5da-772305922ab0"
                  },
                  {
                    "reference": "urn:uuid:9e70b135-f553-4d40-950a-0379db99ba67"
                  },
                  {
                    "reference": "urn:uuid:70bad484-a07d-4c4e-99c2-12b84d1f9693"
                  }
                ],
                "text": {
                  "status": "generated",
                  "div": "<div xmlns=\"http://www.w3.org/1999/xhtml\"><h3>Specimen information</h3><table class=\"hl7__eu__lab__report\"><thead><tr><th>Test</th><th>30-NOV-2017</th><th>Specimen</th><th></th></tr></thead><tbody><tr><td>Appearance of Urine</td><td>Cloudy urine</td><td>Urine</td><td></td></tr><tr><td>Odor of Urine</td><td>Urine smell ammoniacal</td><td>Urine</td><td></td></tr><tr><td>Clarity of Urine</td><td>Translucent</td><td>Urine</td><td></td></tr><tr><td>Color of Urine</td><td>Brown color</td><td>Urine</td><td></td></tr></tbody></table></div>"
                },
                "title": "Specimen information"
              }
            ],
            "title": "Laboratory Report"
          },
          {
            "text": {
              "status": "generated",
              "div": "<div xmlns=\"http://www.w3.org/1999/xhtml\"><h3>Annotation</h3><table class=\"hl7__eu__lab__report\"><tr><th>Conclusion and Recommendations based on this report and previous findings known to us</th></tr><tr><td>The patient shows markedly elevated serum creatinine, indicating significant renal impairment, and elevated ALT, suggesting possible liver involvement. Urinalysis reveals proteinuria, glucosuria, and ketonuria, with low specific gravity and abnormal urine appearance, supporting renal dysfunction and possible diabetic ketoacidosis. Immediate clinical evaluation and management are recommended.</td></tr></table></div>"
            },
            "code": {
              "coding": [
                {
                  "system": "http://loinc.org",
                  "code": "48767-8",
                  "display": "Annotation comment"
                }
              ]
            },
            "title": "Annotation comment"
          }
        ],
        "status": "final",
        "subject": {
          "reference": "urn:uuid:31285459-e58b-4f26-92e9-d07c56120721",
          "display": "Maria Nohlmans"
        },
        "date": "2017-11-30T08:55:39Z",
        "title": "Laboratory Report",
        "confidentiality": "N"
      }
    },
    {
      "fullUrl": "urn:uuid:fb21b0e4-f814-4c91-9470-71fd8dd1bf50",
      "resource": {
        "resourceType": "DiagnosticReport",
        "id": "fb21b0e4-f814-4c91-9470-71fd8dd1bf50",
        "meta": {
          "profile": [
            "http://hl7.eu/fhir/laboratory/StructureDefinition/DiagnosticReport-eu-lab"
          ]
        },
        "identifier": [
          {
            "assigner": {
              "display": "HL7 Europe"
            },
            "system": "urn:oid:2.16.840.1.113883.2.51.999",
            "value": "c57f7349-292a-47e6-a117-7f0ff5aa0369"
          }
        ],
        "extension": [
          {
            "url": "http://hl7.org/fhir/5.0/StructureDefinition/extension-DiagnosticReport.composition",
            "valueReference": {
              "reference": "urn:uuid:70faedac-df84-4ff9-9388-909077f0d157"
            }
          }
        ],
        "category": [
          {
            "coding": [
              {
                "code": "26436-6",
                "system": "http://loinc.org",
                "display": "Laboratory studies (set)"
              }
            ]
          }
        ],
        "specimen": [
          {
            "reference": "urn:uuid:b4f4f084-06d6-41f1-99b1-6251517c77ec"
          },
          {
            "reference": "urn:uuid:a1346e78-fa91-4d9b-b5d3-410dd2faf0a4"
          },
          {
            "reference": "urn:uuid:b23b4c59-0927-4a20-98a5-e4125dbb86ee"
          },
          {
            "reference": "urn:uuid:640fc87e-ec59-4b8a-a8e8-16e6ea079e71"
          }
        ],
        "result": [
          {
            "reference": "urn:uuid:9914daca-4026-434b-a52e-6f4675198787"
          },
          {
            "reference": "urn:uuid:9be4bd68-76f8-4b72-893b-730e6eff2533"
          },
          {
            "reference": "urn:uuid:c960f303-4ca0-46dd-9f6d-a278939641fc"
          },
          {
            "reference": "urn:uuid:9df5d338-6475-456e-9ceb-86863cdf5813"
          },
          {
            "reference": "urn:uuid:b05b9483-03ca-4df4-943b-5696b470cfed"
          },
          {
            "reference": "urn:uuid:b929f0b7-474e-4845-9535-cb9d03852453"
          },
          {
            "reference": "urn:uuid:1270f3c3-1fdb-4b9f-a992-4402a7dba430"
          },
          {
            "reference": "urn:uuid:fcbba21d-fc89-442d-b964-af46fcb10218"
          },
          {
            "reference": "urn:uuid:a550959e-65ae-49e3-8eb6-1be2b8071bfd"
          },
          {
            "reference": "urn:uuid:78efddc4-2be5-4420-9ce8-4a5707c58053"
          },
          {
            "reference": "urn:uuid:39f67b28-7059-4fe5-a0c0-33ae2b1009ac"
          },
          {
            "reference": "urn:uuid:d1dc23ef-1e68-42e8-a0ef-ad67a1851ab2"
          },
          {
            "reference": "urn:uuid:924f1198-0394-4fe0-84d2-a4f491cdb97c"
          },
          {
            "reference": "urn:uuid:2513a458-dcb3-4028-8c63-2c4365cf258b"
          },
          {
            "reference": "urn:uuid:4860e8e0-baa7-4e99-87d5-5eeef595235b"
          },
          {
            "reference": "urn:uuid:0fed8935-44cb-4511-b272-b4249015a45e"
          },
          {
            "reference": "urn:uuid:cf1d8fd1-26f5-4318-a5da-772305922ab0"
          },
          {
            "reference": "urn:uuid:9e70b135-f553-4d40-950a-0379db99ba67"
          },
          {
            "reference": "urn:uuid:70bad484-a07d-4c4e-99c2-12b84d1f9693"
          },
          {
            "reference": "urn:uuid:fabf018f-ccc9-4ecc-9f05-a12d35e476d3"
          },
          {
            "reference": "urn:uuid:9bfa0d08-0808-4289-946a-678eca2946ca"
          },
          {
            "reference": "urn:uuid:cff16709-13c9-4c51-9a55-53c06b19c8d4"
          },
          {
            "reference": "urn:uuid:2d8c752e-8bf2-49a6-a647-51d5ada30ef8"
          },
          {
            "reference": "urn:uuid:fdafce7e-eaf3-4724-95ff-c537fcfb4d58"
          },
          {
            "reference": "urn:uuid:8f37621e-45a3-4eb7-8151-ea46cb15b4e5"
          },
          {
            "reference": "urn:uuid:28373147-2b9b-4689-8cce-bbc6c132d8ce"
          },
          {
            "reference": "urn:uuid:229709c0-5b58-4317-b906-1cf90d74a629"
          },
          {
            "reference": "urn:uuid:131a1223-2618-4538-89c7-e06981f4420e"
          },
          {
            "reference": "urn:uuid:d0b6fb5b-8861-42c8-a1a1-93fba409ae6a"
          },
          {
            "reference": "urn:uuid:1c11fef7-15fb-4c8d-a0c7-b8d9f10541af"
          },
          {
            "reference": "urn:uuid:e7a79703-75a3-49e7-b328-1a0aef475f55"
          },
          {
            "reference": "urn:uuid:a04392aa-1a95-4fe9-86d7-04408b1e9dd1"
          }
        ],
        "status": "registered",
        "code": {
          "coding": [
            {
              "code": "11502-2",
              "system": "http://loinc.org",
              "display": "Laboratory report"
            }
          ]
        },
        "subject": {
          "reference": "urn:uuid:31285459-e58b-4f26-92e9-d07c56120721",
          "display": "Maria Nohlmans"
        }
      }
    },
    {
      "fullUrl": "urn:uuid:31285459-e58b-4f26-92e9-d07c56120721",
      "resource": {
        "resourceType": "Patient",
        "id": "31285459-e58b-4f26-92e9-d07c56120721",
        "meta": {
          "security": [
            {
              "system": "http://terminology.hl7.org/CodeSystem/v3-ActReason",
              "code": "HTEST"
            },
            {
              "system": "http://terminology.hl7.org/CodeSystem/v3-ActReason",
              "code": "TRAIN"
            }
          ],
          "tag": [
            {
              "system": "https://synderai.net/fhir/CodeSystem/tags",
              "code": "synthetic",
              "display": "SYNDERAI Synthetic data"
            }
          ],
          "profile": [
            "http://hl7.eu/fhir/base/StructureDefinition/patient-eu-core"
          ]
        },
        "identifier": [
          {
            "type": {
              "coding": [
                {
                  "code": "PT",
                  "system": "http://terminology.hl7.org/CodeSystem/v2-0203"
                }
              ]
            },
            "system": "http://ec.europa.eu/identifier/eci",
            "value": "6886-506417-1"
          },
          {
            "type": {
              "coding": [
                {
                  "code": "MR",
                  "system": "http://terminology.hl7.org/CodeSystem/v2-0203"
                }
              ]
            },
            "system": "http://local.setting.eu/identifier",
            "value": "2cb21ed6-b617-b1f3-2290-589a710de5ee"
          }
        ],
        "name": [
          {
            "family": "Nohlmans"
          },
          {
            "given": [
              "Maria"
            ]
          },
          {
            "text": "Maria Nohlmans"
          }
        ],
        "address": [
          {
            "line": [
              "Alfons-Wulff-Weg 1"
            ],
            "use": "home",
            "type": "physical",
            "postalCode": "25813",
            "city": "Husum",
            "country": "Germany"
          }
        ],
        "telecom": [
          {
            "system": "phone",
            "value": "+49(0)1911 105501"
          }
        ],
        "extension": [
          {
            "url": "http://hl7.org/fhir/StructureDefinition/patient-nationality",
            "valueCodeableConcept": {
              "coding": [
                {
                  "code": "DE",
                  "system": "http://hl7.org/fhir/ValueSet/country"
                }
              ]
            }
          }
        ],
        "text": {
          "status": "generated",
          "div": "<div xmlns=\"http://www.w3.org/1999/xhtml\"><table class=\"hl7__ips\"><tr><td>Maria Nohlmans</td><td>female</td><td>11-Jun-1947</td></tr></table></div>"
        },
        "gender": "female",
        "birthDate": "1947-06-11"
      }
    },
    {
      "fullUrl": "urn:uuid:ecdb8192-a60f-49cc-841f-daa49c7e0f84",
      "resource": {
        "resourceType": "ServiceRequest",
        "id": "ecdb8192-a60f-49cc-841f-daa49c7e0f84",
        "meta": {
          "profile": [
            "http://hl7.eu/fhir/laboratory/StructureDefinition/ServiceRequest-eu-lab"
          ]
        },
        "identifier": [
          {
            "system": "http://example.org",
            "value": "c587bbf4-abd9-46a4-8906-543cd4797d65"
          }
        ],
        "specimen": [
          {
            "reference": "urn:uuid:b4f4f084-06d6-41f1-99b1-6251517c77ec"
          },
          {
            "reference": "urn:uuid:a1346e78-fa91-4d9b-b5d3-410dd2faf0a4"
          },
          {
            "reference": "urn:uuid:b23b4c59-0927-4a20-98a5-e4125dbb86ee"
          },
          {
            "reference": "urn:uuid:640fc87e-ec59-4b8a-a8e8-16e6ea079e71"
          }
        ],
        "reasonCode": [
          {
            "coding": [
              {
                "code": "401314000",
                "system": "http://snomed.info/sct",
                "display": "Acute non-ST segment elevation myocardial infarction"
              }
            ]
          },
          {
            "coding": [
              {
                "code": "157141000119108",
                "system": "http://snomed.info/sct",
                "display": "Proteinuria due to type 2 diabetes mellitus"
              }
            ]
          },
          {
            "coding": [
              {
                "code": "237602007",
                "system": "http://snomed.info/sct",
                "display": "Metabolic syndrome X"
              }
            ]
          },
          {
            "coding": [
              {
                "code": "90781000119102",
                "system": "http://snomed.info/sct",
                "display": "Microalbuminuria due to type 2 diabetes mellitus"
              }
            ]
          },
          {
            "coding": [
              {
                "code": "127013003",
                "system": "http://snomed.info/sct",
                "display": "Disorder of kidney due to diabetes mellitus"
              }
            ]
          },
          {
            "coding": [
              {
                "code": "59621000",
                "system": "http://snomed.info/sct",
                "display": "Essential hypertension"
              }
            ]
          },
          {
            "coding": [
              {
                "code": "271737000",
                "system": "http://snomed.info/sct",
                "display": "Anemia"
              }
            ]
          },
          {
            "coding": [
              {
                "code": "15777000",
                "system": "http://snomed.info/sct",
                "display": "Prediabetes"
              }
            ]
          }
        ],
        "status": "active",
        "intent": "order",
        "code": {
          "coding": [
            {
              "code": "108252007",
              "system": "http://snomed.info/sct",
              "display": "Laboratory procedure"
            }
          ]
        },
        "subject": {
          "reference": "urn:uuid:31285459-e58b-4f26-92e9-d07c56120721",
          "display": "Maria Nohlmans"
        },
        "requester": {
          "reference": "urn:uuid:67be1bc2-3657-4096-8bfa-ab1641c1af4b"
        }
      }
    },
    {
      "fullUrl": "urn:uuid:67be1bc2-3657-4096-8bfa-ab1641c1af4b",
      "resource": {
        "resourceType": "PractitionerRole",
        "id": "67be1bc2-3657-4096-8bfa-ab1641c1af4b",
        "meta": {
          "profile": [
            "http://hl7.eu/fhir/base/StructureDefinition/practitionerRole-eu"
          ]
        },
        "text": {
          "status": "generated",
          "div": "<div xmlns=\"http://www.w3.org/1999/xhtml\">Provider Role Id: 67be1bc2-3657-4096-8bfa-ab1641c1af4b</div>"
        },
        "organization": {
          "reference": "urn:uuid:dc9e5f8b-c51d-4504-a33c-77a7846f1f3f"
        }
      }
    },
    {
      "fullUrl": "urn:uuid:dc9e5f8b-c51d-4504-a33c-77a7846f1f3f",
      "resource": {
        "resourceType": "Organization",
        "id": "dc9e5f8b-c51d-4504-a33c-77a7846f1f3f",
        "meta": {
          "profile": [
            "http://hl7.eu/fhir/base/StructureDefinition/organization-eu"
          ]
        },
        "identifier": [
          {
            "assigner": {
              "display": "HL7 Europe"
            },
            "system": "urn:oid:2.16.840.1.113883.2.51.999",
            "value": "7e722da9-5c71-4601-828e-3cb7effb1463"
          }
        ],
        "address": [
          {
            "line": [
              "Brinckmannstraße 35"
            ],
            "city": "Husum",
            "postalCode": "25813",
            "country": "Germany"
          }
        ],
        "text": {
          "status": "generated",
          "div": "<div xmlns=\"http://www.w3.org/1999/xhtml\">Provider Organization: Dr. Wolfram Hussels Kieferorthopäde</div>"
        },
        "name": "Dr. Wolfram Hussels Kieferorthopäde"
      }
    },
    {
      "fullUrl": "urn:uuid:b4f4f084-06d6-41f1-99b1-6251517c77ec",
      "resource": {
        "resourceType": "Specimen",
        "id": "b4f4f084-06d6-41f1-99b1-6251517c77ec",
        "meta": {
          "profile": [
            "http://hl7.eu/fhir/laboratory/StructureDefinition/Specimen-eu-lab"
          ]
        },
        "collection": {
          "collectedDateTime": "2017-11-30"
        },
        "text": {
          "status": "generated",
          "div": "<div xmlns=\"http://www.w3.org/1999/xhtml\"><table class=\"hl7__eu__lab__report\"><tr><th>Specimen</th><th>Collection Date</th></tr><tr><td>Whole blood specimen (specimen)</td><td><span class=\"nb\">30-Nov-2017</span></td></tr></table></div>"
        },
        "type": {
          "coding": [
            {
              "code": "258580003",
              "system": "http://snomed.info/sct",
              "display": "Whole blood specimen (specimen)"
            }
          ]
        }
      }
    },
    {
      "fullUrl": "urn:uuid:a1346e78-fa91-4d9b-b5d3-410dd2faf0a4",
      "resource": {
        "resourceType": "Specimen",
        "id": "a1346e78-fa91-4d9b-b5d3-410dd2faf0a4",
        "meta": {
          "profile": [
            "http://hl7.eu/fhir/laboratory/StructureDefinition/Specimen-eu-lab"
          ]
        },
        "collection": {
          "collectedDateTime": "2017-11-30"
        },
        "text": {
          "status": "generated",
          "div": "<div xmlns=\"http://www.w3.org/1999/xhtml\"><table class=\"hl7__eu__lab__report\"><tr><th>Specimen</th><th>Collection Date</th></tr><tr><td>Acellular blood (serum or plasma) specimen</td><td><span class=\"nb\">30-Nov-2017</span></td></tr></table></div>"
        },
        "type": {
          "coding": [
            {
              "code": "122592007",
              "system": "http://snomed.info/sct",
              "display": "Acellular blood (serum or plasma) specimen"
            }
          ]
        }
      }
    },
    {
      "fullUrl": "urn:uuid:b23b4c59-0927-4a20-98a5-e4125dbb86ee",
      "resource": {
        "resourceType": "Specimen",
        "id": "b23b4c59-0927-4a20-98a5-e4125dbb86ee",
        "meta": {
          "profile": [
            "http://hl7.eu/fhir/laboratory/StructureDefinition/Specimen-eu-lab"
          ]
        },
        "collection": {
          "collectedDateTime": "2017-11-30"
        },
        "text": {
          "status": "generated",
          "div": "<div xmlns=\"http://www.w3.org/1999/xhtml\"><table class=\"hl7__eu__lab__report\"><tr><th>Specimen</th><th>Collection Date</th></tr><tr><td>Serum specimen</td><td><span class=\"nb\">30-Nov-2017</span></td></tr></table></div>"
        },
        "type": {
          "coding": [
            {
              "code": "119364003",
              "system": "http://snomed.info/sct",
              "display": "Serum specimen"
            }
          ]
        }
      }
    },
    {
      "fullUrl": "urn:uuid:640fc87e-ec59-4b8a-a8e8-16e6ea079e71",
      "resource": {
        "resourceType": "Specimen",
        "id": "640fc87e-ec59-4b8a-a8e8-16e6ea079e71",
        "meta": {
          "profile": [
            "http://hl7.eu/fhir/laboratory/StructureDefinition/Specimen-eu-lab"
          ]
        },
        "collection": {
          "collectedDateTime": "2017-11-30"
        },
        "text": {
          "status": "generated",
          "div": "<div xmlns=\"http://www.w3.org/1999/xhtml\"><table class=\"hl7__eu__lab__report\"><tr><th>Specimen</th><th>Collection Date</th></tr><tr><td>Urine specimen</td><td><span class=\"nb\">30-Nov-2017</span></td></tr></table></div>"
        },
        "type": {
          "coding": [
            {
              "code": "122575003",
              "system": "http://snomed.info/sct",
              "display": "Urine specimen"
            }
          ]
        }
      }
    },
    {
      "fullUrl": "urn:uuid:9914daca-4026-434b-a52e-6f4675198787",
      "resource": {
        "resourceType": "Observation",
        "id": "9914daca-4026-434b-a52e-6f4675198787",
        "meta": {
          "profile": [
            "http://hl7.eu/fhir/laboratory/StructureDefinition/Observation-resultslab-eu-lab"
          ]
        },
        "performer": [
          {
            "display": "The Central European Lab"
          }
        ],
        "category": [
          {
            "coding": [
              {
                "system": "http://terminology.hl7.org/CodeSystem/observation-category",
                "code": "laboratory"
              }
            ]
          }
        ],
        "code": {
          "coding": [
            {
              "code": "2339-0",
              "system": "http://loinc.org",
              "display": "Glucose [Mass/volume] in Blood"
            }
          ],
          "text": "Glucose [Mass/volume] in Blood"
        },
        "valueQuantity": {
          "system": "http://unitsofmeasure.org",
          "value": 70.3,
          "unit": "mg/dL",
          "code": "mg/dL"
        },
        "referenceRange": [
          {
            "low": {
              "value": 70,
              "code": "mg/dL",
              "system": "http://unitsofmeasure.org"
            }
          },
          {
            "high": {
              "value": 140,
              "code": "mg/dL",
              "system": "http://unitsofmeasure.org"
            }
          }
        ],
        "text": {
          "status": "generated",
          "div": "<div xmlns=\"http://www.w3.org/1999/xhtml\"><table class=\"hl7__eu__lab__report\"><tr><th>Test</th><th>30-Nov-2017</th><th>Reference&#xA0;Range</th><th>Unit</th></tr><tr><td>Glucose [Mass/volume] in Blood</td><td>70.3</td><td>70 - 140</td><td></td><td>mg/dL</td></tr></table></div>"
        },
        "status": "final",
        "subject": {
          "reference": "urn:uuid:31285459-e58b-4f26-92e9-d07c56120721",
          "display": "Maria Nohlmans"
        },
        "effectiveDateTime": "2017-11-30T07:55:39Z",
        "specimen": {
          "reference": "urn:uuid:b4f4f084-06d6-41f1-99b1-6251517c77ec"
        }
      }
    },
    {
      "fullUrl": "urn:uuid:9be4bd68-76f8-4b72-893b-730e6eff2533",
      "resource": {
        "resourceType": "Observation",
        "id": "9be4bd68-76f8-4b72-893b-730e6eff2533",
        "meta": {
          "profile": [
            "http://hl7.eu/fhir/laboratory/StructureDefinition/Observation-resultslab-eu-lab"
          ]
        },
        "performer": [
          {
            "display": "The Central European Lab"
          }
        ],
        "category": [
          {
            "coding": [
              {
                "system": "http://terminology.hl7.org/CodeSystem/observation-category",
                "code": "laboratory"
              }
            ]
          }
        ],
        "code": {
          "coding": [
            {
              "code": "6299-2",
              "system": "http://loinc.org",
              "display": "Urea nitrogen [Mass/volume] in Blood"
            }
          ],
          "text": "Urea nitrogen [Mass/volume] in Blood"
        },
        "valueQuantity": {
          "system": "http://unitsofmeasure.org",
          "value": 19,
          "unit": "mg/dL",
          "code": "mg/dL"
        },
        "referenceRange": [
          {
            "low": {
              "value": 7,
              "code": "mg/dL",
              "system": "http://unitsofmeasure.org"
            }
          },
          {
            "high": {
              "value": 30,
              "code": "mg/dL",
              "system": "http://unitsofmeasure.org"
            }
          }
        ],
        "text": {
          "status": "generated",
          "div": "<div xmlns=\"http://www.w3.org/1999/xhtml\"><table class=\"hl7__eu__lab__report\"><tr><th>Test</th><th>30-Nov-2017</th><th>Reference&#xA0;Range</th><th>Unit</th></tr><tr><td>Urea nitrogen [Mass/volume] in Blood</td><td>19.0</td><td>7 - 30</td><td></td><td>mg/dL</td></tr></table></div>"
        },
        "status": "final",
        "subject": {
          "reference": "urn:uuid:31285459-e58b-4f26-92e9-d07c56120721",
          "display": "Maria Nohlmans"
        },
        "effectiveDateTime": "2017-11-30T07:55:39Z",
        "specimen": {
          "reference": "urn:uuid:b4f4f084-06d6-41f1-99b1-6251517c77ec"
        }
      }
    },
    {
      "fullUrl": "urn:uuid:c960f303-4ca0-46dd-9f6d-a278939641fc",
      "resource": {
        "resourceType": "Observation",
        "id": "c960f303-4ca0-46dd-9f6d-a278939641fc",
        "meta": {
          "profile": [
            "http://hl7.eu/fhir/laboratory/StructureDefinition/Observation-resultslab-eu-lab"
          ]
        },
        "performer": [
          {
            "display": "The Central European Lab"
          }
        ],
        "category": [
          {
            "coding": [
              {
                "system": "http://terminology.hl7.org/CodeSystem/observation-category",
                "code": "laboratory"
              }
            ]
          }
        ],
        "code": {
          "coding": [
            {
              "code": "38483-4",
              "system": "http://loinc.org",
              "display": "Creatinine [Mass/volume] in Blood"
            }
          ],
          "text": "Creatinine [Mass/volume] in Blood"
        },
        "valueQuantity": {
          "system": "http://unitsofmeasure.org",
          "value": 3.3,
          "unit": "mg/dL",
          "code": "mg/dL"
        },
        "referenceRange": [
          {
            "low": {
              "value": 0.5,
              "code": "mg/dL",
              "system": "http://unitsofmeasure.org"
            }
          },
          {
            "high": {
              "value": 1.3,
              "code": "mg/dL",
              "system": "http://unitsofmeasure.org"
            }
          }
        ],
        "interpretation": [
          {
            "coding": [
              {
                "code": "H",
                "system": "http://terminology.hl7.org/CodeSystem/v3-ObservationInterpretation",
                "display": "High"
              }
            ]
          }
        ],
        "text": {
          "status": "generated",
          "div": "<div xmlns=\"http://www.w3.org/1999/xhtml\"><table class=\"hl7__eu__lab__report\"><tr><th>Test</th><th>30-Nov-2017</th><th>Reference&#xA0;Range</th><th>Unit</th></tr><tr><td>Creatinine [Mass/volume] in Blood</td><td>3.3</td><td>0.5 - 1.3</td><td>H</td><td>mg/dL</td></tr></table></div>"
        },
        "status": "final",
        "subject": {
          "reference": "urn:uuid:31285459-e58b-4f26-92e9-d07c56120721",
          "display": "Maria Nohlmans"
        },
        "effectiveDateTime": "2017-11-30T07:55:39Z",
        "specimen": {
          "reference": "urn:uuid:b4f4f084-06d6-41f1-99b1-6251517c77ec"
        }
      }
    },
    {
      "fullUrl": "urn:uuid:9df5d338-6475-456e-9ceb-86863cdf5813",
      "resource": {
        "resourceType": "Observation",
        "id": "9df5d338-6475-456e-9ceb-86863cdf5813",
        "meta": {
          "profile": [
            "http://hl7.eu/fhir/laboratory/StructureDefinition/Observation-resultslab-eu-lab"
          ]
        },
        "performer": [
          {
            "display": "The Central European Lab"
          }
        ],
        "category": [
          {
            "coding": [
              {
                "system": "http://terminology.hl7.org/CodeSystem/observation-category",
                "code": "laboratory"
              }
            ]
          }
        ],
        "code": {
          "coding": [
            {
              "code": "49765-1",
              "system": "http://loinc.org",
              "display": "Calcium [Mass/volume] in Blood"
            }
          ],
          "text": "Calcium [Mass/volume] in Blood"
        },
        "valueQuantity": {
          "system": "http://unitsofmeasure.org",
          "value": 8.9,
          "unit": "mg/dL",
          "code": "mg/dL"
        },
        "referenceRange": [
          {
            "low": {
              "value": 8.6,
              "code": "mg/dL",
              "system": "http://unitsofmeasure.org"
            }
          },
          {
            "high": {
              "value": 10.2,
              "code": "mg/dL",
              "system": "http://unitsofmeasure.org"
            }
          }
        ],
        "text": {
          "status": "generated",
          "div": "<div xmlns=\"http://www.w3.org/1999/xhtml\"><table class=\"hl7__eu__lab__report\"><tr><th>Test</th><th>30-Nov-2017</th><th>Reference&#xA0;Range</th><th>Unit</th></tr><tr><td>Calcium [Mass/volume] in Blood</td><td>8.9</td><td>8.6 - 10.2</td><td></td><td>mg/dL</td></tr></table></div>"
        },
        "status": "final",
        "subject": {
          "reference": "urn:uuid:31285459-e58b-4f26-92e9-d07c56120721",
          "display": "Maria Nohlmans"
        },
        "effectiveDateTime": "2017-11-30T07:55:39Z",
        "specimen": {
          "reference": "urn:uuid:b4f4f084-06d6-41f1-99b1-6251517c77ec"
        }
      }
    },
    {
      "fullUrl": "urn:uuid:b05b9483-03ca-4df4-943b-5696b470cfed",
      "resource": {
        "resourceType": "Observation",
        "id": "b05b9483-03ca-4df4-943b-5696b470cfed",
        "meta": {
          "profile": [
            "http://hl7.eu/fhir/laboratory/StructureDefinition/Observation-resultslab-eu-lab"
          ]
        },
        "performer": [
          {
            "display": "The Central European Lab"
          }
        ],
        "category": [
          {
            "coding": [
              {
                "system": "http://terminology.hl7.org/CodeSystem/observation-category",
                "code": "laboratory"
              }
            ]
          }
        ],
        "code": {
          "coding": [
            {
              "code": "2947-0",
              "system": "http://loinc.org",
              "display": "Sodium [Moles/volume] in Blood"
            }
          ],
          "text": "Sodium [Moles/volume] in Blood"
        },
        "valueQuantity": {
          "system": "http://unitsofmeasure.org",
          "value": 136.2,
          "unit": "mmol/L",
          "code": "mmol/L"
        },
        "referenceRange": [
          {
            "low": {
              "value": 135,
              "code": "mmol/L",
              "system": "http://unitsofmeasure.org"
            }
          },
          {
            "high": {
              "value": 145,
              "code": "mmol/L",
              "system": "http://unitsofmeasure.org"
            }
          }
        ],
        "text": {
          "status": "generated",
          "div": "<div xmlns=\"http://www.w3.org/1999/xhtml\"><table class=\"hl7__eu__lab__report\"><tr><th>Test</th><th>30-Nov-2017</th><th>Reference&#xA0;Range</th><th>Unit</th></tr><tr><td>Sodium [Moles/volume] in Blood</td><td>136.2</td><td>135 - 145</td><td></td><td>mmol/L</td></tr></table></div>"
        },
        "status": "final",
        "subject": {
          "reference": "urn:uuid:31285459-e58b-4f26-92e9-d07c56120721",
          "display": "Maria Nohlmans"
        },
        "effectiveDateTime": "2017-11-30T07:55:39Z",
        "specimen": {
          "reference": "urn:uuid:b4f4f084-06d6-41f1-99b1-6251517c77ec"
        }
      }
    },
    {
      "fullUrl": "urn:uuid:b929f0b7-474e-4845-9535-cb9d03852453",
      "resource": {
        "resourceType": "Observation",
        "id": "b929f0b7-474e-4845-9535-cb9d03852453",
        "meta": {
          "profile": [
            "http://hl7.eu/fhir/laboratory/StructureDefinition/Observation-resultslab-eu-lab"
          ]
        },
        "performer": [
          {
            "display": "The Central European Lab"
          }
        ],
        "category": [
          {
            "coding": [
              {
                "system": "http://terminology.hl7.org/CodeSystem/observation-category",
                "code": "laboratory"
              }
            ]
          }
        ],
        "code": {
          "coding": [
            {
              "code": "6298-4",
              "system": "http://loinc.org",
              "display": "Potassium [Moles/volume] in Blood"
            }
          ],
          "text": "Potassium [Moles/volume] in Blood"
        },
        "valueQuantity": {
          "system": "http://unitsofmeasure.org",
          "value": 5.1,
          "unit": "mmol/L",
          "code": "mmol/L"
        },
        "referenceRange": [
          {
            "low": {
              "value": 3.5,
              "code": "mmol/L",
              "system": "http://unitsofmeasure.org"
            }
          },
          {
            "high": {
              "value": 5.1,
              "code": "mmol/L",
              "system": "http://unitsofmeasure.org"
            }
          }
        ],
        "text": {
          "status": "generated",
          "div": "<div xmlns=\"http://www.w3.org/1999/xhtml\"><table class=\"hl7__eu__lab__report\"><tr><th>Test</th><th>30-Nov-2017</th><th>Reference&#xA0;Range</th><th>Unit</th></tr><tr><td>Potassium [Moles/volume] in Blood</td><td>5.1</td><td>3.5 - 5.1</td><td></td><td>mmol/L</td></tr></table></div>"
        },
        "status": "final",
        "subject": {
          "reference": "urn:uuid:31285459-e58b-4f26-92e9-d07c56120721",
          "display": "Maria Nohlmans"
        },
        "effectiveDateTime": "2017-11-30T07:55:39Z",
        "specimen": {
          "reference": "urn:uuid:b4f4f084-06d6-41f1-99b1-6251517c77ec"
        }
      }
    },
    {
      "fullUrl": "urn:uuid:1270f3c3-1fdb-4b9f-a992-4402a7dba430",
      "resource": {
        "resourceType": "Observation",
        "id": "1270f3c3-1fdb-4b9f-a992-4402a7dba430",
        "meta": {
          "profile": [
            "http://hl7.eu/fhir/laboratory/StructureDefinition/Observation-resultslab-eu-lab"
          ]
        },
        "performer": [
          {
            "display": "The Central European Lab"
          }
        ],
        "category": [
          {
            "coding": [
              {
                "system": "http://terminology.hl7.org/CodeSystem/observation-category",
                "code": "laboratory"
              }
            ]
          }
        ],
        "code": {
          "coding": [
            {
              "code": "2069-3",
              "system": "http://loinc.org",
              "display": "Chloride [Moles/volume] in Blood"
            }
          ],
          "text": "Chloride [Moles/volume] in Blood"
        },
        "valueQuantity": {
          "system": "http://unitsofmeasure.org",
          "value": 103.5,
          "unit": "mmol/L",
          "code": "mmol/L"
        },
        "referenceRange": [
          {
            "low": {
              "value": 98,
              "code": "mmol/L",
              "system": "http://unitsofmeasure.org"
            }
          },
          {
            "high": {
              "value": 114,
              "code": "mmol/L",
              "system": "http://unitsofmeasure.org"
            }
          }
        ],
        "text": {
          "status": "generated",
          "div": "<div xmlns=\"http://www.w3.org/1999/xhtml\"><table class=\"hl7__eu__lab__report\"><tr><th>Test</th><th>30-Nov-2017</th><th>Reference&#xA0;Range</th><th>Unit</th></tr><tr><td>Chloride [Moles/volume] in Blood</td><td>103.5</td><td>98 - 114</td><td></td><td>mmol/L</td></tr></table></div>"
        },
        "status": "final",
        "subject": {
          "reference": "urn:uuid:31285459-e58b-4f26-92e9-d07c56120721",
          "display": "Maria Nohlmans"
        },
        "effectiveDateTime": "2017-11-30T07:55:39Z",
        "specimen": {
          "reference": "urn:uuid:b4f4f084-06d6-41f1-99b1-6251517c77ec"
        }
      }
    },
    {
      "fullUrl": "urn:uuid:fcbba21d-fc89-442d-b964-af46fcb10218",
      "resource": {
        "resourceType": "Observation",
        "id": "fcbba21d-fc89-442d-b964-af46fcb10218",
        "meta": {
          "profile": [
            "http://hl7.eu/fhir/laboratory/StructureDefinition/Observation-resultslab-eu-lab"
          ]
        },
        "performer": [
          {
            "display": "The Central European Lab"
          }
        ],
        "category": [
          {
            "coding": [
              {
                "system": "http://terminology.hl7.org/CodeSystem/observation-category",
                "code": "laboratory"
              }
            ]
          }
        ],
        "code": {
          "coding": [
            {
              "code": "20565-8",
              "system": "http://loinc.org",
              "display": "Carbon dioxide, total [Moles/volume] in Blood"
            }
          ],
          "text": "Carbon dioxide, total [Moles/volume] in Blood"
        },
        "valueQuantity": {
          "system": "http://unitsofmeasure.org",
          "value": 26.1,
          "unit": "mmol/L",
          "code": "mmol/L"
        },
        "referenceRange": [
          {
            "low": {
              "value": 22,
              "code": "mmol/L",
              "system": "http://unitsofmeasure.org"
            }
          },
          {
            "high": {
              "value": 32,
              "code": "mmol/L",
              "system": "http://unitsofmeasure.org"
            }
          }
        ],
        "text": {
          "status": "generated",
          "div": "<div xmlns=\"http://www.w3.org/1999/xhtml\"><table class=\"hl7__eu__lab__report\"><tr><th>Test</th><th>30-Nov-2017</th><th>Reference&#xA0;Range</th><th>Unit</th></tr><tr><td>Carbon dioxide, total [Moles/volume] in Blood</td><td>26.1</td><td>22 - 32</td><td></td><td>mmol/L</td></tr></table></div>"
        },
        "status": "final",
        "subject": {
          "reference": "urn:uuid:31285459-e58b-4f26-92e9-d07c56120721",
          "display": "Maria Nohlmans"
        },
        "effectiveDateTime": "2017-11-30T07:55:39Z",
        "specimen": {
          "reference": "urn:uuid:b4f4f084-06d6-41f1-99b1-6251517c77ec"
        }
      }
    },
    {
      "fullUrl": "urn:uuid:a550959e-65ae-49e3-8eb6-1be2b8071bfd",
      "resource": {
        "resourceType": "Observation",
        "id": "a550959e-65ae-49e3-8eb6-1be2b8071bfd",
        "meta": {
          "profile": [
            "http://hl7.eu/fhir/laboratory/StructureDefinition/Observation-resultslab-eu-lab"
          ]
        },
        "performer": [
          {
            "display": "The Central European Lab"
          }
        ],
        "category": [
          {
            "coding": [
              {
                "system": "http://terminology.hl7.org/CodeSystem/observation-category",
                "code": "laboratory"
              }
            ]
          }
        ],
        "code": {
          "coding": [
            {
              "code": "2885-2",
              "system": "http://loinc.org",
              "display": "Protein [Mass/volume] in Serum or Plasma"
            }
          ],
          "text": "Protein [Mass/volume] in Serum or Plasma"
        },
        "valueQuantity": {
          "system": "http://unitsofmeasure.org",
          "value": 6.5,
          "unit": "g/dL",
          "code": "g/dL"
        },
        "referenceRange": [
          {
            "low": {
              "value": 6,
              "code": "g/dL",
              "system": "http://unitsofmeasure.org"
            }
          },
          {
            "high": {
              "value": 8.3,
              "code": "g/dL",
              "system": "http://unitsofmeasure.org"
            }
          }
        ],
        "text": {
          "status": "generated",
          "div": "<div xmlns=\"http://www.w3.org/1999/xhtml\"><table class=\"hl7__eu__lab__report\"><tr><th>Test</th><th>30-Nov-2017</th><th>Reference&#xA0;Range</th><th>Unit</th></tr><tr><td>Protein [Mass/volume] in Serum or Plasma</td><td>6.5</td><td>6 - 8.3</td><td></td><td>g/dL</td></tr></table></div>"
        },
        "status": "final",
        "subject": {
          "reference": "urn:uuid:31285459-e58b-4f26-92e9-d07c56120721",
          "display": "Maria Nohlmans"
        },
        "effectiveDateTime": "2017-11-30T07:55:39Z",
        "specimen": {
          "reference": "urn:uuid:a1346e78-fa91-4d9b-b5d3-410dd2faf0a4"
        }
      }
    },
    {
      "fullUrl": "urn:uuid:78efddc4-2be5-4420-9ce8-4a5707c58053",
      "resource": {
        "resourceType": "Observation",
        "id": "78efddc4-2be5-4420-9ce8-4a5707c58053",
        "meta": {
          "profile": [
            "http://hl7.eu/fhir/laboratory/StructureDefinition/Observation-resultslab-eu-lab"
          ]
        },
        "performer": [
          {
            "display": "The Central European Lab"
          }
        ],
        "category": [
          {
            "coding": [
              {
                "system": "http://terminology.hl7.org/CodeSystem/observation-category",
                "code": "laboratory"
              }
            ]
          }
        ],
        "code": {
          "coding": [
            {
              "code": "1751-7",
              "system": "http://loinc.org",
              "display": "Albumin [Mass/volume] in Serum or Plasma"
            }
          ],
          "text": "Albumin [Mass/volume] in Serum or Plasma"
        },
        "valueQuantity": {
          "system": "http://unitsofmeasure.org",
          "value": 5.2,
          "unit": "g/dL",
          "code": "g/dL"
        },
        "referenceRange": [
          {
            "low": {
              "value": 3.5,
              "code": "g/dL",
              "system": "http://unitsofmeasure.org"
            }
          },
          {
            "high": {
              "value": 5.5,
              "code": "g/dL",
              "system": "http://unitsofmeasure.org"
            }
          }
        ],
        "text": {
          "status": "generated",
          "div": "<div xmlns=\"http://www.w3.org/1999/xhtml\"><table class=\"hl7__eu__lab__report\"><tr><th>Test</th><th>30-Nov-2017</th><th>Reference&#xA0;Range</th><th>Unit</th></tr><tr><td>Albumin [Mass/volume] in Serum or Plasma</td><td>5.2</td><td>3.5 - 5.5</td><td></td><td>g/dL</td></tr></table></div>"
        },
        "status": "final",
        "subject": {
          "reference": "urn:uuid:31285459-e58b-4f26-92e9-d07c56120721",
          "display": "Maria Nohlmans"
        },
        "effectiveDateTime": "2017-11-30T07:55:39Z",
        "specimen": {
          "reference": "urn:uuid:a1346e78-fa91-4d9b-b5d3-410dd2faf0a4"
        }
      }
    },
    {
      "fullUrl": "urn:uuid:39f67b28-7059-4fe5-a0c0-33ae2b1009ac",
      "resource": {
        "resourceType": "Observation",
        "id": "39f67b28-7059-4fe5-a0c0-33ae2b1009ac",
        "meta": {
          "profile": [
            "http://hl7.eu/fhir/laboratory/StructureDefinition/Observation-resultslab-eu-lab"
          ]
        },
        "performer": [
          {
            "display": "The Central European Lab"
          }
        ],
        "category": [
          {
            "coding": [
              {
                "system": "http://terminology.hl7.org/CodeSystem/observation-category",
                "code": "laboratory"
              }
            ]
          }
        ],
        "code": {
          "coding": [
            {
              "code": "10834-0",
              "system": "http://loinc.org",
              "display": "Globulin [Mass/volume] in Serum by calculation"
            }
          ],
          "text": "Globulin [Mass/volume] in Serum by calculation"
        },
        "valueQuantity": {
          "system": "http://unitsofmeasure.org",
          "value": 2.1,
          "unit": "g/L",
          "code": "g/L"
        },
        "referenceRange": [
          {
            "low": {
              "value": 2,
              "code": "g/L",
              "system": "http://unitsofmeasure.org"
            }
          },
          {
            "high": {
              "value": 3.5,
              "code": "g/L",
              "system": "http://unitsofmeasure.org"
            }
          }
        ],
        "text": {
          "status": "generated",
          "div": "<div xmlns=\"http://www.w3.org/1999/xhtml\"><table class=\"hl7__eu__lab__report\"><tr><th>Test</th><th>30-Nov-2017</th><th>Reference&#xA0;Range</th><th>Unit</th></tr><tr><td>Globulin [Mass/volume] in Serum by calculation</td><td>2.1</td><td>2 - 3.5</td><td></td><td>g/L</td></tr></table></div>"
        },
        "status": "final",
        "subject": {
          "reference": "urn:uuid:31285459-e58b-4f26-92e9-d07c56120721",
          "display": "Maria Nohlmans"
        },
        "effectiveDateTime": "2017-11-30T07:55:39Z",
        "specimen": {
          "reference": "urn:uuid:b23b4c59-0927-4a20-98a5-e4125dbb86ee"
        }
      }
    },
    {
      "fullUrl": "urn:uuid:d1dc23ef-1e68-42e8-a0ef-ad67a1851ab2",
      "resource": {
        "resourceType": "Observation",
        "id": "d1dc23ef-1e68-42e8-a0ef-ad67a1851ab2",
        "meta": {
          "profile": [
            "http://hl7.eu/fhir/laboratory/StructureDefinition/Observation-resultslab-eu-lab"
          ]
        },
        "performer": [
          {
            "display": "The Central European Lab"
          }
        ],
        "category": [
          {
            "coding": [
              {
                "system": "http://terminology.hl7.org/CodeSystem/observation-category",
                "code": "laboratory"
              }
            ]
          }
        ],
        "code": {
          "coding": [
            {
              "code": "1975-2",
              "system": "http://loinc.org",
              "display": "Bilirubin.total [Mass/volume] in Serum or Plasma"
            }
          ],
          "text": "Bilirubin.total [Mass/volume] in Serum or Plasma"
        },
        "valueQuantity": {
          "system": "http://unitsofmeasure.org",
          "value": 0.6,
          "unit": "mg/dL",
          "code": "mg/dL"
        },
        "referenceRange": [
          {
            "low": {
              "value": 0.3,
              "code": "mg/dL",
              "system": "http://unitsofmeasure.org"
            }
          },
          {
            "high": {
              "value": 1.2,
              "code": "mg/dL",
              "system": "http://unitsofmeasure.org"
            }
          }
        ],
        "text": {
          "status": "generated",
          "div": "<div xmlns=\"http://www.w3.org/1999/xhtml\"><table class=\"hl7__eu__lab__report\"><tr><th>Test</th><th>30-Nov-2017</th><th>Reference&#xA0;Range</th><th>Unit</th></tr><tr><td>Bilirubin.total [Mass/volume] in Serum or Plasma</td><td>0.6</td><td>0.3 - 1.2</td><td></td><td>mg/dL</td></tr></table></div>"
        },
        "status": "final",
        "subject": {
          "reference": "urn:uuid:31285459-e58b-4f26-92e9-d07c56120721",
          "display": "Maria Nohlmans"
        },
        "effectiveDateTime": "2017-11-30T07:55:39Z",
        "specimen": {
          "reference": "urn:uuid:a1346e78-fa91-4d9b-b5d3-410dd2faf0a4"
        }
      }
    },
    {
      "fullUrl": "urn:uuid:924f1198-0394-4fe0-84d2-a4f491cdb97c",
      "resource": {
        "resourceType": "Observation",
        "id": "924f1198-0394-4fe0-84d2-a4f491cdb97c",
        "meta": {
          "profile": [
            "http://hl7.eu/fhir/laboratory/StructureDefinition/Observation-resultslab-eu-lab"
          ]
        },
        "performer": [
          {
            "display": "The Central European Lab"
          }
        ],
        "category": [
          {
            "coding": [
              {
                "system": "http://terminology.hl7.org/CodeSystem/observation-category",
                "code": "laboratory"
              }
            ]
          }
        ],
        "code": {
          "coding": [
            {
              "code": "6768-6",
              "system": "http://loinc.org",
              "display": "Alkaline phosphatase [Enzymatic activity/volume] in Serum or Plasma"
            }
          ],
          "text": "Alkaline phosphatase [Enzymatic activity/volume] in Serum or Plasma"
        },
        "valueQuantity": {
          "system": "http://unitsofmeasure.org",
          "value": 72.1,
          "unit": "U/L",
          "code": "U/L"
        },
        "referenceRange": [
          {
            "low": {
              "value": 44,
              "code": "U/L",
              "system": "http://unitsofmeasure.org"
            }
          },
          {
            "high": {
              "value": 142,
              "code": "U/L",
              "system": "http://unitsofmeasure.org"
            }
          }
        ],
        "text": {
          "status": "generated",
          "div": "<div xmlns=\"http://www.w3.org/1999/xhtml\"><table class=\"hl7__eu__lab__report\"><tr><th>Test</th><th>30-Nov-2017</th><th>Reference&#xA0;Range</th><th>Unit</th></tr><tr><td>Alkaline phosphatase [Enzymatic activity/volume] in Serum or Plasma</td><td>72.1</td><td>44 - 142</td><td></td><td>U/L</td></tr></table></div>"
        },
        "status": "final",
        "subject": {
          "reference": "urn:uuid:31285459-e58b-4f26-92e9-d07c56120721",
          "display": "Maria Nohlmans"
        },
        "effectiveDateTime": "2017-11-30T07:55:39Z",
        "specimen": {
          "reference": "urn:uuid:a1346e78-fa91-4d9b-b5d3-410dd2faf0a4"
        }
      }
    },
    {
      "fullUrl": "urn:uuid:2513a458-dcb3-4028-8c63-2c4365cf258b",
      "resource": {
        "resourceType": "Observation",
        "id": "2513a458-dcb3-4028-8c63-2c4365cf258b",
        "meta": {
          "profile": [
            "http://hl7.eu/fhir/laboratory/StructureDefinition/Observation-resultslab-eu-lab"
          ]
        },
        "performer": [
          {
            "display": "The Central European Lab"
          }
        ],
        "category": [
          {
            "coding": [
              {
                "system": "http://terminology.hl7.org/CodeSystem/observation-category",
                "code": "laboratory"
              }
            ]
          }
        ],
        "code": {
          "coding": [
            {
              "code": "1742-6",
              "system": "http://loinc.org",
              "display": "Alanine aminotransferase [Enzymatic activity/volume] in Serum or Plasma"
            }
          ],
          "text": "Alanine aminotransferase [Enzymatic activity/volume] in Serum or Plasma"
        },
        "valueQuantity": {
          "system": "http://unitsofmeasure.org",
          "value": 57.9,
          "unit": "U/L",
          "code": "U/L"
        },
        "referenceRange": [
          {
            "low": {
              "value": 7,
              "code": "U/L",
              "system": "http://unitsofmeasure.org"
            }
          },
          {
            "high": {
              "value": 40,
              "code": "U/L",
              "system": "http://unitsofmeasure.org"
            }
          }
        ],
        "interpretation": [
          {
            "coding": [
              {
                "code": "H",
                "system": "http://terminology.hl7.org/CodeSystem/v3-ObservationInterpretation",
                "display": "High"
              }
            ]
          }
        ],
        "text": {
          "status": "generated",
          "div": "<div xmlns=\"http://www.w3.org/1999/xhtml\"><table class=\"hl7__eu__lab__report\"><tr><th>Test</th><th>30-Nov-2017</th><th>Reference&#xA0;Range</th><th>Unit</th></tr><tr><td>Alanine aminotransferase [Enzymatic activity/volume] in Serum or Plasma</td><td>57.9</td><td>7 - 40</td><td>H</td><td>U/L</td></tr></table></div>"
        },
        "status": "final",
        "subject": {
          "reference": "urn:uuid:31285459-e58b-4f26-92e9-d07c56120721",
          "display": "Maria Nohlmans"
        },
        "effectiveDateTime": "2017-11-30T07:55:39Z",
        "specimen": {
          "reference": "urn:uuid:a1346e78-fa91-4d9b-b5d3-410dd2faf0a4"
        }
      }
    },
    {
      "fullUrl": "urn:uuid:4860e8e0-baa7-4e99-87d5-5eeef595235b",
      "resource": {
        "resourceType": "Observation",
        "id": "4860e8e0-baa7-4e99-87d5-5eeef595235b",
        "meta": {
          "profile": [
            "http://hl7.eu/fhir/laboratory/StructureDefinition/Observation-resultslab-eu-lab"
          ]
        },
        "performer": [
          {
            "display": "The Central European Lab"
          }
        ],
        "category": [
          {
            "coding": [
              {
                "system": "http://terminology.hl7.org/CodeSystem/observation-category",
                "code": "laboratory"
              }
            ]
          }
        ],
        "code": {
          "coding": [
            {
              "code": "1920-8",
              "system": "http://loinc.org",
              "display": "Aspartate aminotransferase [Enzymatic activity/volume] in Serum or Plasma"
            }
          ],
          "text": "Aspartate aminotransferase [Enzymatic activity/volume] in Serum or Plasma"
        },
        "valueQuantity": {
          "system": "http://unitsofmeasure.org",
          "value": 21.9,
          "unit": "U/L",
          "code": "U/L"
        },
        "referenceRange": [
          {
            "low": {
              "value": 10,
              "code": "U/L",
              "system": "http://unitsofmeasure.org"
            }
          },
          {
            "high": {
              "value": 40,
              "code": "U/L",
              "system": "http://unitsofmeasure.org"
            }
          }
        ],
        "text": {
          "status": "generated",
          "div": "<div xmlns=\"http://www.w3.org/1999/xhtml\"><table class=\"hl7__eu__lab__report\"><tr><th>Test</th><th>30-Nov-2017</th><th>Reference&#xA0;Range</th><th>Unit</th></tr><tr><td>Aspartate aminotransferase [Enzymatic activity/volume] in Serum or Plasma</td><td>21.9</td><td>10 - 40</td><td></td><td>U/L</td></tr></table></div>"
        },
        "status": "final",
        "subject": {
          "reference": "urn:uuid:31285459-e58b-4f26-92e9-d07c56120721",
          "display": "Maria Nohlmans"
        },
        "effectiveDateTime": "2017-11-30T07:55:39Z",
        "specimen": {
          "reference": "urn:uuid:a1346e78-fa91-4d9b-b5d3-410dd2faf0a4"
        }
      }
    },
    {
      "fullUrl": "urn:uuid:0fed8935-44cb-4511-b272-b4249015a45e",
      "resource": {
        "resourceType": "Observation",
        "id": "0fed8935-44cb-4511-b272-b4249015a45e",
        "meta": {
          "profile": [
            "http://hl7.eu/fhir/laboratory/StructureDefinition/Observation-resultslab-eu-lab"
          ]
        },
        "performer": [
          {
            "display": "The Central European Lab"
          }
        ],
        "category": [
          {
            "coding": [
              {
                "system": "http://terminology.hl7.org/CodeSystem/observation-category",
                "code": "laboratory"
              }
            ]
          }
        ],
        "code": {
          "coding": [
            {
              "code": "5767-9",
              "system": "http://loinc.org",
              "display": "Appearance of Urine"
            }
          ],
          "text": "Appearance of Urine"
        },
        "text": {
          "status": "generated",
          "div": "<div xmlns=\"http://www.w3.org/1999/xhtml\"><table class=\"hl7__eu__lab__report\"><tr><th>Test</th><th>30-Nov-2017</th><th>Reference&#xA0;Range</th><th>Unit</th></tr><tr><td>Appearance of Urine</td></tr></table></div>"
        },
        "status": "final",
        "subject": {
          "reference": "urn:uuid:31285459-e58b-4f26-92e9-d07c56120721",
          "display": "Maria Nohlmans"
        },
        "effectiveDateTime": "2017-11-30T07:55:39Z",
        "specimen": {
          "reference": "urn:uuid:640fc87e-ec59-4b8a-a8e8-16e6ea079e71"
        }
      }
    },
    {
      "fullUrl": "urn:uuid:cf1d8fd1-26f5-4318-a5da-772305922ab0",
      "resource": {
        "resourceType": "Observation",
        "id": "cf1d8fd1-26f5-4318-a5da-772305922ab0",
        "meta": {
          "profile": [
            "http://hl7.eu/fhir/laboratory/StructureDefinition/Observation-resultslab-eu-lab"
          ]
        },
        "performer": [
          {
            "display": "The Central European Lab"
          }
        ],
        "category": [
          {
            "coding": [
              {
                "system": "http://terminology.hl7.org/CodeSystem/observation-category",
                "code": "laboratory"
              }
            ]
          }
        ],
        "code": {
          "coding": [
            {
              "code": "34533-0",
              "system": "http://loinc.org",
              "display": "Odor of Urine"
            }
          ],
          "text": "Odor of Urine"
        },
        "text": {
          "status": "generated",
          "div": "<div xmlns=\"http://www.w3.org/1999/xhtml\"><table class=\"hl7__eu__lab__report\"><tr><th>Test</th><th>30-Nov-2017</th><th>Reference&#xA0;Range</th><th>Unit</th></tr><tr><td>Odor of Urine</td></tr></table></div>"
        },
        "status": "final",
        "subject": {
          "reference": "urn:uuid:31285459-e58b-4f26-92e9-d07c56120721",
          "display": "Maria Nohlmans"
        },
        "effectiveDateTime": "2017-11-30T07:55:39Z",
        "specimen": {
          "reference": "urn:uuid:640fc87e-ec59-4b8a-a8e8-16e6ea079e71"
        }
      }
    },
    {
      "fullUrl": "urn:uuid:9e70b135-f553-4d40-950a-0379db99ba67",
      "resource": {
        "resourceType": "Observation",
        "id": "9e70b135-f553-4d40-950a-0379db99ba67",
        "meta": {
          "profile": [
            "http://hl7.eu/fhir/laboratory/StructureDefinition/Observation-resultslab-eu-lab"
          ]
        },
        "performer": [
          {
            "display": "The Central European Lab"
          }
        ],
        "category": [
          {
            "coding": [
              {
                "system": "http://terminology.hl7.org/CodeSystem/observation-category",
                "code": "laboratory"
              }
            ]
          }
        ],
        "code": {
          "coding": [
            {
              "code": "32167-9",
              "system": "http://loinc.org",
              "display": "Clarity of Urine"
            }
          ],
          "text": "Clarity of Urine"
        },
        "text": {
          "status": "generated",
          "div": "<div xmlns=\"http://www.w3.org/1999/xhtml\"><table class=\"hl7__eu__lab__report\"><tr><th>Test</th><th>30-Nov-2017</th><th>Reference&#xA0;Range</th><th>Unit</th></tr><tr><td>Clarity of Urine</td></tr></table></div>"
        },
        "status": "final",
        "subject": {
          "reference": "urn:uuid:31285459-e58b-4f26-92e9-d07c56120721",
          "display": "Maria Nohlmans"
        },
        "effectiveDateTime": "2017-11-30T07:55:39Z",
        "specimen": {
          "reference": "urn:uuid:640fc87e-ec59-4b8a-a8e8-16e6ea079e71"
        }
      }
    },
    {
      "fullUrl": "urn:uuid:70bad484-a07d-4c4e-99c2-12b84d1f9693",
      "resource": {
        "resourceType": "Observation",
        "id": "70bad484-a07d-4c4e-99c2-12b84d1f9693",
        "meta": {
          "profile": [
            "http://hl7.eu/fhir/laboratory/StructureDefinition/Observation-resultslab-eu-lab"
          ]
        },
        "performer": [
          {
            "display": "The Central European Lab"
          }
        ],
        "category": [
          {
            "coding": [
              {
                "system": "http://terminology.hl7.org/CodeSystem/observation-category",
                "code": "laboratory"
              }
            ]
          }
        ],
        "code": {
          "coding": [
            {
              "code": "5778-6",
              "system": "http://loinc.org",
              "display": "Color of Urine"
            }
          ],
          "text": "Color of Urine"
        },
        "text": {
          "status": "generated",
          "div": "<div xmlns=\"http://www.w3.org/1999/xhtml\"><table class=\"hl7__eu__lab__report\"><tr><th>Test</th><th>30-Nov-2017</th><th>Reference&#xA0;Range</th><th>Unit</th></tr><tr><td>Color of Urine</td></tr></table></div>"
        },
        "status": "final",
        "subject": {
          "reference": "urn:uuid:31285459-e58b-4f26-92e9-d07c56120721",
          "display": "Maria Nohlmans"
        },
        "effectiveDateTime": "2017-11-30T07:55:39Z",
        "specimen": {
          "reference": "urn:uuid:640fc87e-ec59-4b8a-a8e8-16e6ea079e71"
        }
      }
    },
    {
      "fullUrl": "urn:uuid:fabf018f-ccc9-4ecc-9f05-a12d35e476d3",
      "resource": {
        "resourceType": "Observation",
        "id": "fabf018f-ccc9-4ecc-9f05-a12d35e476d3",
        "meta": {
          "profile": [
            "http://hl7.eu/fhir/laboratory/StructureDefinition/Observation-resultslab-eu-lab"
          ]
        },
        "performer": [
          {
            "display": "The Central European Lab"
          }
        ],
        "category": [
          {
            "coding": [
              {
                "system": "http://terminology.hl7.org/CodeSystem/observation-category",
                "code": "laboratory"
              }
            ]
          }
        ],
        "code": {
          "coding": [
            {
              "code": "5792-7",
              "system": "http://loinc.org",
              "display": "Glucose [Mass/volume] in Urine by Test strip"
            }
          ],
          "text": "Glucose [Mass/volume] in Urine by Test strip"
        },
        "valueQuantity": {
          "system": "http://unitsofmeasure.org",
          "value": 1.7,
          "unit": "mg/dL",
          "code": "mg/dL"
        },
        "referenceRange": [
          {
            "low": {
              "value": 0.8,
              "code": "mg/dL",
              "system": "http://unitsofmeasure.org"
            }
          },
          {
            "high": {
              "value": 0,
              "code": "mg/dL",
              "system": "http://unitsofmeasure.org"
            }
          }
        ],
        "interpretation": [
          {
            "coding": [
              {
                "code": "H",
                "system": "http://terminology.hl7.org/CodeSystem/v3-ObservationInterpretation",
                "display": "High"
              }
            ]
          }
        ],
        "text": {
          "status": "generated",
          "div": "<div xmlns=\"http://www.w3.org/1999/xhtml\"><table class=\"hl7__eu__lab__report\"><tr><th>Test</th><th>30-Nov-2017</th><th>Reference&#xA0;Range</th><th>Unit</th></tr><tr><td>Glucose [Mass/volume] in Urine by Test strip</td><td>1.7</td><td>0.8 - 0</td><td>H</td><td>mg/dL</td></tr></table></div>"
        },
        "status": "final",
        "subject": {
          "reference": "urn:uuid:31285459-e58b-4f26-92e9-d07c56120721",
          "display": "Maria Nohlmans"
        },
        "effectiveDateTime": "2017-11-30T07:55:39Z",
        "specimen": {
          "reference": "urn:uuid:640fc87e-ec59-4b8a-a8e8-16e6ea079e71"
        }
      }
    },
    {
      "fullUrl": "urn:uuid:9bfa0d08-0808-4289-946a-678eca2946ca",
      "resource": {
        "resourceType": "Observation",
        "id": "9bfa0d08-0808-4289-946a-678eca2946ca",
        "meta": {
          "profile": [
            "http://hl7.eu/fhir/laboratory/StructureDefinition/Observation-resultslab-eu-lab"
          ]
        },
        "performer": [
          {
            "display": "The Central European Lab"
          }
        ],
        "category": [
          {
            "coding": [
              {
                "system": "http://terminology.hl7.org/CodeSystem/observation-category",
                "code": "laboratory"
              }
            ]
          }
        ],
        "code": {
          "coding": [
            {
              "code": "25428-4",
              "system": "http://loinc.org",
              "display": "Glucose [Presence] in Urine by Test strip"
            }
          ],
          "text": "Glucose [Presence] in Urine by Test strip"
        },
        "text": {
          "status": "generated",
          "div": "<div xmlns=\"http://www.w3.org/1999/xhtml\"><table class=\"hl7__eu__lab__report\"><tr><th>Test</th><th>30-Nov-2017</th><th>Reference&#xA0;Range</th><th>Unit</th></tr><tr><td>Glucose [Presence] in Urine by Test strip</td></tr></table></div>"
        },
        "status": "final",
        "subject": {
          "reference": "urn:uuid:31285459-e58b-4f26-92e9-d07c56120721",
          "display": "Maria Nohlmans"
        },
        "effectiveDateTime": "2017-11-30T07:55:39Z",
        "specimen": {
          "reference": "urn:uuid:640fc87e-ec59-4b8a-a8e8-16e6ea079e71"
        }
      }
    },
    {
      "fullUrl": "urn:uuid:cff16709-13c9-4c51-9a55-53c06b19c8d4",
      "resource": {
        "resourceType": "Observation",
        "id": "cff16709-13c9-4c51-9a55-53c06b19c8d4",
        "meta": {
          "profile": [
            "http://hl7.eu/fhir/laboratory/StructureDefinition/Observation-resultslab-eu-lab"
          ]
        },
        "performer": [
          {
            "display": "The Central European Lab"
          }
        ],
        "category": [
          {
            "coding": [
              {
                "system": "http://terminology.hl7.org/CodeSystem/observation-category",
                "code": "laboratory"
              }
            ]
          }
        ],
        "code": {
          "coding": [
            {
              "code": "20505-4",
              "system": "http://loinc.org",
              "display": "Bilirubin.total [Mass/volume] in Urine by Test strip"
            }
          ],
          "text": "Bilirubin.total [Mass/volume] in Urine by Test strip"
        },
        "valueQuantity": {
          "system": "http://unitsofmeasure.org",
          "value": 0.4,
          "unit": "mg/dL",
          "code": "mg/dL"
        },
        "referenceRange": [
          {
            "low": {
              "value": 0,
              "code": "mg/dL",
              "system": "http://unitsofmeasure.org"
            }
          },
          {
            "high": {
              "value": 1.5,
              "code": "mg/dL",
              "system": "http://unitsofmeasure.org"
            }
          }
        ],
        "text": {
          "status": "generated",
          "div": "<div xmlns=\"http://www.w3.org/1999/xhtml\"><table class=\"hl7__eu__lab__report\"><tr><th>Test</th><th>30-Nov-2017</th><th>Reference&#xA0;Range</th><th>Unit</th></tr><tr><td>Bilirubin.total [Mass/volume] in Urine by Test strip</td><td>0.4</td><td>0 - 1.5</td><td></td><td>mg/dL</td></tr></table></div>"
        },
        "status": "final",
        "subject": {
          "reference": "urn:uuid:31285459-e58b-4f26-92e9-d07c56120721",
          "display": "Maria Nohlmans"
        },
        "effectiveDateTime": "2017-11-30T07:55:39Z",
        "specimen": {
          "reference": "urn:uuid:640fc87e-ec59-4b8a-a8e8-16e6ea079e71"
        }
      }
    },
    {
      "fullUrl": "urn:uuid:2d8c752e-8bf2-49a6-a647-51d5ada30ef8",
      "resource": {
        "resourceType": "Observation",
        "id": "2d8c752e-8bf2-49a6-a647-51d5ada30ef8",
        "meta": {
          "profile": [
            "http://hl7.eu/fhir/laboratory/StructureDefinition/Observation-resultslab-eu-lab"
          ]
        },
        "performer": [
          {
            "display": "The Central European Lab"
          }
        ],
        "category": [
          {
            "coding": [
              {
                "system": "http://terminology.hl7.org/CodeSystem/observation-category",
                "code": "laboratory"
              }
            ]
          }
        ],
        "code": {
          "coding": [
            {
              "code": "5770-3",
              "system": "http://loinc.org",
              "display": "Bilirubin.total [Presence] in Urine by Test strip"
            }
          ],
          "text": "Bilirubin.total [Presence] in Urine by Test strip"
        },
        "text": {
          "status": "generated",
          "div": "<div xmlns=\"http://www.w3.org/1999/xhtml\"><table class=\"hl7__eu__lab__report\"><tr><th>Test</th><th>30-Nov-2017</th><th>Reference&#xA0;Range</th><th>Unit</th></tr><tr><td>Bilirubin.total [Presence] in Urine by Test strip</td></tr></table></div>"
        },
        "status": "final",
        "subject": {
          "reference": "urn:uuid:31285459-e58b-4f26-92e9-d07c56120721",
          "display": "Maria Nohlmans"
        },
        "effectiveDateTime": "2017-11-30T07:55:39Z",
        "specimen": {
          "reference": "urn:uuid:640fc87e-ec59-4b8a-a8e8-16e6ea079e71"
        }
      }
    },
    {
      "fullUrl": "urn:uuid:fdafce7e-eaf3-4724-95ff-c537fcfb4d58",
      "resource": {
        "resourceType": "Observation",
        "id": "fdafce7e-eaf3-4724-95ff-c537fcfb4d58",
        "meta": {
          "profile": [
            "http://hl7.eu/fhir/laboratory/StructureDefinition/Observation-resultslab-eu-lab"
          ]
        },
        "performer": [
          {
            "display": "The Central European Lab"
          }
        ],
        "category": [
          {
            "coding": [
              {
                "system": "http://terminology.hl7.org/CodeSystem/observation-category",
                "code": "laboratory"
              }
            ]
          }
        ],
        "code": {
          "coding": [
            {
              "code": "5797-6",
              "system": "http://loinc.org",
              "display": "Ketones [Mass/volume] in Urine by Test strip"
            }
          ],
          "text": "Ketones [Mass/volume] in Urine by Test strip"
        },
        "valueQuantity": {
          "system": "http://unitsofmeasure.org",
          "value": 13.8,
          "unit": "mg/dL",
          "code": "mg/dL"
        },
        "referenceRange": [
          {
            "low": {
              "value": 0,
              "code": "mg/dL",
              "system": "http://unitsofmeasure.org"
            }
          },
          {
            "high": {
              "value": 8,
              "code": "mg/dL",
              "system": "http://unitsofmeasure.org"
            }
          }
        ],
        "interpretation": [
          {
            "coding": [
              {
                "code": "H",
                "system": "http://terminology.hl7.org/CodeSystem/v3-ObservationInterpretation",
                "display": "High"
              }
            ]
          }
        ],
        "text": {
          "status": "generated",
          "div": "<div xmlns=\"http://www.w3.org/1999/xhtml\"><table class=\"hl7__eu__lab__report\"><tr><th>Test</th><th>30-Nov-2017</th><th>Reference&#xA0;Range</th><th>Unit</th></tr><tr><td>Ketones [Mass/volume] in Urine by Test strip</td><td>13.8</td><td>0 - 8</td><td>H</td><td>mg/dL</td></tr></table></div>"
        },
        "status": "final",
        "subject": {
          "reference": "urn:uuid:31285459-e58b-4f26-92e9-d07c56120721",
          "display": "Maria Nohlmans"
        },
        "effectiveDateTime": "2017-11-30T07:55:39Z",
        "specimen": {
          "reference": "urn:uuid:640fc87e-ec59-4b8a-a8e8-16e6ea079e71"
        }
      }
    },
    {
      "fullUrl": "urn:uuid:8f37621e-45a3-4eb7-8151-ea46cb15b4e5",
      "resource": {
        "resourceType": "Observation",
        "id": "8f37621e-45a3-4eb7-8151-ea46cb15b4e5",
        "meta": {
          "profile": [
            "http://hl7.eu/fhir/laboratory/StructureDefinition/Observation-resultslab-eu-lab"
          ]
        },
        "performer": [
          {
            "display": "The Central European Lab"
          }
        ],
        "category": [
          {
            "coding": [
              {
                "system": "http://terminology.hl7.org/CodeSystem/observation-category",
                "code": "laboratory"
              }
            ]
          }
        ],
        "code": {
          "coding": [
            {
              "code": "2514-8",
              "system": "http://loinc.org",
              "display": "Ketones [Presence] in Urine by Test strip"
            }
          ],
          "text": "Ketones [Presence] in Urine by Test strip"
        },
        "text": {
          "status": "generated",
          "div": "<div xmlns=\"http://www.w3.org/1999/xhtml\"><table class=\"hl7__eu__lab__report\"><tr><th>Test</th><th>30-Nov-2017</th><th>Reference&#xA0;Range</th><th>Unit</th></tr><tr><td>Ketones [Presence] in Urine by Test strip</td></tr></table></div>"
        },
        "status": "final",
        "subject": {
          "reference": "urn:uuid:31285459-e58b-4f26-92e9-d07c56120721",
          "display": "Maria Nohlmans"
        },
        "effectiveDateTime": "2017-11-30T07:55:39Z",
        "specimen": {
          "reference": "urn:uuid:640fc87e-ec59-4b8a-a8e8-16e6ea079e71"
        }
      }
    },
    {
      "fullUrl": "urn:uuid:28373147-2b9b-4689-8cce-bbc6c132d8ce",
      "resource": {
        "resourceType": "Observation",
        "id": "28373147-2b9b-4689-8cce-bbc6c132d8ce",
        "meta": {
          "profile": [
            "http://hl7.eu/fhir/laboratory/StructureDefinition/Observation-resultslab-eu-lab"
          ]
        },
        "performer": [
          {
            "display": "The Central European Lab"
          }
        ],
        "category": [
          {
            "coding": [
              {
                "system": "http://terminology.hl7.org/CodeSystem/observation-category",
                "code": "laboratory"
              }
            ]
          }
        ],
        "code": {
          "coding": [
            {
              "code": "5811-5",
              "system": "http://loinc.org",
              "display": "Specific gravity of Urine by Test strip"
            }
          ],
          "text": "Specific gravity of Urine by Test strip"
        },
        "valueQuantity": {
          "system": "http://unitsofmeasure.org",
          "value": 1,
          "unit": "{nominal}",
          "code": "{nominal}"
        },
        "referenceRange": [
          {
            "low": {
              "value": 1.01,
              "code": "g/mL",
              "system": "http://unitsofmeasure.org"
            }
          },
          {
            "high": {
              "value": 1.03,
              "code": "g/mL",
              "system": "http://unitsofmeasure.org"
            }
          }
        ],
        "interpretation": [
          {
            "coding": [
              {
                "code": "L",
                "system": "http://terminology.hl7.org/CodeSystem/v3-ObservationInterpretation",
                "display": "Low"
              }
            ]
          }
        ],
        "text": {
          "status": "generated",
          "div": "<div xmlns=\"http://www.w3.org/1999/xhtml\"><table class=\"hl7__eu__lab__report\"><tr><th>Test</th><th>30-Nov-2017</th><th>Reference&#xA0;Range</th><th>Unit</th></tr><tr><td>Specific gravity of Urine by Test strip</td><td>1.0</td><td>1.01 - 1.03</td><td>L</td><td>{nominal}</td></tr></table></div>"
        },
        "status": "final",
        "subject": {
          "reference": "urn:uuid:31285459-e58b-4f26-92e9-d07c56120721",
          "display": "Maria Nohlmans"
        },
        "effectiveDateTime": "2017-11-30T07:55:39Z",
        "specimen": {
          "reference": "urn:uuid:640fc87e-ec59-4b8a-a8e8-16e6ea079e71"
        }
      }
    },
    {
      "fullUrl": "urn:uuid:229709c0-5b58-4317-b906-1cf90d74a629",
      "resource": {
        "resourceType": "Observation",
        "id": "229709c0-5b58-4317-b906-1cf90d74a629",
        "meta": {
          "profile": [
            "http://hl7.eu/fhir/laboratory/StructureDefinition/Observation-resultslab-eu-lab"
          ]
        },
        "performer": [
          {
            "display": "The Central European Lab"
          }
        ],
        "category": [
          {
            "coding": [
              {
                "system": "http://terminology.hl7.org/CodeSystem/observation-category",
                "code": "laboratory"
              }
            ]
          }
        ],
        "code": {
          "coding": [
            {
              "code": "5803-2",
              "system": "http://loinc.org",
              "display": "pH of Urine by Test strip"
            }
          ],
          "text": "pH of Urine by Test strip"
        },
        "valueQuantity": {
          "system": "http://unitsofmeasure.org",
          "value": 5.5,
          "unit": "pH",
          "code": "pH"
        },
        "referenceRange": [
          {
            "low": {
              "value": 4.6,
              "code": "pH",
              "system": "http://unitsofmeasure.org"
            }
          },
          {
            "high": {
              "value": 7.5,
              "code": "pH",
              "system": "http://unitsofmeasure.org"
            }
          }
        ],
        "text": {
          "status": "generated",
          "div": "<div xmlns=\"http://www.w3.org/1999/xhtml\"><table class=\"hl7__eu__lab__report\"><tr><th>Test</th><th>30-Nov-2017</th><th>Reference&#xA0;Range</th><th>Unit</th></tr><tr><td>pH of Urine by Test strip</td><td>5.5</td><td>4.6 - 7.5</td><td></td><td>pH</td></tr></table></div>"
        },
        "status": "final",
        "subject": {
          "reference": "urn:uuid:31285459-e58b-4f26-92e9-d07c56120721",
          "display": "Maria Nohlmans"
        },
        "effectiveDateTime": "2017-11-30T07:55:39Z",
        "specimen": {
          "reference": "urn:uuid:640fc87e-ec59-4b8a-a8e8-16e6ea079e71"
        }
      }
    },
    {
      "fullUrl": "urn:uuid:131a1223-2618-4538-89c7-e06981f4420e",
      "resource": {
        "resourceType": "Observation",
        "id": "131a1223-2618-4538-89c7-e06981f4420e",
        "meta": {
          "profile": [
            "http://hl7.eu/fhir/laboratory/StructureDefinition/Observation-resultslab-eu-lab"
          ]
        },
        "performer": [
          {
            "display": "The Central European Lab"
          }
        ],
        "category": [
          {
            "coding": [
              {
                "system": "http://terminology.hl7.org/CodeSystem/observation-category",
                "code": "laboratory"
              }
            ]
          }
        ],
        "code": {
          "coding": [
            {
              "code": "5804-0",
              "system": "http://loinc.org",
              "display": "Protein [Mass/volume] in Urine by Test strip"
            }
          ],
          "text": "Protein [Mass/volume] in Urine by Test strip"
        },
        "valueQuantity": {
          "system": "http://unitsofmeasure.org",
          "value": 421.7,
          "unit": "mg/dL",
          "code": "mg/dL"
        },
        "referenceRange": [
          {
            "low": {
              "value": 0,
              "code": "mg/dL",
              "system": "http://unitsofmeasure.org"
            }
          },
          {
            "high": {
              "value": 14,
              "code": "mg/dL",
              "system": "http://unitsofmeasure.org"
            }
          }
        ],
        "interpretation": [
          {
            "coding": [
              {
                "code": "H",
                "system": "http://terminology.hl7.org/CodeSystem/v3-ObservationInterpretation",
                "display": "High"
              }
            ]
          }
        ],
        "text": {
          "status": "generated",
          "div": "<div xmlns=\"http://www.w3.org/1999/xhtml\"><table class=\"hl7__eu__lab__report\"><tr><th>Test</th><th>30-Nov-2017</th><th>Reference&#xA0;Range</th><th>Unit</th></tr><tr><td>Protein [Mass/volume] in Urine by Test strip</td><td>421.7</td><td>0 - 14</td><td>H</td><td>mg/dL</td></tr></table></div>"
        },
        "status": "final",
        "subject": {
          "reference": "urn:uuid:31285459-e58b-4f26-92e9-d07c56120721",
          "display": "Maria Nohlmans"
        },
        "effectiveDateTime": "2017-11-30T07:55:39Z",
        "specimen": {
          "reference": "urn:uuid:640fc87e-ec59-4b8a-a8e8-16e6ea079e71"
        }
      }
    },
    {
      "fullUrl": "urn:uuid:d0b6fb5b-8861-42c8-a1a1-93fba409ae6a",
      "resource": {
        "resourceType": "Observation",
        "id": "d0b6fb5b-8861-42c8-a1a1-93fba409ae6a",
        "meta": {
          "profile": [
            "http://hl7.eu/fhir/laboratory/StructureDefinition/Observation-resultslab-eu-lab"
          ]
        },
        "performer": [
          {
            "display": "The Central European Lab"
          }
        ],
        "category": [
          {
            "coding": [
              {
                "system": "http://terminology.hl7.org/CodeSystem/observation-category",
                "code": "laboratory"
              }
            ]
          }
        ],
        "code": {
          "coding": [
            {
              "code": "20454-5",
              "system": "http://loinc.org",
              "display": "Protein [Presence] in Urine by Test strip"
            }
          ],
          "text": "Protein [Presence] in Urine by Test strip"
        },
        "text": {
          "status": "generated",
          "div": "<div xmlns=\"http://www.w3.org/1999/xhtml\"><table class=\"hl7__eu__lab__report\"><tr><th>Test</th><th>30-Nov-2017</th><th>Reference&#xA0;Range</th><th>Unit</th></tr><tr><td>Protein [Presence] in Urine by Test strip</td></tr></table></div>"
        },
        "status": "final",
        "subject": {
          "reference": "urn:uuid:31285459-e58b-4f26-92e9-d07c56120721",
          "display": "Maria Nohlmans"
        },
        "effectiveDateTime": "2017-11-30T07:55:39Z",
        "specimen": {
          "reference": "urn:uuid:640fc87e-ec59-4b8a-a8e8-16e6ea079e71"
        }
      }
    },
    {
      "fullUrl": "urn:uuid:1c11fef7-15fb-4c8d-a0c7-b8d9f10541af",
      "resource": {
        "resourceType": "Observation",
        "id": "1c11fef7-15fb-4c8d-a0c7-b8d9f10541af",
        "meta": {
          "profile": [
            "http://hl7.eu/fhir/laboratory/StructureDefinition/Observation-resultslab-eu-lab"
          ]
        },
        "performer": [
          {
            "display": "The Central European Lab"
          }
        ],
        "category": [
          {
            "coding": [
              {
                "system": "http://terminology.hl7.org/CodeSystem/observation-category",
                "code": "laboratory"
              }
            ]
          }
        ],
        "code": {
          "coding": [
            {
              "code": "5802-4",
              "system": "http://loinc.org",
              "display": "Nitrite [Presence] in Urine by Test strip"
            }
          ],
          "text": "Nitrite [Presence] in Urine by Test strip"
        },
        "text": {
          "status": "generated",
          "div": "<div xmlns=\"http://www.w3.org/1999/xhtml\"><table class=\"hl7__eu__lab__report\"><tr><th>Test</th><th>30-Nov-2017</th><th>Reference&#xA0;Range</th><th>Unit</th></tr><tr><td>Nitrite [Presence] in Urine by Test strip</td></tr></table></div>"
        },
        "status": "final",
        "subject": {
          "reference": "urn:uuid:31285459-e58b-4f26-92e9-d07c56120721",
          "display": "Maria Nohlmans"
        },
        "effectiveDateTime": "2017-11-30T07:55:39Z",
        "specimen": {
          "reference": "urn:uuid:640fc87e-ec59-4b8a-a8e8-16e6ea079e71"
        }
      }
    },
    {
      "fullUrl": "urn:uuid:e7a79703-75a3-49e7-b328-1a0aef475f55",
      "resource": {
        "resourceType": "Observation",
        "id": "e7a79703-75a3-49e7-b328-1a0aef475f55",
        "meta": {
          "profile": [
            "http://hl7.eu/fhir/laboratory/StructureDefinition/Observation-resultslab-eu-lab"
          ]
        },
        "performer": [
          {
            "display": "The Central European Lab"
          }
        ],
        "category": [
          {
            "coding": [
              {
                "system": "http://terminology.hl7.org/CodeSystem/observation-category",
                "code": "laboratory"
              }
            ]
          }
        ],
        "code": {
          "coding": [
            {
              "code": "5794-3",
              "system": "http://loinc.org",
              "display": "Hemoglobin [Presence] in Urine by Test strip"
            }
          ],
          "text": "Hemoglobin [Presence] in Urine by Test strip"
        },
        "text": {
          "status": "generated",
          "div": "<div xmlns=\"http://www.w3.org/1999/xhtml\"><table class=\"hl7__eu__lab__report\"><tr><th>Test</th><th>30-Nov-2017</th><th>Reference&#xA0;Range</th><th>Unit</th></tr><tr><td>Hemoglobin [Presence] in Urine by Test strip</td></tr></table></div>"
        },
        "status": "final",
        "subject": {
          "reference": "urn:uuid:31285459-e58b-4f26-92e9-d07c56120721",
          "display": "Maria Nohlmans"
        },
        "effectiveDateTime": "2017-11-30T07:55:39Z",
        "specimen": {
          "reference": "urn:uuid:640fc87e-ec59-4b8a-a8e8-16e6ea079e71"
        }
      }
    },
    {
      "fullUrl": "urn:uuid:a04392aa-1a95-4fe9-86d7-04408b1e9dd1",
      "resource": {
        "resourceType": "Observation",
        "id": "a04392aa-1a95-4fe9-86d7-04408b1e9dd1",
        "meta": {
          "profile": [
            "http://hl7.eu/fhir/laboratory/StructureDefinition/Observation-resultslab-eu-lab"
          ]
        },
        "performer": [
          {
            "display": "The Central European Lab"
          }
        ],
        "category": [
          {
            "coding": [
              {
                "system": "http://terminology.hl7.org/CodeSystem/observation-category",
                "code": "laboratory"
              }
            ]
          }
        ],
        "code": {
          "coding": [
            {
              "code": "5799-2",
              "system": "http://loinc.org",
              "display": "Leukocyte esterase [Presence] in Urine by Test strip"
            }
          ],
          "text": "Leukocyte esterase [Presence] in Urine by Test strip"
        },
        "text": {
          "status": "generated",
          "div": "<div xmlns=\"http://www.w3.org/1999/xhtml\"><table class=\"hl7__eu__lab__report\"><tr><th>Test</th><th>30-Nov-2017</th><th>Reference&#xA0;Range</th><th>Unit</th></tr><tr><td>Leukocyte esterase [Presence] in Urine by Test strip</td></tr></table></div>"
        },
        "status": "final",
        "subject": {
          "reference": "urn:uuid:31285459-e58b-4f26-92e9-d07c56120721",
          "display": "Maria Nohlmans"
        },
        "effectiveDateTime": "2017-11-30T07:55:39Z",
        "specimen": {
          "reference": "urn:uuid:640fc87e-ec59-4b8a-a8e8-16e6ea079e71"
        }
      }
    },
    {
      "fullUrl": "urn:uuid:54be8acc-2c2e-48ce-b0ce-b2b92cdfc6b6",
      "resource": {
        "resourceType": "Device",
        "id": "54be8acc-2c2e-48ce-b0ce-b2b92cdfc6b6",
        "deviceName": [
          {
            "name": "SYNDERAI Synthetic Generator",
            "type": "manufacturer-name"
          }
        ],
        "version": [
          {
            "value": "5.0"
          }
        ],
        "text": {
          "status": "generated",
          "div": "<div xmlns=\"http://www.w3.org/1999/xhtml\">SYNDERAI Synthetic Generator v5.0</div>"
        },
        "status": "active\"",
        "distinctIdentifier": "synderai-generator-50",
        "manufacturer": "SYNDERAI Project"
      }
    },
    {
      "fullUrl": "urn:uuid:0d3db4ed-cfc5-4d4e-9a28-7a927f6b4cc7",
      "resource": {
        "resourceType": "Provenance",
        "id": "0d3db4ed-cfc5-4d4e-9a28-7a927f6b4cc7",
        "target": [
          {
            "reference": "Patient/31285459-e58b-4f26-92e9-d07c56120721"
          },
          {
            "reference": "Bundle/5406204b-6c1c-439a-9e78-78660b118e0b"
          },
          {
            "reference": "Composition/957ffed4-71f9-40a8-bd4e-c4509218cc86"
          },
          {
            "reference": "PractitionerRole/e08eb0ab-1d13-47f1-a551-c8ded69132d9"
          },
          {
            "reference": "Practitioner/51557e34-2f69-44b8-9ce7-5e6e8c91810b"
          },
          {
            "reference": "PractitionerRole/67be1bc2-3657-4096-8bfa-ab1641c1af4b"
          },
          {
            "reference": "Organization/dc9e5f8b-c51d-4504-a33c-77a7846f1f3f"
          }
        ],
        "activity": {
          "text": "Synthetic Example Data Generation"
        },
        "policy": [
          "https://synderai.net/synderai-synthetic-data-policy"
        ],
        "agent": [
          {
            "type": {
              "text": "author"
            },
            "who": {
              "reference": "Device/54be8acc-2c2e-48ce-b0ce-b2b92cdfc6b6"
            }
          }
        ],
        "reason": [
          {
            "text": "Interoperability Testing and Training (non-clinical use)"
          }
        ],
        "text": {
          "status": "generated",
          "div": "<div xmlns=\"http://www.w3.org/1999/xhtml\">Provenance for SYNDERAI Synthetic Example Data Resource</div>"
        },
        "recorded": "2017-11-30T08:55:39Z"
      }
    },
    {
      "fullUrl": "urn:uuid:e08eb0ab-1d13-47f1-a551-c8ded69132d9",
      "resource": {
        "resourceType": "PractitionerRole",
        "id": "e08eb0ab-1d13-47f1-a551-c8ded69132d9",
        "meta": {
          "profile": [
            "http://hl7.eu/fhir/base/StructureDefinition/practitionerRole-eu"
          ]
        },
        "text": {
          "status": "generated",
          "div": "<div xmlns=\"http://www.w3.org/1999/xhtml\">Laboratory Role Id: e08eb0ab-1d13-47f1-a551-c8ded69132d9</div>"
        },
        "practitioner": {
          "reference": "urn:uuid:51557e34-2f69-44b8-9ce7-5e6e8c91810b"
        }
      }
    },
    {
      "fullUrl": "urn:uuid:51557e34-2f69-44b8-9ce7-5e6e8c91810b",
      "resource": {
        "resourceType": "Practitioner",
        "id": "51557e34-2f69-44b8-9ce7-5e6e8c91810b",
        "meta": {
          "profile": [
            "http://hl7.eu/fhir/base/StructureDefinition/practitioner-eu"
          ]
        },
        "identifier": [
          {
            "assigner": {
              "display": "HL7 Europe"
            },
            "system": "urn:oid:2.16.840.1.113883.2.51.999",
            "value": "9a1757a0-5eb1-46fb-947c-c81c162ba9f1"
          }
        ],
        "name": [
          {
            "prefix": [
              "dr"
            ],
            "given": [
              "Ex"
            ],
            "family": "Ample"
          }
        ],
        "address": [
          {
            "line": [
              "Laboratoire Central Européenne",
              "Boulevard du Jardin Botanique 32"
            ],
            "postalCode": "1000",
            "city": "Brussels",
            "country": "Belgium"
          }
        ],
        "text": {
          "status": "generated",
          "div": "<div xmlns=\"http://www.w3.org/1999/xhtml\">Laboratory: Laboratoire Central Européenne, 1000 Brussels, Belgium</div>"
        }
      }
    }
  ],
  "type": "document",
  "timestamp": "2017-11-30T08:55:39Z"
}
