{
  "resourceType": "Bundle",
  "id": "117afc4d-8e9e-4f52-804f-21c0e65fc2e8",
  "meta": {
    "profile": [
      "http://hl7.eu/fhir/laboratory/StructureDefinition/Bundle-eu-lab"
    ]
  },
  "identifier": {
    "assigner": {
      "display": "HL7 Europe"
    },
    "system": "urn:oid:2.16.840.1.113883.2.51.999",
    "value": "27928c07-1c2c-4e16-9891-63812d9177c7"
  },
  "entry": [
    {
      "fullUrl": "urn:uuid:25d99b74-54b7-4f5b-b6b7-b55909e20727",
      "resource": {
        "resourceType": "Composition",
        "id": "25d99b74-54b7-4f5b-b6b7-b55909e20727",
        "meta": {
          "profile": [
            "http://hl7.eu/fhir/laboratory/StructureDefinition/Composition-eu-lab"
          ]
        },
        "identifier": {
          "assigner": {
            "display": "HL7 Europe"
          },
          "system": "urn:oid:2.16.840.1.113883.2.51.999",
          "value": "c7a847de-b77e-48ba-bed5-a8be51729781"
        },
        "author": [
          {
            "reference": "urn:uuid:c3907023-8658-4f07-9d1c-6975409810d8"
          }
        ],
        "category": [
          {
            "coding": [
              {
                "code": "26436-6",
                "system": "http://loinc.org",
                "display": "Laboratory studies (set)"
              }
            ]
          }
        ],
        "type": {
          "coding": [
            {
              "code": "11502-2",
              "system": "http://loinc.org",
              "display": "Laboratory report"
            }
          ],
          "text": "Laboratory Report"
        },
        "section": [
          {
            "code": {
              "coding": [
                {
                  "code": "26436-6",
                  "system": "http://loinc.org",
                  "display": "Laboratory studies (set)"
                }
              ],
              "text": "Laboratory studies"
            },
            "section": [
              {
                "code": {
                  "coding": [
                    {
                      "code": "$18719-5",
                      "system": "http://loinc.org",
                      "display": "Chemistry studies (set)"
                    }
                  ],
                  "text": "Chemistry"
                },
                "entry": [
                  {
                    "reference": "urn:uuid:dd5f630d-b0ab-4727-b604-06c05aba3a87"
                  },
                  {
                    "reference": "urn:uuid:77a36cbd-984f-4ebb-94a2-e385fbc1f9c1"
                  },
                  {
                    "reference": "urn:uuid:5bf6331b-4a8f-4633-9ef0-fd5efac6d482"
                  },
                  {
                    "reference": "urn:uuid:d92c4a56-37a9-4050-8da0-f998e801788b"
                  },
                  {
                    "reference": "urn:uuid:c57c15e2-431d-46ee-bd16-5a90d4001263"
                  },
                  {
                    "reference": "urn:uuid:e033de0b-c4f0-464c-98bd-01ff662c7372"
                  },
                  {
                    "reference": "urn:uuid:a9aa948c-4639-4fb9-93a5-0e013a69d6d7"
                  },
                  {
                    "reference": "urn:uuid:1d6060f7-842b-4e18-9d90-d960047a8bb4"
                  },
                  {
                    "reference": "urn:uuid:d837fb7c-1225-49a2-8245-7293637eca99"
                  },
                  {
                    "reference": "urn:uuid:6b6e581c-1ca2-4d77-b29e-d6aa0fad3c96"
                  },
                  {
                    "reference": "urn:uuid:74e4f15a-573e-440e-b7c8-1a840241f761"
                  },
                  {
                    "reference": "urn:uuid:906ce32d-3d54-49b0-b4e3-acaafa6f0257"
                  },
                  {
                    "reference": "urn:uuid:e96a88c7-b173-4249-b5b9-aa301e00677d"
                  },
                  {
                    "reference": "urn:uuid:dc309055-8059-466e-9e89-208e83462db9"
                  },
                  {
                    "reference": "urn:uuid:7c6d2099-aa7b-4bba-b396-3703c6797877"
                  },
                  {
                    "reference": "urn:uuid:cb1d4492-b331-4e65-9942-bcb01f53e437"
                  },
                  {
                    "reference": "urn:uuid:aef99141-ffd6-4b97-9649-8871189b0783"
                  },
                  {
                    "reference": "urn:uuid:4f2cf02a-56a3-46c9-9169-036bdf15f26a"
                  }
                ],
                "text": {
                  "status": "generated",
                  "div": "<div xmlns=\"http://www.w3.org/1999/xhtml\"><h3>Chemistry</h3><table class=\"hl7__eu__lab__report\"><thead><tr><th>Test</th><th>12-OCT-2016</th><th>Reference&#xA0;Range</th><th>Unit</th></tr></thead><tbody><tr><td>Glucose [Mass/volume] in Serum or Plasma</td><td>91.2</td><td>70 - 140</td><td>mg/dL</td></tr><tr><td>Urea nitrogen [Mass/volume] in Serum or Plasma</td><td>17.4</td><td>7 - 20</td><td>mg/dL</td></tr><tr><td>Creatinine [Mass/volume] in Serum or Plasma</td><td><strong>1.9 H</strong></td><td>0.9 - 1.3</td><td>mg/dL</td></tr><tr><td>Calcium [Mass/volume] in Serum or Plasma</td><td>9.5</td><td>8.5 - 10.5</td><td>mg/dL</td></tr><tr><td>Sodium [Moles/volume] in Serum or Plasma</td><td>140.3</td><td>135 - 145</td><td>mmol/L</td></tr><tr><td>Potassium [Moles/volume] in Serum or Plasma</td><td>3.8</td><td>3.5 - 5</td><td>mmol/L</td></tr><tr><td>Chloride [Moles/volume] in Serum or Plasma</td><td><strong>109.5 H</strong></td><td>98 - 108</td><td>mmol/L</td></tr><tr><td>Carbon dioxide, total [Moles/volume] in Serum or Plasma</td><td><strong>21.2 L</strong></td><td>22 - 29</td><td>mmol/L</td></tr><tr><td>Ketones [Presence] in Urine by Test strip</td><td>Urine ketone test = +</td><td></td><td></td></tr><tr><td>Hemoglobin A1c/Hemoglobin.total in Blood</td><td><strong>3.2 L</strong></td><td>4.3 - 6.4</td><td>%</td></tr><tr><td>Glucose [Mass/volume] in Blood</td><td>91.2</td><td>70 - 140</td><td>mg/dL</td></tr><tr><td>Urea nitrogen [Mass/volume] in Blood</td><td>17.4</td><td>7 - 20</td><td>mg/dL</td></tr><tr><td>Creatinine [Mass/volume] in Blood</td><td><strong>3.5 H</strong></td><td>0.6 - 1.3</td><td>mg/dL</td></tr><tr><td>Calcium [Mass/volume] in Blood</td><td>9.5</td><td>8.5 - 10.5</td><td>mg/dL</td></tr><tr><td>Sodium [Moles/volume] in Blood</td><td>140.3</td><td>135 - 145</td><td>mmol/L</td></tr><tr><td>Potassium [Moles/volume] in Blood</td><td>3.8</td><td>3.5 - 5.3</td><td>mmol/L</td></tr><tr><td>Chloride [Moles/volume] in Blood</td><td>109.5</td><td>98 - 110</td><td>mmol/L</td></tr><tr><td>Carbon dioxide, total [Moles/volume] in Blood</td><td><strong>21.2 L</strong></td><td>22 - 29</td><td>mmol/L</td></tr></tbody></table></div>"
                },
                "title": "Chemistry"
              },
              {
                "code": {
                  "coding": [
                    {
                      "code": "$18729-4",
                      "system": "http://loinc.org",
                      "display": "Urinalysis studies (set)"
                    }
                  ],
                  "text": "Urinalysis"
                },
                "entry": [
                  {
                    "reference": "urn:uuid:6569d4ea-3a58-4419-b8a3-45f31f383ac3"
                  },
                  {
                    "reference": "urn:uuid:5ca3af89-26c4-4e8b-8f26-41c48764847c"
                  },
                  {
                    "reference": "urn:uuid:0aca9c5d-fdb3-4259-8fc6-ff60d3aec0fc"
                  },
                  {
                    "reference": "urn:uuid:a90f502a-c7ac-462b-9b1a-36a6e6efe8f1"
                  },
                  {
                    "reference": "urn:uuid:9e7e92f3-1d0d-402d-ab1a-72ce4f678bad"
                  },
                  {
                    "reference": "urn:uuid:c126d277-4ae9-4225-9a7a-58f62eb56b1c"
                  },
                  {
                    "reference": "urn:uuid:d84805e4-a22f-497d-9eaf-3728e99c3b96"
                  },
                  {
                    "reference": "urn:uuid:b70b3671-e458-45d5-b27a-3b454da12142"
                  },
                  {
                    "reference": "urn:uuid:4a8032cd-78c2-4dab-8676-0f4a37579cbd"
                  },
                  {
                    "reference": "urn:uuid:724d9d53-5925-4f95-bcb9-630dede15af3"
                  },
                  {
                    "reference": "urn:uuid:3c62c243-a8ef-4f25-85fe-d9767a638c67"
                  },
                  {
                    "reference": "urn:uuid:06afb77b-b42c-41c4-b867-b073b0ab5083"
                  }
                ],
                "text": {
                  "status": "generated",
                  "div": "<div xmlns=\"http://www.w3.org/1999/xhtml\"><h3>Urinalysis</h3><table class=\"hl7__eu__lab__report\"><thead><tr><th>Test</th><th>12-OCT-2016</th><th>Reference&#xA0;Range</th><th>Unit</th></tr></thead><tbody><tr><td>Glucose [Mass/volume] in Urine by Test strip</td><td><strong>1.3 H</strong></td><td>0 - 0.8</td><td>mg/dL</td></tr><tr><td>Glucose [Presence] in Urine by Test strip</td><td>++</td><td></td><td></td></tr><tr><td>Bilirubin.total [Mass/volume] in Urine by Test strip</td><td>1.0</td><td>0.2 - 1</td><td>mg/dL</td></tr><tr><td>Bilirubin.total [Presence] in Urine by Test strip</td><td>Finding of bilirubin in urine</td><td></td><td></td></tr><tr><td>Ketones [Mass/volume] in Urine by Test strip</td><td>3.6</td><td>0 - 5</td><td>mg/dL</td></tr><tr><td>Specific gravity of Urine by Test strip</td><td><strong>1.0 L</strong></td><td>1.005 - 1.03</td><td>{nominal}</td></tr><tr><td>pH of Urine by Test strip</td><td>5.0</td><td>4.6 - 7</td><td>pH</td></tr><tr><td>Protein [Mass/volume] in Urine by Test strip</td><td><strong>312.2 H</strong></td><td>0 - 150</td><td>mg/dL</td></tr><tr><td>Protein [Presence] in Urine by Test strip</td><td>Urine protein test = ++</td><td></td><td></td></tr><tr><td>Nitrite [Presence] in Urine by Test strip</td><td>Urine nitrite negative</td><td></td><td></td></tr><tr><td>Hemoglobin [Presence] in Urine by Test strip</td><td>Urine blood test = negative</td><td></td><td></td></tr><tr><td>Leukocyte esterase [Presence] in Urine by Test strip</td><td>Urine leukocyte test negative</td><td></td><td></td></tr></tbody></table></div>"
                },
                "title": "Urinalysis"
              },
              {
                "code": {
                  "coding": [
                    {
                      "code": "$LP7846-1",
                      "system": "http://loinc.org",
                      "display": "Specimen information"
                    }
                  ],
                  "text": "Specimen information"
                },
                "entry": [
                  {
                    "reference": "urn:uuid:0ae50cdd-7f68-40f0-b383-0d4391e753a7"
                  },
                  {
                    "reference": "urn:uuid:490aed19-9f67-42a9-af5d-d576bcb8d6b0"
                  },
                  {
                    "reference": "urn:uuid:61acd6d7-08b9-4195-8ce0-e15fe0e85f67"
                  },
                  {
                    "reference": "urn:uuid:23c52237-a836-4e4b-8f0a-0f32084c3bbb"
                  }
                ],
                "text": {
                  "status": "generated",
                  "div": "<div xmlns=\"http://www.w3.org/1999/xhtml\"><h3>Specimen information</h3><table class=\"hl7__eu__lab__report\"><thead><tr><th>Test</th><th>12-OCT-2016</th><th>Specimen</th><th></th></tr></thead><tbody><tr><td>Appearance of Urine</td><td>Cloudy urine</td><td>Urine</td><td></td></tr><tr><td>Odor of Urine</td><td>Urine smell ammoniacal</td><td>Urine</td><td></td></tr><tr><td>Clarity of Urine</td><td>Translucent</td><td>Urine</td><td></td></tr><tr><td>Color of Urine</td><td>Brown color</td><td>Urine</td><td></td></tr></tbody></table></div>"
                },
                "title": "Specimen information"
              }
            ],
            "title": "Laboratory Report"
          },
          {
            "text": {
              "status": "generated",
              "div": "<div xmlns=\"http://www.w3.org/1999/xhtml\"><h3>Annotation</h3><table class=\"hl7__eu__lab__report\"><tr><th>Conclusion and Recommendations based on this report and previous findings known to us</th></tr><tr><td>The patient shows elevated creatinine, proteinuria, and abnormal urine findings (cloudy, brown, low specific gravity), suggesting significant renal dysfunction. Low total CO₂ may indicate metabolic acidosis. Urine glucose and ketones are present, but HbA1c is low, making diabetes less likely. No evidence of urinary tract infection. Findings are consistent with acute or chronic kidney disease; prompt nephrology evaluation is recommended.</td></tr></table></div>"
            },
            "code": {
              "coding": [
                {
                  "system": "http://loinc.org",
                  "code": "48767-8",
                  "display": "Annotation comment"
                }
              ]
            },
            "title": "Annotation comment"
          }
        ],
        "status": "final",
        "subject": {
          "reference": "urn:uuid:9022c749-c4ef-4c66-8b5c-6afad4dec851",
          "display": "Θεμιστοκλής Λιναρδάκη"
        },
        "date": "2016-10-12T08:16:00Z",
        "title": "Laboratory Report",
        "confidentiality": "N"
      }
    },
    {
      "fullUrl": "urn:uuid:bc73358a-de82-47a8-a09c-be778d9b1eb9",
      "resource": {
        "resourceType": "DiagnosticReport",
        "id": "bc73358a-de82-47a8-a09c-be778d9b1eb9",
        "meta": {
          "profile": [
            "http://hl7.eu/fhir/laboratory/StructureDefinition/DiagnosticReport-eu-lab"
          ]
        },
        "identifier": [
          {
            "assigner": {
              "display": "HL7 Europe"
            },
            "system": "urn:oid:2.16.840.1.113883.2.51.999",
            "value": "f15aaa1e-6b95-4adc-b169-931da74e0f29"
          }
        ],
        "extension": [
          {
            "url": "http://hl7.org/fhir/5.0/StructureDefinition/extension-DiagnosticReport.composition",
            "valueReference": {
              "reference": "urn:uuid:c7a847de-b77e-48ba-bed5-a8be51729781"
            }
          }
        ],
        "category": [
          {
            "coding": [
              {
                "code": "26436-6",
                "system": "http://loinc.org",
                "display": "Laboratory studies (set)"
              }
            ]
          }
        ],
        "specimen": [
          {
            "reference": "urn:uuid:0a44b81d-7936-4d0c-9831-c857cf3f338b"
          },
          {
            "reference": "urn:uuid:714ddb56-4476-4c81-9bcd-1744cfc05b09"
          },
          {
            "reference": "urn:uuid:5085600e-2bc4-4744-9352-8ea374ed5789"
          }
        ],
        "result": [
          {
            "reference": "urn:uuid:dd5f630d-b0ab-4727-b604-06c05aba3a87"
          },
          {
            "reference": "urn:uuid:77a36cbd-984f-4ebb-94a2-e385fbc1f9c1"
          },
          {
            "reference": "urn:uuid:5bf6331b-4a8f-4633-9ef0-fd5efac6d482"
          },
          {
            "reference": "urn:uuid:d92c4a56-37a9-4050-8da0-f998e801788b"
          },
          {
            "reference": "urn:uuid:c57c15e2-431d-46ee-bd16-5a90d4001263"
          },
          {
            "reference": "urn:uuid:e033de0b-c4f0-464c-98bd-01ff662c7372"
          },
          {
            "reference": "urn:uuid:a9aa948c-4639-4fb9-93a5-0e013a69d6d7"
          },
          {
            "reference": "urn:uuid:1d6060f7-842b-4e18-9d90-d960047a8bb4"
          },
          {
            "reference": "urn:uuid:0ae50cdd-7f68-40f0-b383-0d4391e753a7"
          },
          {
            "reference": "urn:uuid:490aed19-9f67-42a9-af5d-d576bcb8d6b0"
          },
          {
            "reference": "urn:uuid:61acd6d7-08b9-4195-8ce0-e15fe0e85f67"
          },
          {
            "reference": "urn:uuid:23c52237-a836-4e4b-8f0a-0f32084c3bbb"
          },
          {
            "reference": "urn:uuid:6569d4ea-3a58-4419-b8a3-45f31f383ac3"
          },
          {
            "reference": "urn:uuid:5ca3af89-26c4-4e8b-8f26-41c48764847c"
          },
          {
            "reference": "urn:uuid:0aca9c5d-fdb3-4259-8fc6-ff60d3aec0fc"
          },
          {
            "reference": "urn:uuid:a90f502a-c7ac-462b-9b1a-36a6e6efe8f1"
          },
          {
            "reference": "urn:uuid:9e7e92f3-1d0d-402d-ab1a-72ce4f678bad"
          },
          {
            "reference": "urn:uuid:d837fb7c-1225-49a2-8245-7293637eca99"
          },
          {
            "reference": "urn:uuid:c126d277-4ae9-4225-9a7a-58f62eb56b1c"
          },
          {
            "reference": "urn:uuid:d84805e4-a22f-497d-9eaf-3728e99c3b96"
          },
          {
            "reference": "urn:uuid:b70b3671-e458-45d5-b27a-3b454da12142"
          },
          {
            "reference": "urn:uuid:4a8032cd-78c2-4dab-8676-0f4a37579cbd"
          },
          {
            "reference": "urn:uuid:724d9d53-5925-4f95-bcb9-630dede15af3"
          },
          {
            "reference": "urn:uuid:3c62c243-a8ef-4f25-85fe-d9767a638c67"
          },
          {
            "reference": "urn:uuid:06afb77b-b42c-41c4-b867-b073b0ab5083"
          },
          {
            "reference": "urn:uuid:6b6e581c-1ca2-4d77-b29e-d6aa0fad3c96"
          },
          {
            "reference": "urn:uuid:74e4f15a-573e-440e-b7c8-1a840241f761"
          },
          {
            "reference": "urn:uuid:906ce32d-3d54-49b0-b4e3-acaafa6f0257"
          },
          {
            "reference": "urn:uuid:e96a88c7-b173-4249-b5b9-aa301e00677d"
          },
          {
            "reference": "urn:uuid:dc309055-8059-466e-9e89-208e83462db9"
          },
          {
            "reference": "urn:uuid:7c6d2099-aa7b-4bba-b396-3703c6797877"
          },
          {
            "reference": "urn:uuid:cb1d4492-b331-4e65-9942-bcb01f53e437"
          },
          {
            "reference": "urn:uuid:aef99141-ffd6-4b97-9649-8871189b0783"
          },
          {
            "reference": "urn:uuid:4f2cf02a-56a3-46c9-9169-036bdf15f26a"
          }
        ],
        "status": "registered",
        "code": {
          "coding": [
            {
              "code": "11502-2",
              "system": "http://loinc.org",
              "display": "Laboratory report"
            }
          ]
        },
        "subject": {
          "reference": "urn:uuid:9022c749-c4ef-4c66-8b5c-6afad4dec851",
          "display": "Θεμιστοκλής Λιναρδάκη"
        }
      }
    },
    {
      "fullUrl": "urn:uuid:9022c749-c4ef-4c66-8b5c-6afad4dec851",
      "resource": {
        "resourceType": "Patient",
        "id": "9022c749-c4ef-4c66-8b5c-6afad4dec851",
        "meta": {
          "security": [
            {
              "system": "http://terminology.hl7.org/CodeSystem/v3-ActReason",
              "code": "HTEST"
            },
            {
              "system": "http://terminology.hl7.org/CodeSystem/v3-ActReason",
              "code": "TRAIN"
            }
          ],
          "tag": [
            {
              "system": "https://synderai.net/fhir/CodeSystem/tags",
              "code": "synthetic",
              "display": "SYNDERAI Synthetic data"
            }
          ],
          "profile": [
            "http://hl7.eu/fhir/base/StructureDefinition/patient-eu-core"
          ]
        },
        "identifier": [
          {
            "type": {
              "coding": [
                {
                  "code": "PT",
                  "system": "http://terminology.hl7.org/CodeSystem/v2-0203"
                }
              ]
            },
            "system": "http://ec.europa.eu/identifier/eci",
            "value": "5962-476889-7"
          },
          {
            "type": {
              "coding": [
                {
                  "code": "MR",
                  "system": "http://terminology.hl7.org/CodeSystem/v2-0203"
                }
              ]
            },
            "system": "http://local.setting.eu/identifier",
            "value": "925e2603-2ef9-6bdf-1330-2ebf526636c4"
          }
        ],
        "name": [
          {
            "family": "Λιναρδάκη"
          },
          {
            "given": [
              "Θεμιστοκλής"
            ]
          },
          {
            "text": "Θεμιστοκλής Λιναρδάκη"
          }
        ],
        "address": [
          {
            "line": [
              "Αμαρύνθου 54-58"
            ],
            "use": "home",
            "type": "physical",
            "postalCode": "262 21",
            "city": "Πάτρα",
            "country": "Greece"
          }
        ],
        "telecom": [
          {
            "system": "phone",
            "value": "+302226364480"
          }
        ],
        "extension": [
          {
            "url": "http://hl7.org/fhir/StructureDefinition/patient-nationality",
            "valueCodeableConcept": {
              "coding": [
                {
                  "code": "GR",
                  "system": "http://hl7.org/fhir/ValueSet/country"
                }
              ]
            }
          }
        ],
        "text": {
          "status": "generated",
          "div": "<div xmlns=\"http://www.w3.org/1999/xhtml\"><table class=\"hl7__ips\"><tr><td>Θεμιστοκλής Λιναρδάκη</td><td>male</td><td>21-Jan-1974</td></tr></table></div>"
        },
        "gender": "male",
        "birthDate": "1974-01-21"
      }
    },
    {
      "fullUrl": "urn:uuid:11596ec4-9efd-445e-accb-9c14d05b7362",
      "resource": {
        "resourceType": "ServiceRequest",
        "id": "11596ec4-9efd-445e-accb-9c14d05b7362",
        "meta": {
          "profile": [
            "http://hl7.eu/fhir/laboratory/StructureDefinition/ServiceRequest-eu-lab"
          ]
        },
        "identifier": [
          {
            "system": "http://example.org",
            "value": "777394d8-2f54-48b3-bede-fc98d529d321"
          }
        ],
        "specimen": [
          {
            "reference": "urn:uuid:0a44b81d-7936-4d0c-9831-c857cf3f338b"
          },
          {
            "reference": "urn:uuid:714ddb56-4476-4c81-9bcd-1744cfc05b09"
          },
          {
            "reference": "urn:uuid:5085600e-2bc4-4744-9352-8ea374ed5789"
          }
        ],
        "reasonCode": [
          {
            "coding": [
              {
                "code": "237602007",
                "system": "http://snomed.info/sct",
                "display": "Metabolic syndrome X"
              }
            ]
          },
          {
            "coding": [
              {
                "code": "433144002",
                "system": "http://snomed.info/sct",
                "display": "Chronic kidney disease stage 3"
              }
            ]
          },
          {
            "coding": [
              {
                "code": "157141000119108",
                "system": "http://snomed.info/sct",
                "display": "Proteinuria due to type 2 diabetes mellitus"
              }
            ]
          },
          {
            "coding": [
              {
                "code": "431856006",
                "system": "http://snomed.info/sct",
                "display": "Chronic kidney disease stage 2"
              }
            ]
          },
          {
            "coding": [
              {
                "code": "90781000119102",
                "system": "http://snomed.info/sct",
                "display": "Microalbuminuria due to type 2 diabetes mellitus"
              }
            ]
          },
          {
            "coding": [
              {
                "code": "127013003",
                "system": "http://snomed.info/sct",
                "display": "Disorder of kidney due to diabetes mellitus"
              }
            ]
          },
          {
            "coding": [
              {
                "code": "431855005",
                "system": "http://snomed.info/sct",
                "display": "Chronic kidney disease stage 1"
              }
            ]
          },
          {
            "coding": [
              {
                "code": "59621000",
                "system": "http://snomed.info/sct",
                "display": "Essential hypertension"
              }
            ]
          },
          {
            "coding": [
              {
                "code": "15777000",
                "system": "http://snomed.info/sct",
                "display": "Prediabetes"
              }
            ]
          },
          {
            "coding": [
              {
                "code": "271737000",
                "system": "http://snomed.info/sct",
                "display": "Anemia"
              }
            ]
          }
        ],
        "status": "active",
        "intent": "order",
        "code": {
          "coding": [
            {
              "code": "108252007",
              "system": "http://snomed.info/sct",
              "display": "Laboratory procedure"
            }
          ]
        },
        "subject": {
          "reference": "urn:uuid:9022c749-c4ef-4c66-8b5c-6afad4dec851",
          "display": "Θεμιστοκλής Λιναρδάκη"
        },
        "requester": {
          "reference": "urn:uuid:a088eaff-e332-41ba-91da-8ac2a5a7f1a7"
        }
      }
    },
    {
      "fullUrl": "urn:uuid:a088eaff-e332-41ba-91da-8ac2a5a7f1a7",
      "resource": {
        "resourceType": "PractitionerRole",
        "id": "a088eaff-e332-41ba-91da-8ac2a5a7f1a7",
        "meta": {
          "profile": [
            "http://hl7.eu/fhir/base/StructureDefinition/practitionerRole-eu"
          ]
        },
        "text": {
          "status": "generated",
          "div": "<div xmlns=\"http://www.w3.org/1999/xhtml\">Provider Role Id: a088eaff-e332-41ba-91da-8ac2a5a7f1a7</div>"
        },
        "organization": {
          "reference": "urn:uuid:da175ec7-767d-497f-91f5-474871aab1d9"
        }
      }
    },
    {
      "fullUrl": "urn:uuid:da175ec7-767d-497f-91f5-474871aab1d9",
      "resource": {
        "resourceType": "Organization",
        "id": "da175ec7-767d-497f-91f5-474871aab1d9",
        "meta": {
          "profile": [
            "http://hl7.eu/fhir/base/StructureDefinition/organization-eu"
          ]
        },
        "identifier": [
          {
            "assigner": {
              "display": "HL7 Europe"
            },
            "system": "urn:oid:2.16.840.1.113883.2.51.999",
            "value": "6b5552d2-fd21-45c4-a1fa-98249b4f8820"
          }
        ],
        "address": [
          {
            "line": [
              "211 Odós Filellinon"
            ],
            "city": "Patras",
            "postalCode": "262 21",
            "country": "Greece"
          }
        ],
        "text": {
          "status": "generated",
          "div": "<div xmlns=\"http://www.w3.org/1999/xhtml\">Provider Organization: Dr. Dimitris Economou</div>"
        },
        "name": "Dr. Dimitris Economou"
      }
    },
    {
      "fullUrl": "urn:uuid:0a44b81d-7936-4d0c-9831-c857cf3f338b",
      "resource": {
        "resourceType": "Specimen",
        "id": "0a44b81d-7936-4d0c-9831-c857cf3f338b",
        "meta": {
          "profile": [
            "http://hl7.eu/fhir/laboratory/StructureDefinition/Specimen-eu-lab"
          ]
        },
        "collection": {
          "collectedDateTime": "2016-10-12"
        },
        "text": {
          "status": "generated",
          "div": "<div xmlns=\"http://www.w3.org/1999/xhtml\"><table class=\"hl7__eu__lab__report\"><tr><th>Specimen</th><th>Collection Date</th></tr><tr><td>Acellular blood (serum or plasma) specimen</td><td><span class=\"nb\">12-Oct-2016</span></td></tr></table></div>"
        },
        "type": {
          "coding": [
            {
              "code": "122592007",
              "system": "http://snomed.info/sct",
              "display": "Acellular blood (serum or plasma) specimen"
            }
          ]
        }
      }
    },
    {
      "fullUrl": "urn:uuid:714ddb56-4476-4c81-9bcd-1744cfc05b09",
      "resource": {
        "resourceType": "Specimen",
        "id": "714ddb56-4476-4c81-9bcd-1744cfc05b09",
        "meta": {
          "profile": [
            "http://hl7.eu/fhir/laboratory/StructureDefinition/Specimen-eu-lab"
          ]
        },
        "collection": {
          "collectedDateTime": "2016-10-12"
        },
        "text": {
          "status": "generated",
          "div": "<div xmlns=\"http://www.w3.org/1999/xhtml\"><table class=\"hl7__eu__lab__report\"><tr><th>Specimen</th><th>Collection Date</th></tr><tr><td>Urine specimen</td><td><span class=\"nb\">12-Oct-2016</span></td></tr></table></div>"
        },
        "type": {
          "coding": [
            {
              "code": "122575003",
              "system": "http://snomed.info/sct",
              "display": "Urine specimen"
            }
          ]
        }
      }
    },
    {
      "fullUrl": "urn:uuid:5085600e-2bc4-4744-9352-8ea374ed5789",
      "resource": {
        "resourceType": "Specimen",
        "id": "5085600e-2bc4-4744-9352-8ea374ed5789",
        "meta": {
          "profile": [
            "http://hl7.eu/fhir/laboratory/StructureDefinition/Specimen-eu-lab"
          ]
        },
        "collection": {
          "collectedDateTime": "2016-10-12"
        },
        "text": {
          "status": "generated",
          "div": "<div xmlns=\"http://www.w3.org/1999/xhtml\"><table class=\"hl7__eu__lab__report\"><tr><th>Specimen</th><th>Collection Date</th></tr><tr><td>Whole blood specimen (specimen)</td><td><span class=\"nb\">12-Oct-2016</span></td></tr></table></div>"
        },
        "type": {
          "coding": [
            {
              "code": "258580003",
              "system": "http://snomed.info/sct",
              "display": "Whole blood specimen (specimen)"
            }
          ]
        }
      }
    },
    {
      "fullUrl": "urn:uuid:dd5f630d-b0ab-4727-b604-06c05aba3a87",
      "resource": {
        "resourceType": "Observation",
        "id": "dd5f630d-b0ab-4727-b604-06c05aba3a87",
        "meta": {
          "profile": [
            "http://hl7.eu/fhir/laboratory/StructureDefinition/Observation-resultslab-eu-lab"
          ]
        },
        "performer": [
          {
            "display": "The Central European Lab"
          }
        ],
        "category": [
          {
            "coding": [
              {
                "system": "http://terminology.hl7.org/CodeSystem/observation-category",
                "code": "laboratory"
              }
            ]
          }
        ],
        "code": {
          "coding": [
            {
              "code": "2345-7",
              "system": "http://loinc.org",
              "display": "Glucose [Mass/volume] in Serum or Plasma"
            }
          ],
          "text": "Glucose [Mass/volume] in Serum or Plasma"
        },
        "valueQuantity": {
          "system": "http://unitsofmeasure.org",
          "value": 91.2,
          "unit": "mg/dL",
          "code": "mg/dL"
        },
        "referenceRange": [
          {
            "low": {
              "value": 70,
              "code": "mg/dL",
              "system": "http://unitsofmeasure.org"
            }
          },
          {
            "high": {
              "value": 140,
              "code": "mg/dL",
              "system": "http://unitsofmeasure.org"
            }
          }
        ],
        "text": {
          "status": "generated",
          "div": "<div xmlns=\"http://www.w3.org/1999/xhtml\"><table class=\"hl7__eu__lab__report\"><tr><th>Test</th><th>12-Oct-2016</th><th>Reference&#xA0;Range</th><th>Unit</th></tr><tr><td>Glucose [Mass/volume] in Serum or Plasma</td><td>91.2</td><td>70 - 140</td><td></td><td>mg/dL</td></tr></table></div>"
        },
        "status": "final",
        "subject": {
          "reference": "urn:uuid:9022c749-c4ef-4c66-8b5c-6afad4dec851",
          "display": "Θεμιστοκλής Λιναρδάκη"
        },
        "effectiveDateTime": "2016-10-12T06:16:00Z",
        "specimen": {
          "reference": "urn:uuid:0a44b81d-7936-4d0c-9831-c857cf3f338b"
        }
      }
    },
    {
      "fullUrl": "urn:uuid:77a36cbd-984f-4ebb-94a2-e385fbc1f9c1",
      "resource": {
        "resourceType": "Observation",
        "id": "77a36cbd-984f-4ebb-94a2-e385fbc1f9c1",
        "meta": {
          "profile": [
            "http://hl7.eu/fhir/laboratory/StructureDefinition/Observation-resultslab-eu-lab"
          ]
        },
        "performer": [
          {
            "display": "The Central European Lab"
          }
        ],
        "category": [
          {
            "coding": [
              {
                "system": "http://terminology.hl7.org/CodeSystem/observation-category",
                "code": "laboratory"
              }
            ]
          }
        ],
        "code": {
          "coding": [
            {
              "code": "3094-0",
              "system": "http://loinc.org",
              "display": "Urea nitrogen [Mass/volume] in Serum or Plasma"
            }
          ],
          "text": "Urea nitrogen [Mass/volume] in Serum or Plasma"
        },
        "valueQuantity": {
          "system": "http://unitsofmeasure.org",
          "value": 17.4,
          "unit": "mg/dL",
          "code": "mg/dL"
        },
        "referenceRange": [
          {
            "low": {
              "value": 7,
              "code": "mg/dL",
              "system": "http://unitsofmeasure.org"
            }
          },
          {
            "high": {
              "value": 20,
              "code": "mg/dL",
              "system": "http://unitsofmeasure.org"
            }
          }
        ],
        "text": {
          "status": "generated",
          "div": "<div xmlns=\"http://www.w3.org/1999/xhtml\"><table class=\"hl7__eu__lab__report\"><tr><th>Test</th><th>12-Oct-2016</th><th>Reference&#xA0;Range</th><th>Unit</th></tr><tr><td>Urea nitrogen [Mass/volume] in Serum or Plasma</td><td>17.4</td><td>7 - 20</td><td></td><td>mg/dL</td></tr></table></div>"
        },
        "status": "final",
        "subject": {
          "reference": "urn:uuid:9022c749-c4ef-4c66-8b5c-6afad4dec851",
          "display": "Θεμιστοκλής Λιναρδάκη"
        },
        "effectiveDateTime": "2016-10-12T06:16:00Z",
        "specimen": {
          "reference": "urn:uuid:0a44b81d-7936-4d0c-9831-c857cf3f338b"
        }
      }
    },
    {
      "fullUrl": "urn:uuid:5bf6331b-4a8f-4633-9ef0-fd5efac6d482",
      "resource": {
        "resourceType": "Observation",
        "id": "5bf6331b-4a8f-4633-9ef0-fd5efac6d482",
        "meta": {
          "profile": [
            "http://hl7.eu/fhir/laboratory/StructureDefinition/Observation-resultslab-eu-lab"
          ]
        },
        "performer": [
          {
            "display": "The Central European Lab"
          }
        ],
        "category": [
          {
            "coding": [
              {
                "system": "http://terminology.hl7.org/CodeSystem/observation-category",
                "code": "laboratory"
              }
            ]
          }
        ],
        "code": {
          "coding": [
            {
              "code": "2160-0",
              "system": "http://loinc.org",
              "display": "Creatinine [Mass/volume] in Serum or Plasma"
            }
          ],
          "text": "Creatinine [Mass/volume] in Serum or Plasma"
        },
        "valueQuantity": {
          "system": "http://unitsofmeasure.org",
          "value": 1.9,
          "unit": "mg/dL",
          "code": "mg/dL"
        },
        "referenceRange": [
          {
            "low": {
              "value": 0.9,
              "code": "mg/dL",
              "system": "http://unitsofmeasure.org"
            }
          },
          {
            "high": {
              "value": 1.3,
              "code": "mg/dL",
              "system": "http://unitsofmeasure.org"
            }
          }
        ],
        "interpretation": [
          {
            "coding": [
              {
                "code": "H",
                "system": "http://terminology.hl7.org/CodeSystem/v3-ObservationInterpretation",
                "display": "High"
              }
            ]
          }
        ],
        "text": {
          "status": "generated",
          "div": "<div xmlns=\"http://www.w3.org/1999/xhtml\"><table class=\"hl7__eu__lab__report\"><tr><th>Test</th><th>12-Oct-2016</th><th>Reference&#xA0;Range</th><th>Unit</th></tr><tr><td>Creatinine [Mass/volume] in Serum or Plasma</td><td>1.9</td><td>0.9 - 1.3</td><td>H</td><td>mg/dL</td></tr></table></div>"
        },
        "status": "final",
        "subject": {
          "reference": "urn:uuid:9022c749-c4ef-4c66-8b5c-6afad4dec851",
          "display": "Θεμιστοκλής Λιναρδάκη"
        },
        "effectiveDateTime": "2016-10-12T06:16:00Z",
        "specimen": {
          "reference": "urn:uuid:0a44b81d-7936-4d0c-9831-c857cf3f338b"
        }
      }
    },
    {
      "fullUrl": "urn:uuid:d92c4a56-37a9-4050-8da0-f998e801788b",
      "resource": {
        "resourceType": "Observation",
        "id": "d92c4a56-37a9-4050-8da0-f998e801788b",
        "meta": {
          "profile": [
            "http://hl7.eu/fhir/laboratory/StructureDefinition/Observation-resultslab-eu-lab"
          ]
        },
        "performer": [
          {
            "display": "The Central European Lab"
          }
        ],
        "category": [
          {
            "coding": [
              {
                "system": "http://terminology.hl7.org/CodeSystem/observation-category",
                "code": "laboratory"
              }
            ]
          }
        ],
        "code": {
          "coding": [
            {
              "code": "17861-6",
              "system": "http://loinc.org",
              "display": "Calcium [Mass/volume] in Serum or Plasma"
            }
          ],
          "text": "Calcium [Mass/volume] in Serum or Plasma"
        },
        "valueQuantity": {
          "system": "http://unitsofmeasure.org",
          "value": 9.5,
          "unit": "mg/dL",
          "code": "mg/dL"
        },
        "referenceRange": [
          {
            "low": {
              "value": 8.5,
              "code": "mg/dL",
              "system": "http://unitsofmeasure.org"
            }
          },
          {
            "high": {
              "value": 10.5,
              "code": "mg/dL",
              "system": "http://unitsofmeasure.org"
            }
          }
        ],
        "text": {
          "status": "generated",
          "div": "<div xmlns=\"http://www.w3.org/1999/xhtml\"><table class=\"hl7__eu__lab__report\"><tr><th>Test</th><th>12-Oct-2016</th><th>Reference&#xA0;Range</th><th>Unit</th></tr><tr><td>Calcium [Mass/volume] in Serum or Plasma</td><td>9.5</td><td>8.5 - 10.5</td><td></td><td>mg/dL</td></tr></table></div>"
        },
        "status": "final",
        "subject": {
          "reference": "urn:uuid:9022c749-c4ef-4c66-8b5c-6afad4dec851",
          "display": "Θεμιστοκλής Λιναρδάκη"
        },
        "effectiveDateTime": "2016-10-12T06:16:00Z",
        "specimen": {
          "reference": "urn:uuid:0a44b81d-7936-4d0c-9831-c857cf3f338b"
        }
      }
    },
    {
      "fullUrl": "urn:uuid:c57c15e2-431d-46ee-bd16-5a90d4001263",
      "resource": {
        "resourceType": "Observation",
        "id": "c57c15e2-431d-46ee-bd16-5a90d4001263",
        "meta": {
          "profile": [
            "http://hl7.eu/fhir/laboratory/StructureDefinition/Observation-resultslab-eu-lab"
          ]
        },
        "performer": [
          {
            "display": "The Central European Lab"
          }
        ],
        "category": [
          {
            "coding": [
              {
                "system": "http://terminology.hl7.org/CodeSystem/observation-category",
                "code": "laboratory"
              }
            ]
          }
        ],
        "code": {
          "coding": [
            {
              "code": "2951-2",
              "system": "http://loinc.org",
              "display": "Sodium [Moles/volume] in Serum or Plasma"
            }
          ],
          "text": "Sodium [Moles/volume] in Serum or Plasma"
        },
        "valueQuantity": {
          "system": "http://unitsofmeasure.org",
          "value": 140.3,
          "unit": "mmol/L",
          "code": "mmol/L"
        },
        "referenceRange": [
          {
            "low": {
              "value": 135,
              "code": "mmol/L",
              "system": "http://unitsofmeasure.org"
            }
          },
          {
            "high": {
              "value": 145,
              "code": "mmol/L",
              "system": "http://unitsofmeasure.org"
            }
          }
        ],
        "text": {
          "status": "generated",
          "div": "<div xmlns=\"http://www.w3.org/1999/xhtml\"><table class=\"hl7__eu__lab__report\"><tr><th>Test</th><th>12-Oct-2016</th><th>Reference&#xA0;Range</th><th>Unit</th></tr><tr><td>Sodium [Moles/volume] in Serum or Plasma</td><td>140.3</td><td>135 - 145</td><td></td><td>mmol/L</td></tr></table></div>"
        },
        "status": "final",
        "subject": {
          "reference": "urn:uuid:9022c749-c4ef-4c66-8b5c-6afad4dec851",
          "display": "Θεμιστοκλής Λιναρδάκη"
        },
        "effectiveDateTime": "2016-10-12T06:16:00Z",
        "specimen": {
          "reference": "urn:uuid:0a44b81d-7936-4d0c-9831-c857cf3f338b"
        }
      }
    },
    {
      "fullUrl": "urn:uuid:e033de0b-c4f0-464c-98bd-01ff662c7372",
      "resource": {
        "resourceType": "Observation",
        "id": "e033de0b-c4f0-464c-98bd-01ff662c7372",
        "meta": {
          "profile": [
            "http://hl7.eu/fhir/laboratory/StructureDefinition/Observation-resultslab-eu-lab"
          ]
        },
        "performer": [
          {
            "display": "The Central European Lab"
          }
        ],
        "category": [
          {
            "coding": [
              {
                "system": "http://terminology.hl7.org/CodeSystem/observation-category",
                "code": "laboratory"
              }
            ]
          }
        ],
        "code": {
          "coding": [
            {
              "code": "2823-3",
              "system": "http://loinc.org",
              "display": "Potassium [Moles/volume] in Serum or Plasma"
            }
          ],
          "text": "Potassium [Moles/volume] in Serum or Plasma"
        },
        "valueQuantity": {
          "system": "http://unitsofmeasure.org",
          "value": 3.8,
          "unit": "mmol/L",
          "code": "mmol/L"
        },
        "referenceRange": [
          {
            "low": {
              "value": 3.5,
              "code": "mmol/L",
              "system": "http://unitsofmeasure.org"
            }
          },
          {
            "high": {
              "value": 5,
              "code": "mmol/L",
              "system": "http://unitsofmeasure.org"
            }
          }
        ],
        "text": {
          "status": "generated",
          "div": "<div xmlns=\"http://www.w3.org/1999/xhtml\"><table class=\"hl7__eu__lab__report\"><tr><th>Test</th><th>12-Oct-2016</th><th>Reference&#xA0;Range</th><th>Unit</th></tr><tr><td>Potassium [Moles/volume] in Serum or Plasma</td><td>3.8</td><td>3.5 - 5</td><td></td><td>mmol/L</td></tr></table></div>"
        },
        "status": "final",
        "subject": {
          "reference": "urn:uuid:9022c749-c4ef-4c66-8b5c-6afad4dec851",
          "display": "Θεμιστοκλής Λιναρδάκη"
        },
        "effectiveDateTime": "2016-10-12T06:16:00Z",
        "specimen": {
          "reference": "urn:uuid:0a44b81d-7936-4d0c-9831-c857cf3f338b"
        }
      }
    },
    {
      "fullUrl": "urn:uuid:a9aa948c-4639-4fb9-93a5-0e013a69d6d7",
      "resource": {
        "resourceType": "Observation",
        "id": "a9aa948c-4639-4fb9-93a5-0e013a69d6d7",
        "meta": {
          "profile": [
            "http://hl7.eu/fhir/laboratory/StructureDefinition/Observation-resultslab-eu-lab"
          ]
        },
        "performer": [
          {
            "display": "The Central European Lab"
          }
        ],
        "category": [
          {
            "coding": [
              {
                "system": "http://terminology.hl7.org/CodeSystem/observation-category",
                "code": "laboratory"
              }
            ]
          }
        ],
        "code": {
          "coding": [
            {
              "code": "2075-0",
              "system": "http://loinc.org",
              "display": "Chloride [Moles/volume] in Serum or Plasma"
            }
          ],
          "text": "Chloride [Moles/volume] in Serum or Plasma"
        },
        "valueQuantity": {
          "system": "http://unitsofmeasure.org",
          "value": 109.5,
          "unit": "mmol/L",
          "code": "mmol/L"
        },
        "referenceRange": [
          {
            "low": {
              "value": 98,
              "code": "mmol/L",
              "system": "http://unitsofmeasure.org"
            }
          },
          {
            "high": {
              "value": 108,
              "code": "mmol/L",
              "system": "http://unitsofmeasure.org"
            }
          }
        ],
        "interpretation": [
          {
            "coding": [
              {
                "code": "H",
                "system": "http://terminology.hl7.org/CodeSystem/v3-ObservationInterpretation",
                "display": "High"
              }
            ]
          }
        ],
        "text": {
          "status": "generated",
          "div": "<div xmlns=\"http://www.w3.org/1999/xhtml\"><table class=\"hl7__eu__lab__report\"><tr><th>Test</th><th>12-Oct-2016</th><th>Reference&#xA0;Range</th><th>Unit</th></tr><tr><td>Chloride [Moles/volume] in Serum or Plasma</td><td>109.5</td><td>98 - 108</td><td>H</td><td>mmol/L</td></tr></table></div>"
        },
        "status": "final",
        "subject": {
          "reference": "urn:uuid:9022c749-c4ef-4c66-8b5c-6afad4dec851",
          "display": "Θεμιστοκλής Λιναρδάκη"
        },
        "effectiveDateTime": "2016-10-12T06:16:00Z",
        "specimen": {
          "reference": "urn:uuid:0a44b81d-7936-4d0c-9831-c857cf3f338b"
        }
      }
    },
    {
      "fullUrl": "urn:uuid:1d6060f7-842b-4e18-9d90-d960047a8bb4",
      "resource": {
        "resourceType": "Observation",
        "id": "1d6060f7-842b-4e18-9d90-d960047a8bb4",
        "meta": {
          "profile": [
            "http://hl7.eu/fhir/laboratory/StructureDefinition/Observation-resultslab-eu-lab"
          ]
        },
        "performer": [
          {
            "display": "The Central European Lab"
          }
        ],
        "category": [
          {
            "coding": [
              {
                "system": "http://terminology.hl7.org/CodeSystem/observation-category",
                "code": "laboratory"
              }
            ]
          }
        ],
        "code": {
          "coding": [
            {
              "code": "2028-9",
              "system": "http://loinc.org",
              "display": "Carbon dioxide, total [Moles/volume] in Serum or Plasma"
            }
          ],
          "text": "Carbon dioxide, total [Moles/volume] in Serum or Plasma"
        },
        "valueQuantity": {
          "system": "http://unitsofmeasure.org",
          "value": 21.2,
          "unit": "mmol/L",
          "code": "mmol/L"
        },
        "referenceRange": [
          {
            "low": {
              "value": 22,
              "code": "mmol/L",
              "system": "http://unitsofmeasure.org"
            }
          },
          {
            "high": {
              "value": 29,
              "code": "mmol/L",
              "system": "http://unitsofmeasure.org"
            }
          }
        ],
        "interpretation": [
          {
            "coding": [
              {
                "code": "L",
                "system": "http://terminology.hl7.org/CodeSystem/v3-ObservationInterpretation",
                "display": "Low"
              }
            ]
          }
        ],
        "text": {
          "status": "generated",
          "div": "<div xmlns=\"http://www.w3.org/1999/xhtml\"><table class=\"hl7__eu__lab__report\"><tr><th>Test</th><th>12-Oct-2016</th><th>Reference&#xA0;Range</th><th>Unit</th></tr><tr><td>Carbon dioxide, total [Moles/volume] in Serum or Plasma</td><td>21.2</td><td>22 - 29</td><td>L</td><td>mmol/L</td></tr></table></div>"
        },
        "status": "final",
        "subject": {
          "reference": "urn:uuid:9022c749-c4ef-4c66-8b5c-6afad4dec851",
          "display": "Θεμιστοκλής Λιναρδάκη"
        },
        "effectiveDateTime": "2016-10-12T06:16:00Z",
        "specimen": {
          "reference": "urn:uuid:0a44b81d-7936-4d0c-9831-c857cf3f338b"
        }
      }
    },
    {
      "fullUrl": "urn:uuid:0ae50cdd-7f68-40f0-b383-0d4391e753a7",
      "resource": {
        "resourceType": "Observation",
        "id": "0ae50cdd-7f68-40f0-b383-0d4391e753a7",
        "meta": {
          "profile": [
            "http://hl7.eu/fhir/laboratory/StructureDefinition/Observation-resultslab-eu-lab"
          ]
        },
        "performer": [
          {
            "display": "The Central European Lab"
          }
        ],
        "category": [
          {
            "coding": [
              {
                "system": "http://terminology.hl7.org/CodeSystem/observation-category",
                "code": "laboratory"
              }
            ]
          }
        ],
        "code": {
          "coding": [
            {
              "code": "5767-9",
              "system": "http://loinc.org",
              "display": "Appearance of Urine"
            }
          ],
          "text": "Appearance of Urine"
        },
        "text": {
          "status": "generated",
          "div": "<div xmlns=\"http://www.w3.org/1999/xhtml\"><table class=\"hl7__eu__lab__report\"><tr><th>Test</th><th>12-Oct-2016</th><th>Reference&#xA0;Range</th><th>Unit</th></tr><tr><td>Appearance of Urine</td></tr></table></div>"
        },
        "status": "final",
        "subject": {
          "reference": "urn:uuid:9022c749-c4ef-4c66-8b5c-6afad4dec851",
          "display": "Θεμιστοκλής Λιναρδάκη"
        },
        "effectiveDateTime": "2016-10-12T06:16:00Z",
        "specimen": {
          "reference": "urn:uuid:714ddb56-4476-4c81-9bcd-1744cfc05b09"
        }
      }
    },
    {
      "fullUrl": "urn:uuid:490aed19-9f67-42a9-af5d-d576bcb8d6b0",
      "resource": {
        "resourceType": "Observation",
        "id": "490aed19-9f67-42a9-af5d-d576bcb8d6b0",
        "meta": {
          "profile": [
            "http://hl7.eu/fhir/laboratory/StructureDefinition/Observation-resultslab-eu-lab"
          ]
        },
        "performer": [
          {
            "display": "The Central European Lab"
          }
        ],
        "category": [
          {
            "coding": [
              {
                "system": "http://terminology.hl7.org/CodeSystem/observation-category",
                "code": "laboratory"
              }
            ]
          }
        ],
        "code": {
          "coding": [
            {
              "code": "34533-0",
              "system": "http://loinc.org",
              "display": "Odor of Urine"
            }
          ],
          "text": "Odor of Urine"
        },
        "text": {
          "status": "generated",
          "div": "<div xmlns=\"http://www.w3.org/1999/xhtml\"><table class=\"hl7__eu__lab__report\"><tr><th>Test</th><th>12-Oct-2016</th><th>Reference&#xA0;Range</th><th>Unit</th></tr><tr><td>Odor of Urine</td></tr></table></div>"
        },
        "status": "final",
        "subject": {
          "reference": "urn:uuid:9022c749-c4ef-4c66-8b5c-6afad4dec851",
          "display": "Θεμιστοκλής Λιναρδάκη"
        },
        "effectiveDateTime": "2016-10-12T06:16:00Z",
        "specimen": {
          "reference": "urn:uuid:714ddb56-4476-4c81-9bcd-1744cfc05b09"
        }
      }
    },
    {
      "fullUrl": "urn:uuid:61acd6d7-08b9-4195-8ce0-e15fe0e85f67",
      "resource": {
        "resourceType": "Observation",
        "id": "61acd6d7-08b9-4195-8ce0-e15fe0e85f67",
        "meta": {
          "profile": [
            "http://hl7.eu/fhir/laboratory/StructureDefinition/Observation-resultslab-eu-lab"
          ]
        },
        "performer": [
          {
            "display": "The Central European Lab"
          }
        ],
        "category": [
          {
            "coding": [
              {
                "system": "http://terminology.hl7.org/CodeSystem/observation-category",
                "code": "laboratory"
              }
            ]
          }
        ],
        "code": {
          "coding": [
            {
              "code": "32167-9",
              "system": "http://loinc.org",
              "display": "Clarity of Urine"
            }
          ],
          "text": "Clarity of Urine"
        },
        "text": {
          "status": "generated",
          "div": "<div xmlns=\"http://www.w3.org/1999/xhtml\"><table class=\"hl7__eu__lab__report\"><tr><th>Test</th><th>12-Oct-2016</th><th>Reference&#xA0;Range</th><th>Unit</th></tr><tr><td>Clarity of Urine</td></tr></table></div>"
        },
        "status": "final",
        "subject": {
          "reference": "urn:uuid:9022c749-c4ef-4c66-8b5c-6afad4dec851",
          "display": "Θεμιστοκλής Λιναρδάκη"
        },
        "effectiveDateTime": "2016-10-12T06:16:00Z",
        "specimen": {
          "reference": "urn:uuid:714ddb56-4476-4c81-9bcd-1744cfc05b09"
        }
      }
    },
    {
      "fullUrl": "urn:uuid:23c52237-a836-4e4b-8f0a-0f32084c3bbb",
      "resource": {
        "resourceType": "Observation",
        "id": "23c52237-a836-4e4b-8f0a-0f32084c3bbb",
        "meta": {
          "profile": [
            "http://hl7.eu/fhir/laboratory/StructureDefinition/Observation-resultslab-eu-lab"
          ]
        },
        "performer": [
          {
            "display": "The Central European Lab"
          }
        ],
        "category": [
          {
            "coding": [
              {
                "system": "http://terminology.hl7.org/CodeSystem/observation-category",
                "code": "laboratory"
              }
            ]
          }
        ],
        "code": {
          "coding": [
            {
              "code": "5778-6",
              "system": "http://loinc.org",
              "display": "Color of Urine"
            }
          ],
          "text": "Color of Urine"
        },
        "text": {
          "status": "generated",
          "div": "<div xmlns=\"http://www.w3.org/1999/xhtml\"><table class=\"hl7__eu__lab__report\"><tr><th>Test</th><th>12-Oct-2016</th><th>Reference&#xA0;Range</th><th>Unit</th></tr><tr><td>Color of Urine</td></tr></table></div>"
        },
        "status": "final",
        "subject": {
          "reference": "urn:uuid:9022c749-c4ef-4c66-8b5c-6afad4dec851",
          "display": "Θεμιστοκλής Λιναρδάκη"
        },
        "effectiveDateTime": "2016-10-12T06:16:00Z",
        "specimen": {
          "reference": "urn:uuid:714ddb56-4476-4c81-9bcd-1744cfc05b09"
        }
      }
    },
    {
      "fullUrl": "urn:uuid:6569d4ea-3a58-4419-b8a3-45f31f383ac3",
      "resource": {
        "resourceType": "Observation",
        "id": "6569d4ea-3a58-4419-b8a3-45f31f383ac3",
        "meta": {
          "profile": [
            "http://hl7.eu/fhir/laboratory/StructureDefinition/Observation-resultslab-eu-lab"
          ]
        },
        "performer": [
          {
            "display": "The Central European Lab"
          }
        ],
        "category": [
          {
            "coding": [
              {
                "system": "http://terminology.hl7.org/CodeSystem/observation-category",
                "code": "laboratory"
              }
            ]
          }
        ],
        "code": {
          "coding": [
            {
              "code": "5792-7",
              "system": "http://loinc.org",
              "display": "Glucose [Mass/volume] in Urine by Test strip"
            }
          ],
          "text": "Glucose [Mass/volume] in Urine by Test strip"
        },
        "valueQuantity": {
          "system": "http://unitsofmeasure.org",
          "value": 1.3,
          "unit": "mg/dL",
          "code": "mg/dL"
        },
        "referenceRange": [
          {
            "low": {
              "value": 0,
              "code": "mg/dL",
              "system": "http://unitsofmeasure.org"
            }
          },
          {
            "high": {
              "value": 0.8,
              "code": "mg/dL",
              "system": "http://unitsofmeasure.org"
            }
          }
        ],
        "interpretation": [
          {
            "coding": [
              {
                "code": "H",
                "system": "http://terminology.hl7.org/CodeSystem/v3-ObservationInterpretation",
                "display": "High"
              }
            ]
          }
        ],
        "text": {
          "status": "generated",
          "div": "<div xmlns=\"http://www.w3.org/1999/xhtml\"><table class=\"hl7__eu__lab__report\"><tr><th>Test</th><th>12-Oct-2016</th><th>Reference&#xA0;Range</th><th>Unit</th></tr><tr><td>Glucose [Mass/volume] in Urine by Test strip</td><td>1.3</td><td>0 - 0.8</td><td>H</td><td>mg/dL</td></tr></table></div>"
        },
        "status": "final",
        "subject": {
          "reference": "urn:uuid:9022c749-c4ef-4c66-8b5c-6afad4dec851",
          "display": "Θεμιστοκλής Λιναρδάκη"
        },
        "effectiveDateTime": "2016-10-12T06:16:00Z",
        "specimen": {
          "reference": "urn:uuid:714ddb56-4476-4c81-9bcd-1744cfc05b09"
        }
      }
    },
    {
      "fullUrl": "urn:uuid:5ca3af89-26c4-4e8b-8f26-41c48764847c",
      "resource": {
        "resourceType": "Observation",
        "id": "5ca3af89-26c4-4e8b-8f26-41c48764847c",
        "meta": {
          "profile": [
            "http://hl7.eu/fhir/laboratory/StructureDefinition/Observation-resultslab-eu-lab"
          ]
        },
        "performer": [
          {
            "display": "The Central European Lab"
          }
        ],
        "category": [
          {
            "coding": [
              {
                "system": "http://terminology.hl7.org/CodeSystem/observation-category",
                "code": "laboratory"
              }
            ]
          }
        ],
        "code": {
          "coding": [
            {
              "code": "25428-4",
              "system": "http://loinc.org",
              "display": "Glucose [Presence] in Urine by Test strip"
            }
          ],
          "text": "Glucose [Presence] in Urine by Test strip"
        },
        "text": {
          "status": "generated",
          "div": "<div xmlns=\"http://www.w3.org/1999/xhtml\"><table class=\"hl7__eu__lab__report\"><tr><th>Test</th><th>12-Oct-2016</th><th>Reference&#xA0;Range</th><th>Unit</th></tr><tr><td>Glucose [Presence] in Urine by Test strip</td></tr></table></div>"
        },
        "status": "final",
        "subject": {
          "reference": "urn:uuid:9022c749-c4ef-4c66-8b5c-6afad4dec851",
          "display": "Θεμιστοκλής Λιναρδάκη"
        },
        "effectiveDateTime": "2016-10-12T06:16:00Z",
        "specimen": {
          "reference": "urn:uuid:714ddb56-4476-4c81-9bcd-1744cfc05b09"
        }
      }
    },
    {
      "fullUrl": "urn:uuid:0aca9c5d-fdb3-4259-8fc6-ff60d3aec0fc",
      "resource": {
        "resourceType": "Observation",
        "id": "0aca9c5d-fdb3-4259-8fc6-ff60d3aec0fc",
        "meta": {
          "profile": [
            "http://hl7.eu/fhir/laboratory/StructureDefinition/Observation-resultslab-eu-lab"
          ]
        },
        "performer": [
          {
            "display": "The Central European Lab"
          }
        ],
        "category": [
          {
            "coding": [
              {
                "system": "http://terminology.hl7.org/CodeSystem/observation-category",
                "code": "laboratory"
              }
            ]
          }
        ],
        "code": {
          "coding": [
            {
              "code": "20505-4",
              "system": "http://loinc.org",
              "display": "Bilirubin.total [Mass/volume] in Urine by Test strip"
            }
          ],
          "text": "Bilirubin.total [Mass/volume] in Urine by Test strip"
        },
        "valueQuantity": {
          "system": "http://unitsofmeasure.org",
          "value": 1,
          "unit": "mg/dL",
          "code": "mg/dL"
        },
        "referenceRange": [
          {
            "low": {
              "value": 0.2,
              "code": "mg/dL",
              "system": "http://unitsofmeasure.org"
            }
          },
          {
            "high": {
              "value": 1,
              "code": "mg/dL",
              "system": "http://unitsofmeasure.org"
            }
          }
        ],
        "text": {
          "status": "generated",
          "div": "<div xmlns=\"http://www.w3.org/1999/xhtml\"><table class=\"hl7__eu__lab__report\"><tr><th>Test</th><th>12-Oct-2016</th><th>Reference&#xA0;Range</th><th>Unit</th></tr><tr><td>Bilirubin.total [Mass/volume] in Urine by Test strip</td><td>1.0</td><td>0.2 - 1</td><td></td><td>mg/dL</td></tr></table></div>"
        },
        "status": "final",
        "subject": {
          "reference": "urn:uuid:9022c749-c4ef-4c66-8b5c-6afad4dec851",
          "display": "Θεμιστοκλής Λιναρδάκη"
        },
        "effectiveDateTime": "2016-10-12T06:16:00Z",
        "specimen": {
          "reference": "urn:uuid:714ddb56-4476-4c81-9bcd-1744cfc05b09"
        }
      }
    },
    {
      "fullUrl": "urn:uuid:a90f502a-c7ac-462b-9b1a-36a6e6efe8f1",
      "resource": {
        "resourceType": "Observation",
        "id": "a90f502a-c7ac-462b-9b1a-36a6e6efe8f1",
        "meta": {
          "profile": [
            "http://hl7.eu/fhir/laboratory/StructureDefinition/Observation-resultslab-eu-lab"
          ]
        },
        "performer": [
          {
            "display": "The Central European Lab"
          }
        ],
        "category": [
          {
            "coding": [
              {
                "system": "http://terminology.hl7.org/CodeSystem/observation-category",
                "code": "laboratory"
              }
            ]
          }
        ],
        "code": {
          "coding": [
            {
              "code": "5770-3",
              "system": "http://loinc.org",
              "display": "Bilirubin.total [Presence] in Urine by Test strip"
            }
          ],
          "text": "Bilirubin.total [Presence] in Urine by Test strip"
        },
        "text": {
          "status": "generated",
          "div": "<div xmlns=\"http://www.w3.org/1999/xhtml\"><table class=\"hl7__eu__lab__report\"><tr><th>Test</th><th>12-Oct-2016</th><th>Reference&#xA0;Range</th><th>Unit</th></tr><tr><td>Bilirubin.total [Presence] in Urine by Test strip</td></tr></table></div>"
        },
        "status": "final",
        "subject": {
          "reference": "urn:uuid:9022c749-c4ef-4c66-8b5c-6afad4dec851",
          "display": "Θεμιστοκλής Λιναρδάκη"
        },
        "effectiveDateTime": "2016-10-12T06:16:00Z",
        "specimen": {
          "reference": "urn:uuid:714ddb56-4476-4c81-9bcd-1744cfc05b09"
        }
      }
    },
    {
      "fullUrl": "urn:uuid:9e7e92f3-1d0d-402d-ab1a-72ce4f678bad",
      "resource": {
        "resourceType": "Observation",
        "id": "9e7e92f3-1d0d-402d-ab1a-72ce4f678bad",
        "meta": {
          "profile": [
            "http://hl7.eu/fhir/laboratory/StructureDefinition/Observation-resultslab-eu-lab"
          ]
        },
        "performer": [
          {
            "display": "The Central European Lab"
          }
        ],
        "category": [
          {
            "coding": [
              {
                "system": "http://terminology.hl7.org/CodeSystem/observation-category",
                "code": "laboratory"
              }
            ]
          }
        ],
        "code": {
          "coding": [
            {
              "code": "5797-6",
              "system": "http://loinc.org",
              "display": "Ketones [Mass/volume] in Urine by Test strip"
            }
          ],
          "text": "Ketones [Mass/volume] in Urine by Test strip"
        },
        "valueQuantity": {
          "system": "http://unitsofmeasure.org",
          "value": 3.6,
          "unit": "mg/dL",
          "code": "mg/dL"
        },
        "referenceRange": [
          {
            "low": {
              "value": 0,
              "code": "mg/dL",
              "system": "http://unitsofmeasure.org"
            }
          },
          {
            "high": {
              "value": 5,
              "code": "mg/dL",
              "system": "http://unitsofmeasure.org"
            }
          }
        ],
        "text": {
          "status": "generated",
          "div": "<div xmlns=\"http://www.w3.org/1999/xhtml\"><table class=\"hl7__eu__lab__report\"><tr><th>Test</th><th>12-Oct-2016</th><th>Reference&#xA0;Range</th><th>Unit</th></tr><tr><td>Ketones [Mass/volume] in Urine by Test strip</td><td>3.6</td><td>0 - 5</td><td></td><td>mg/dL</td></tr></table></div>"
        },
        "status": "final",
        "subject": {
          "reference": "urn:uuid:9022c749-c4ef-4c66-8b5c-6afad4dec851",
          "display": "Θεμιστοκλής Λιναρδάκη"
        },
        "effectiveDateTime": "2016-10-12T06:16:00Z",
        "specimen": {
          "reference": "urn:uuid:714ddb56-4476-4c81-9bcd-1744cfc05b09"
        }
      }
    },
    {
      "fullUrl": "urn:uuid:d837fb7c-1225-49a2-8245-7293637eca99",
      "resource": {
        "resourceType": "Observation",
        "id": "d837fb7c-1225-49a2-8245-7293637eca99",
        "meta": {
          "profile": [
            "http://hl7.eu/fhir/laboratory/StructureDefinition/Observation-resultslab-eu-lab"
          ]
        },
        "performer": [
          {
            "display": "The Central European Lab"
          }
        ],
        "category": [
          {
            "coding": [
              {
                "system": "http://terminology.hl7.org/CodeSystem/observation-category",
                "code": "laboratory"
              }
            ]
          }
        ],
        "code": {
          "coding": [
            {
              "code": "2514-8",
              "system": "http://loinc.org",
              "display": "Ketones [Presence] in Urine by Test strip"
            }
          ],
          "text": "Ketones [Presence] in Urine by Test strip"
        },
        "text": {
          "status": "generated",
          "div": "<div xmlns=\"http://www.w3.org/1999/xhtml\"><table class=\"hl7__eu__lab__report\"><tr><th>Test</th><th>12-Oct-2016</th><th>Reference&#xA0;Range</th><th>Unit</th></tr><tr><td>Ketones [Presence] in Urine by Test strip</td></tr></table></div>"
        },
        "status": "final",
        "subject": {
          "reference": "urn:uuid:9022c749-c4ef-4c66-8b5c-6afad4dec851",
          "display": "Θεμιστοκλής Λιναρδάκη"
        },
        "effectiveDateTime": "2016-10-12T06:16:00Z",
        "specimen": {
          "reference": "urn:uuid:714ddb56-4476-4c81-9bcd-1744cfc05b09"
        }
      }
    },
    {
      "fullUrl": "urn:uuid:c126d277-4ae9-4225-9a7a-58f62eb56b1c",
      "resource": {
        "resourceType": "Observation",
        "id": "c126d277-4ae9-4225-9a7a-58f62eb56b1c",
        "meta": {
          "profile": [
            "http://hl7.eu/fhir/laboratory/StructureDefinition/Observation-resultslab-eu-lab"
          ]
        },
        "performer": [
          {
            "display": "The Central European Lab"
          }
        ],
        "category": [
          {
            "coding": [
              {
                "system": "http://terminology.hl7.org/CodeSystem/observation-category",
                "code": "laboratory"
              }
            ]
          }
        ],
        "code": {
          "coding": [
            {
              "code": "5811-5",
              "system": "http://loinc.org",
              "display": "Specific gravity of Urine by Test strip"
            }
          ],
          "text": "Specific gravity of Urine by Test strip"
        },
        "valueQuantity": {
          "system": "http://unitsofmeasure.org",
          "value": 1,
          "unit": "{nominal}",
          "code": "{nominal}"
        },
        "referenceRange": [
          {
            "low": {
              "value": 1.005,
              "code": "g/mL",
              "system": "http://unitsofmeasure.org"
            }
          },
          {
            "high": {
              "value": 1.03,
              "code": "g/mL",
              "system": "http://unitsofmeasure.org"
            }
          }
        ],
        "interpretation": [
          {
            "coding": [
              {
                "code": "L",
                "system": "http://terminology.hl7.org/CodeSystem/v3-ObservationInterpretation",
                "display": "Low"
              }
            ]
          }
        ],
        "text": {
          "status": "generated",
          "div": "<div xmlns=\"http://www.w3.org/1999/xhtml\"><table class=\"hl7__eu__lab__report\"><tr><th>Test</th><th>12-Oct-2016</th><th>Reference&#xA0;Range</th><th>Unit</th></tr><tr><td>Specific gravity of Urine by Test strip</td><td>1.0</td><td>1.005 - 1.03</td><td>L</td><td>{nominal}</td></tr></table></div>"
        },
        "status": "final",
        "subject": {
          "reference": "urn:uuid:9022c749-c4ef-4c66-8b5c-6afad4dec851",
          "display": "Θεμιστοκλής Λιναρδάκη"
        },
        "effectiveDateTime": "2016-10-12T06:16:00Z",
        "specimen": {
          "reference": "urn:uuid:714ddb56-4476-4c81-9bcd-1744cfc05b09"
        }
      }
    },
    {
      "fullUrl": "urn:uuid:d84805e4-a22f-497d-9eaf-3728e99c3b96",
      "resource": {
        "resourceType": "Observation",
        "id": "d84805e4-a22f-497d-9eaf-3728e99c3b96",
        "meta": {
          "profile": [
            "http://hl7.eu/fhir/laboratory/StructureDefinition/Observation-resultslab-eu-lab"
          ]
        },
        "performer": [
          {
            "display": "The Central European Lab"
          }
        ],
        "category": [
          {
            "coding": [
              {
                "system": "http://terminology.hl7.org/CodeSystem/observation-category",
                "code": "laboratory"
              }
            ]
          }
        ],
        "code": {
          "coding": [
            {
              "code": "5803-2",
              "system": "http://loinc.org",
              "display": "pH of Urine by Test strip"
            }
          ],
          "text": "pH of Urine by Test strip"
        },
        "valueQuantity": {
          "system": "http://unitsofmeasure.org",
          "value": 5,
          "unit": "pH",
          "code": "pH"
        },
        "referenceRange": [
          {
            "low": {
              "value": 4.6,
              "code": "pH",
              "system": "http://unitsofmeasure.org"
            }
          },
          {
            "high": {
              "value": 7,
              "code": "pH",
              "system": "http://unitsofmeasure.org"
            }
          }
        ],
        "text": {
          "status": "generated",
          "div": "<div xmlns=\"http://www.w3.org/1999/xhtml\"><table class=\"hl7__eu__lab__report\"><tr><th>Test</th><th>12-Oct-2016</th><th>Reference&#xA0;Range</th><th>Unit</th></tr><tr><td>pH of Urine by Test strip</td><td>5.0</td><td>4.6 - 7</td><td></td><td>pH</td></tr></table></div>"
        },
        "status": "final",
        "subject": {
          "reference": "urn:uuid:9022c749-c4ef-4c66-8b5c-6afad4dec851",
          "display": "Θεμιστοκλής Λιναρδάκη"
        },
        "effectiveDateTime": "2016-10-12T06:16:00Z",
        "specimen": {
          "reference": "urn:uuid:714ddb56-4476-4c81-9bcd-1744cfc05b09"
        }
      }
    },
    {
      "fullUrl": "urn:uuid:b70b3671-e458-45d5-b27a-3b454da12142",
      "resource": {
        "resourceType": "Observation",
        "id": "b70b3671-e458-45d5-b27a-3b454da12142",
        "meta": {
          "profile": [
            "http://hl7.eu/fhir/laboratory/StructureDefinition/Observation-resultslab-eu-lab"
          ]
        },
        "performer": [
          {
            "display": "The Central European Lab"
          }
        ],
        "category": [
          {
            "coding": [
              {
                "system": "http://terminology.hl7.org/CodeSystem/observation-category",
                "code": "laboratory"
              }
            ]
          }
        ],
        "code": {
          "coding": [
            {
              "code": "5804-0",
              "system": "http://loinc.org",
              "display": "Protein [Mass/volume] in Urine by Test strip"
            }
          ],
          "text": "Protein [Mass/volume] in Urine by Test strip"
        },
        "valueQuantity": {
          "system": "http://unitsofmeasure.org",
          "value": 312.2,
          "unit": "mg/dL",
          "code": "mg/dL"
        },
        "referenceRange": [
          {
            "low": {
              "value": 0,
              "code": "mg/dL",
              "system": "http://unitsofmeasure.org"
            }
          },
          {
            "high": {
              "value": 150,
              "code": "mg/dL",
              "system": "http://unitsofmeasure.org"
            }
          }
        ],
        "interpretation": [
          {
            "coding": [
              {
                "code": "H",
                "system": "http://terminology.hl7.org/CodeSystem/v3-ObservationInterpretation",
                "display": "High"
              }
            ]
          }
        ],
        "text": {
          "status": "generated",
          "div": "<div xmlns=\"http://www.w3.org/1999/xhtml\"><table class=\"hl7__eu__lab__report\"><tr><th>Test</th><th>12-Oct-2016</th><th>Reference&#xA0;Range</th><th>Unit</th></tr><tr><td>Protein [Mass/volume] in Urine by Test strip</td><td>312.2</td><td>0 - 150</td><td>H</td><td>mg/dL</td></tr></table></div>"
        },
        "status": "final",
        "subject": {
          "reference": "urn:uuid:9022c749-c4ef-4c66-8b5c-6afad4dec851",
          "display": "Θεμιστοκλής Λιναρδάκη"
        },
        "effectiveDateTime": "2016-10-12T06:16:00Z",
        "specimen": {
          "reference": "urn:uuid:714ddb56-4476-4c81-9bcd-1744cfc05b09"
        }
      }
    },
    {
      "fullUrl": "urn:uuid:4a8032cd-78c2-4dab-8676-0f4a37579cbd",
      "resource": {
        "resourceType": "Observation",
        "id": "4a8032cd-78c2-4dab-8676-0f4a37579cbd",
        "meta": {
          "profile": [
            "http://hl7.eu/fhir/laboratory/StructureDefinition/Observation-resultslab-eu-lab"
          ]
        },
        "performer": [
          {
            "display": "The Central European Lab"
          }
        ],
        "category": [
          {
            "coding": [
              {
                "system": "http://terminology.hl7.org/CodeSystem/observation-category",
                "code": "laboratory"
              }
            ]
          }
        ],
        "code": {
          "coding": [
            {
              "code": "20454-5",
              "system": "http://loinc.org",
              "display": "Protein [Presence] in Urine by Test strip"
            }
          ],
          "text": "Protein [Presence] in Urine by Test strip"
        },
        "text": {
          "status": "generated",
          "div": "<div xmlns=\"http://www.w3.org/1999/xhtml\"><table class=\"hl7__eu__lab__report\"><tr><th>Test</th><th>12-Oct-2016</th><th>Reference&#xA0;Range</th><th>Unit</th></tr><tr><td>Protein [Presence] in Urine by Test strip</td></tr></table></div>"
        },
        "status": "final",
        "subject": {
          "reference": "urn:uuid:9022c749-c4ef-4c66-8b5c-6afad4dec851",
          "display": "Θεμιστοκλής Λιναρδάκη"
        },
        "effectiveDateTime": "2016-10-12T06:16:00Z",
        "specimen": {
          "reference": "urn:uuid:714ddb56-4476-4c81-9bcd-1744cfc05b09"
        }
      }
    },
    {
      "fullUrl": "urn:uuid:724d9d53-5925-4f95-bcb9-630dede15af3",
      "resource": {
        "resourceType": "Observation",
        "id": "724d9d53-5925-4f95-bcb9-630dede15af3",
        "meta": {
          "profile": [
            "http://hl7.eu/fhir/laboratory/StructureDefinition/Observation-resultslab-eu-lab"
          ]
        },
        "performer": [
          {
            "display": "The Central European Lab"
          }
        ],
        "category": [
          {
            "coding": [
              {
                "system": "http://terminology.hl7.org/CodeSystem/observation-category",
                "code": "laboratory"
              }
            ]
          }
        ],
        "code": {
          "coding": [
            {
              "code": "5802-4",
              "system": "http://loinc.org",
              "display": "Nitrite [Presence] in Urine by Test strip"
            }
          ],
          "text": "Nitrite [Presence] in Urine by Test strip"
        },
        "text": {
          "status": "generated",
          "div": "<div xmlns=\"http://www.w3.org/1999/xhtml\"><table class=\"hl7__eu__lab__report\"><tr><th>Test</th><th>12-Oct-2016</th><th>Reference&#xA0;Range</th><th>Unit</th></tr><tr><td>Nitrite [Presence] in Urine by Test strip</td></tr></table></div>"
        },
        "status": "final",
        "subject": {
          "reference": "urn:uuid:9022c749-c4ef-4c66-8b5c-6afad4dec851",
          "display": "Θεμιστοκλής Λιναρδάκη"
        },
        "effectiveDateTime": "2016-10-12T06:16:00Z",
        "specimen": {
          "reference": "urn:uuid:714ddb56-4476-4c81-9bcd-1744cfc05b09"
        }
      }
    },
    {
      "fullUrl": "urn:uuid:3c62c243-a8ef-4f25-85fe-d9767a638c67",
      "resource": {
        "resourceType": "Observation",
        "id": "3c62c243-a8ef-4f25-85fe-d9767a638c67",
        "meta": {
          "profile": [
            "http://hl7.eu/fhir/laboratory/StructureDefinition/Observation-resultslab-eu-lab"
          ]
        },
        "performer": [
          {
            "display": "The Central European Lab"
          }
        ],
        "category": [
          {
            "coding": [
              {
                "system": "http://terminology.hl7.org/CodeSystem/observation-category",
                "code": "laboratory"
              }
            ]
          }
        ],
        "code": {
          "coding": [
            {
              "code": "5794-3",
              "system": "http://loinc.org",
              "display": "Hemoglobin [Presence] in Urine by Test strip"
            }
          ],
          "text": "Hemoglobin [Presence] in Urine by Test strip"
        },
        "text": {
          "status": "generated",
          "div": "<div xmlns=\"http://www.w3.org/1999/xhtml\"><table class=\"hl7__eu__lab__report\"><tr><th>Test</th><th>12-Oct-2016</th><th>Reference&#xA0;Range</th><th>Unit</th></tr><tr><td>Hemoglobin [Presence] in Urine by Test strip</td></tr></table></div>"
        },
        "status": "final",
        "subject": {
          "reference": "urn:uuid:9022c749-c4ef-4c66-8b5c-6afad4dec851",
          "display": "Θεμιστοκλής Λιναρδάκη"
        },
        "effectiveDateTime": "2016-10-12T06:16:00Z",
        "specimen": {
          "reference": "urn:uuid:714ddb56-4476-4c81-9bcd-1744cfc05b09"
        }
      }
    },
    {
      "fullUrl": "urn:uuid:06afb77b-b42c-41c4-b867-b073b0ab5083",
      "resource": {
        "resourceType": "Observation",
        "id": "06afb77b-b42c-41c4-b867-b073b0ab5083",
        "meta": {
          "profile": [
            "http://hl7.eu/fhir/laboratory/StructureDefinition/Observation-resultslab-eu-lab"
          ]
        },
        "performer": [
          {
            "display": "The Central European Lab"
          }
        ],
        "category": [
          {
            "coding": [
              {
                "system": "http://terminology.hl7.org/CodeSystem/observation-category",
                "code": "laboratory"
              }
            ]
          }
        ],
        "code": {
          "coding": [
            {
              "code": "5799-2",
              "system": "http://loinc.org",
              "display": "Leukocyte esterase [Presence] in Urine by Test strip"
            }
          ],
          "text": "Leukocyte esterase [Presence] in Urine by Test strip"
        },
        "text": {
          "status": "generated",
          "div": "<div xmlns=\"http://www.w3.org/1999/xhtml\"><table class=\"hl7__eu__lab__report\"><tr><th>Test</th><th>12-Oct-2016</th><th>Reference&#xA0;Range</th><th>Unit</th></tr><tr><td>Leukocyte esterase [Presence] in Urine by Test strip</td></tr></table></div>"
        },
        "status": "final",
        "subject": {
          "reference": "urn:uuid:9022c749-c4ef-4c66-8b5c-6afad4dec851",
          "display": "Θεμιστοκλής Λιναρδάκη"
        },
        "effectiveDateTime": "2016-10-12T06:16:00Z",
        "specimen": {
          "reference": "urn:uuid:714ddb56-4476-4c81-9bcd-1744cfc05b09"
        }
      }
    },
    {
      "fullUrl": "urn:uuid:6b6e581c-1ca2-4d77-b29e-d6aa0fad3c96",
      "resource": {
        "resourceType": "Observation",
        "id": "6b6e581c-1ca2-4d77-b29e-d6aa0fad3c96",
        "meta": {
          "profile": [
            "http://hl7.eu/fhir/laboratory/StructureDefinition/Observation-resultslab-eu-lab"
          ]
        },
        "performer": [
          {
            "display": "The Central European Lab"
          }
        ],
        "category": [
          {
            "coding": [
              {
                "system": "http://terminology.hl7.org/CodeSystem/observation-category",
                "code": "laboratory"
              }
            ]
          }
        ],
        "code": {
          "coding": [
            {
              "code": "4548-4",
              "system": "http://loinc.org",
              "display": "Hemoglobin A1c/Hemoglobin.total in Blood"
            }
          ],
          "text": "Hemoglobin A1c/Hemoglobin.total in Blood"
        },
        "valueQuantity": {
          "system": "http://unitsofmeasure.org",
          "value": 3.2,
          "unit": "%",
          "code": "%"
        },
        "referenceRange": [
          {
            "low": {
              "value": 4.3,
              "code": "%",
              "system": "http://unitsofmeasure.org"
            }
          },
          {
            "high": {
              "value": 6.4,
              "code": "%",
              "system": "http://unitsofmeasure.org"
            }
          }
        ],
        "interpretation": [
          {
            "coding": [
              {
                "code": "L",
                "system": "http://terminology.hl7.org/CodeSystem/v3-ObservationInterpretation",
                "display": "Low"
              }
            ]
          }
        ],
        "text": {
          "status": "generated",
          "div": "<div xmlns=\"http://www.w3.org/1999/xhtml\"><table class=\"hl7__eu__lab__report\"><tr><th>Test</th><th>12-Oct-2016</th><th>Reference&#xA0;Range</th><th>Unit</th></tr><tr><td>Hemoglobin A1c/Hemoglobin.total in Blood</td><td>3.2</td><td>4.3 - 6.4</td><td>L</td><td>%</td></tr></table></div>"
        },
        "status": "final",
        "subject": {
          "reference": "urn:uuid:9022c749-c4ef-4c66-8b5c-6afad4dec851",
          "display": "Θεμιστοκλής Λιναρδάκη"
        },
        "effectiveDateTime": "2016-10-12T06:16:00Z",
        "specimen": {
          "reference": "urn:uuid:5085600e-2bc4-4744-9352-8ea374ed5789"
        }
      }
    },
    {
      "fullUrl": "urn:uuid:74e4f15a-573e-440e-b7c8-1a840241f761",
      "resource": {
        "resourceType": "Observation",
        "id": "74e4f15a-573e-440e-b7c8-1a840241f761",
        "meta": {
          "profile": [
            "http://hl7.eu/fhir/laboratory/StructureDefinition/Observation-resultslab-eu-lab"
          ]
        },
        "performer": [
          {
            "display": "The Central European Lab"
          }
        ],
        "category": [
          {
            "coding": [
              {
                "system": "http://terminology.hl7.org/CodeSystem/observation-category",
                "code": "laboratory"
              }
            ]
          }
        ],
        "code": {
          "coding": [
            {
              "code": "2339-0",
              "system": "http://loinc.org",
              "display": "Glucose [Mass/volume] in Blood"
            }
          ],
          "text": "Glucose [Mass/volume] in Blood"
        },
        "valueQuantity": {
          "system": "http://unitsofmeasure.org",
          "value": 91.2,
          "unit": "mg/dL",
          "code": "mg/dL"
        },
        "referenceRange": [
          {
            "low": {
              "value": 70,
              "code": "mg/dL",
              "system": "http://unitsofmeasure.org"
            }
          },
          {
            "high": {
              "value": 140,
              "code": "mg/dL",
              "system": "http://unitsofmeasure.org"
            }
          }
        ],
        "text": {
          "status": "generated",
          "div": "<div xmlns=\"http://www.w3.org/1999/xhtml\"><table class=\"hl7__eu__lab__report\"><tr><th>Test</th><th>12-Oct-2016</th><th>Reference&#xA0;Range</th><th>Unit</th></tr><tr><td>Glucose [Mass/volume] in Blood</td><td>91.2</td><td>70 - 140</td><td></td><td>mg/dL</td></tr></table></div>"
        },
        "status": "final",
        "subject": {
          "reference": "urn:uuid:9022c749-c4ef-4c66-8b5c-6afad4dec851",
          "display": "Θεμιστοκλής Λιναρδάκη"
        },
        "effectiveDateTime": "2016-10-12T06:16:00Z",
        "specimen": {
          "reference": "urn:uuid:5085600e-2bc4-4744-9352-8ea374ed5789"
        }
      }
    },
    {
      "fullUrl": "urn:uuid:906ce32d-3d54-49b0-b4e3-acaafa6f0257",
      "resource": {
        "resourceType": "Observation",
        "id": "906ce32d-3d54-49b0-b4e3-acaafa6f0257",
        "meta": {
          "profile": [
            "http://hl7.eu/fhir/laboratory/StructureDefinition/Observation-resultslab-eu-lab"
          ]
        },
        "performer": [
          {
            "display": "The Central European Lab"
          }
        ],
        "category": [
          {
            "coding": [
              {
                "system": "http://terminology.hl7.org/CodeSystem/observation-category",
                "code": "laboratory"
              }
            ]
          }
        ],
        "code": {
          "coding": [
            {
              "code": "6299-2",
              "system": "http://loinc.org",
              "display": "Urea nitrogen [Mass/volume] in Blood"
            }
          ],
          "text": "Urea nitrogen [Mass/volume] in Blood"
        },
        "valueQuantity": {
          "system": "http://unitsofmeasure.org",
          "value": 17.4,
          "unit": "mg/dL",
          "code": "mg/dL"
        },
        "referenceRange": [
          {
            "low": {
              "value": 7,
              "code": "mg/dL",
              "system": "http://unitsofmeasure.org"
            }
          },
          {
            "high": {
              "value": 20,
              "code": "mg/dL",
              "system": "http://unitsofmeasure.org"
            }
          }
        ],
        "text": {
          "status": "generated",
          "div": "<div xmlns=\"http://www.w3.org/1999/xhtml\"><table class=\"hl7__eu__lab__report\"><tr><th>Test</th><th>12-Oct-2016</th><th>Reference&#xA0;Range</th><th>Unit</th></tr><tr><td>Urea nitrogen [Mass/volume] in Blood</td><td>17.4</td><td>7 - 20</td><td></td><td>mg/dL</td></tr></table></div>"
        },
        "status": "final",
        "subject": {
          "reference": "urn:uuid:9022c749-c4ef-4c66-8b5c-6afad4dec851",
          "display": "Θεμιστοκλής Λιναρδάκη"
        },
        "effectiveDateTime": "2016-10-12T06:16:00Z",
        "specimen": {
          "reference": "urn:uuid:5085600e-2bc4-4744-9352-8ea374ed5789"
        }
      }
    },
    {
      "fullUrl": "urn:uuid:e96a88c7-b173-4249-b5b9-aa301e00677d",
      "resource": {
        "resourceType": "Observation",
        "id": "e96a88c7-b173-4249-b5b9-aa301e00677d",
        "meta": {
          "profile": [
            "http://hl7.eu/fhir/laboratory/StructureDefinition/Observation-resultslab-eu-lab"
          ]
        },
        "performer": [
          {
            "display": "The Central European Lab"
          }
        ],
        "category": [
          {
            "coding": [
              {
                "system": "http://terminology.hl7.org/CodeSystem/observation-category",
                "code": "laboratory"
              }
            ]
          }
        ],
        "code": {
          "coding": [
            {
              "code": "38483-4",
              "system": "http://loinc.org",
              "display": "Creatinine [Mass/volume] in Blood"
            }
          ],
          "text": "Creatinine [Mass/volume] in Blood"
        },
        "valueQuantity": {
          "system": "http://unitsofmeasure.org",
          "value": 3.5,
          "unit": "mg/dL",
          "code": "mg/dL"
        },
        "referenceRange": [
          {
            "low": {
              "value": 0.6,
              "code": "mg/dL",
              "system": "http://unitsofmeasure.org"
            }
          },
          {
            "high": {
              "value": 1.3,
              "code": "mg/dL",
              "system": "http://unitsofmeasure.org"
            }
          }
        ],
        "interpretation": [
          {
            "coding": [
              {
                "code": "H",
                "system": "http://terminology.hl7.org/CodeSystem/v3-ObservationInterpretation",
                "display": "High"
              }
            ]
          }
        ],
        "text": {
          "status": "generated",
          "div": "<div xmlns=\"http://www.w3.org/1999/xhtml\"><table class=\"hl7__eu__lab__report\"><tr><th>Test</th><th>12-Oct-2016</th><th>Reference&#xA0;Range</th><th>Unit</th></tr><tr><td>Creatinine [Mass/volume] in Blood</td><td>3.5</td><td>0.6 - 1.3</td><td>H</td><td>mg/dL</td></tr></table></div>"
        },
        "status": "final",
        "subject": {
          "reference": "urn:uuid:9022c749-c4ef-4c66-8b5c-6afad4dec851",
          "display": "Θεμιστοκλής Λιναρδάκη"
        },
        "effectiveDateTime": "2016-10-12T06:16:00Z",
        "specimen": {
          "reference": "urn:uuid:5085600e-2bc4-4744-9352-8ea374ed5789"
        }
      }
    },
    {
      "fullUrl": "urn:uuid:dc309055-8059-466e-9e89-208e83462db9",
      "resource": {
        "resourceType": "Observation",
        "id": "dc309055-8059-466e-9e89-208e83462db9",
        "meta": {
          "profile": [
            "http://hl7.eu/fhir/laboratory/StructureDefinition/Observation-resultslab-eu-lab"
          ]
        },
        "performer": [
          {
            "display": "The Central European Lab"
          }
        ],
        "category": [
          {
            "coding": [
              {
                "system": "http://terminology.hl7.org/CodeSystem/observation-category",
                "code": "laboratory"
              }
            ]
          }
        ],
        "code": {
          "coding": [
            {
              "code": "49765-1",
              "system": "http://loinc.org",
              "display": "Calcium [Mass/volume] in Blood"
            }
          ],
          "text": "Calcium [Mass/volume] in Blood"
        },
        "valueQuantity": {
          "system": "http://unitsofmeasure.org",
          "value": 9.5,
          "unit": "mg/dL",
          "code": "mg/dL"
        },
        "referenceRange": [
          {
            "low": {
              "value": 8.5,
              "code": "mg/dL",
              "system": "http://unitsofmeasure.org"
            }
          },
          {
            "high": {
              "value": 10.5,
              "code": "mg/dL",
              "system": "http://unitsofmeasure.org"
            }
          }
        ],
        "text": {
          "status": "generated",
          "div": "<div xmlns=\"http://www.w3.org/1999/xhtml\"><table class=\"hl7__eu__lab__report\"><tr><th>Test</th><th>12-Oct-2016</th><th>Reference&#xA0;Range</th><th>Unit</th></tr><tr><td>Calcium [Mass/volume] in Blood</td><td>9.5</td><td>8.5 - 10.5</td><td></td><td>mg/dL</td></tr></table></div>"
        },
        "status": "final",
        "subject": {
          "reference": "urn:uuid:9022c749-c4ef-4c66-8b5c-6afad4dec851",
          "display": "Θεμιστοκλής Λιναρδάκη"
        },
        "effectiveDateTime": "2016-10-12T06:16:00Z",
        "specimen": {
          "reference": "urn:uuid:5085600e-2bc4-4744-9352-8ea374ed5789"
        }
      }
    },
    {
      "fullUrl": "urn:uuid:7c6d2099-aa7b-4bba-b396-3703c6797877",
      "resource": {
        "resourceType": "Observation",
        "id": "7c6d2099-aa7b-4bba-b396-3703c6797877",
        "meta": {
          "profile": [
            "http://hl7.eu/fhir/laboratory/StructureDefinition/Observation-resultslab-eu-lab"
          ]
        },
        "performer": [
          {
            "display": "The Central European Lab"
          }
        ],
        "category": [
          {
            "coding": [
              {
                "system": "http://terminology.hl7.org/CodeSystem/observation-category",
                "code": "laboratory"
              }
            ]
          }
        ],
        "code": {
          "coding": [
            {
              "code": "2947-0",
              "system": "http://loinc.org",
              "display": "Sodium [Moles/volume] in Blood"
            }
          ],
          "text": "Sodium [Moles/volume] in Blood"
        },
        "valueQuantity": {
          "system": "http://unitsofmeasure.org",
          "value": 140.3,
          "unit": "mmol/L",
          "code": "mmol/L"
        },
        "referenceRange": [
          {
            "low": {
              "value": 135,
              "code": "mmol/L",
              "system": "http://unitsofmeasure.org"
            }
          },
          {
            "high": {
              "value": 145,
              "code": "mmol/L",
              "system": "http://unitsofmeasure.org"
            }
          }
        ],
        "text": {
          "status": "generated",
          "div": "<div xmlns=\"http://www.w3.org/1999/xhtml\"><table class=\"hl7__eu__lab__report\"><tr><th>Test</th><th>12-Oct-2016</th><th>Reference&#xA0;Range</th><th>Unit</th></tr><tr><td>Sodium [Moles/volume] in Blood</td><td>140.3</td><td>135 - 145</td><td></td><td>mmol/L</td></tr></table></div>"
        },
        "status": "final",
        "subject": {
          "reference": "urn:uuid:9022c749-c4ef-4c66-8b5c-6afad4dec851",
          "display": "Θεμιστοκλής Λιναρδάκη"
        },
        "effectiveDateTime": "2016-10-12T06:16:00Z",
        "specimen": {
          "reference": "urn:uuid:5085600e-2bc4-4744-9352-8ea374ed5789"
        }
      }
    },
    {
      "fullUrl": "urn:uuid:cb1d4492-b331-4e65-9942-bcb01f53e437",
      "resource": {
        "resourceType": "Observation",
        "id": "cb1d4492-b331-4e65-9942-bcb01f53e437",
        "meta": {
          "profile": [
            "http://hl7.eu/fhir/laboratory/StructureDefinition/Observation-resultslab-eu-lab"
          ]
        },
        "performer": [
          {
            "display": "The Central European Lab"
          }
        ],
        "category": [
          {
            "coding": [
              {
                "system": "http://terminology.hl7.org/CodeSystem/observation-category",
                "code": "laboratory"
              }
            ]
          }
        ],
        "code": {
          "coding": [
            {
              "code": "6298-4",
              "system": "http://loinc.org",
              "display": "Potassium [Moles/volume] in Blood"
            }
          ],
          "text": "Potassium [Moles/volume] in Blood"
        },
        "valueQuantity": {
          "system": "http://unitsofmeasure.org",
          "value": 3.8,
          "unit": "mmol/L",
          "code": "mmol/L"
        },
        "referenceRange": [
          {
            "low": {
              "value": 3.5,
              "code": "mmol/L",
              "system": "http://unitsofmeasure.org"
            }
          },
          {
            "high": {
              "value": 5.3,
              "code": "mmol/L",
              "system": "http://unitsofmeasure.org"
            }
          }
        ],
        "text": {
          "status": "generated",
          "div": "<div xmlns=\"http://www.w3.org/1999/xhtml\"><table class=\"hl7__eu__lab__report\"><tr><th>Test</th><th>12-Oct-2016</th><th>Reference&#xA0;Range</th><th>Unit</th></tr><tr><td>Potassium [Moles/volume] in Blood</td><td>3.8</td><td>3.5 - 5.3</td><td></td><td>mmol/L</td></tr></table></div>"
        },
        "status": "final",
        "subject": {
          "reference": "urn:uuid:9022c749-c4ef-4c66-8b5c-6afad4dec851",
          "display": "Θεμιστοκλής Λιναρδάκη"
        },
        "effectiveDateTime": "2016-10-12T06:16:00Z",
        "specimen": {
          "reference": "urn:uuid:5085600e-2bc4-4744-9352-8ea374ed5789"
        }
      }
    },
    {
      "fullUrl": "urn:uuid:aef99141-ffd6-4b97-9649-8871189b0783",
      "resource": {
        "resourceType": "Observation",
        "id": "aef99141-ffd6-4b97-9649-8871189b0783",
        "meta": {
          "profile": [
            "http://hl7.eu/fhir/laboratory/StructureDefinition/Observation-resultslab-eu-lab"
          ]
        },
        "performer": [
          {
            "display": "The Central European Lab"
          }
        ],
        "category": [
          {
            "coding": [
              {
                "system": "http://terminology.hl7.org/CodeSystem/observation-category",
                "code": "laboratory"
              }
            ]
          }
        ],
        "code": {
          "coding": [
            {
              "code": "2069-3",
              "system": "http://loinc.org",
              "display": "Chloride [Moles/volume] in Blood"
            }
          ],
          "text": "Chloride [Moles/volume] in Blood"
        },
        "valueQuantity": {
          "system": "http://unitsofmeasure.org",
          "value": 109.5,
          "unit": "mmol/L",
          "code": "mmol/L"
        },
        "referenceRange": [
          {
            "low": {
              "value": 98,
              "code": "mmol/L",
              "system": "http://unitsofmeasure.org"
            }
          },
          {
            "high": {
              "value": 110,
              "code": "mmol/L",
              "system": "http://unitsofmeasure.org"
            }
          }
        ],
        "text": {
          "status": "generated",
          "div": "<div xmlns=\"http://www.w3.org/1999/xhtml\"><table class=\"hl7__eu__lab__report\"><tr><th>Test</th><th>12-Oct-2016</th><th>Reference&#xA0;Range</th><th>Unit</th></tr><tr><td>Chloride [Moles/volume] in Blood</td><td>109.5</td><td>98 - 110</td><td></td><td>mmol/L</td></tr></table></div>"
        },
        "status": "final",
        "subject": {
          "reference": "urn:uuid:9022c749-c4ef-4c66-8b5c-6afad4dec851",
          "display": "Θεμιστοκλής Λιναρδάκη"
        },
        "effectiveDateTime": "2016-10-12T06:16:00Z",
        "specimen": {
          "reference": "urn:uuid:5085600e-2bc4-4744-9352-8ea374ed5789"
        }
      }
    },
    {
      "fullUrl": "urn:uuid:4f2cf02a-56a3-46c9-9169-036bdf15f26a",
      "resource": {
        "resourceType": "Observation",
        "id": "4f2cf02a-56a3-46c9-9169-036bdf15f26a",
        "meta": {
          "profile": [
            "http://hl7.eu/fhir/laboratory/StructureDefinition/Observation-resultslab-eu-lab"
          ]
        },
        "performer": [
          {
            "display": "The Central European Lab"
          }
        ],
        "category": [
          {
            "coding": [
              {
                "system": "http://terminology.hl7.org/CodeSystem/observation-category",
                "code": "laboratory"
              }
            ]
          }
        ],
        "code": {
          "coding": [
            {
              "code": "20565-8",
              "system": "http://loinc.org",
              "display": "Carbon dioxide, total [Moles/volume] in Blood"
            }
          ],
          "text": "Carbon dioxide, total [Moles/volume] in Blood"
        },
        "valueQuantity": {
          "system": "http://unitsofmeasure.org",
          "value": 21.2,
          "unit": "mmol/L",
          "code": "mmol/L"
        },
        "referenceRange": [
          {
            "low": {
              "value": 22,
              "code": "mmol/L",
              "system": "http://unitsofmeasure.org"
            }
          },
          {
            "high": {
              "value": 29,
              "code": "mmol/L",
              "system": "http://unitsofmeasure.org"
            }
          }
        ],
        "interpretation": [
          {
            "coding": [
              {
                "code": "L",
                "system": "http://terminology.hl7.org/CodeSystem/v3-ObservationInterpretation",
                "display": "Low"
              }
            ]
          }
        ],
        "text": {
          "status": "generated",
          "div": "<div xmlns=\"http://www.w3.org/1999/xhtml\"><table class=\"hl7__eu__lab__report\"><tr><th>Test</th><th>12-Oct-2016</th><th>Reference&#xA0;Range</th><th>Unit</th></tr><tr><td>Carbon dioxide, total [Moles/volume] in Blood</td><td>21.2</td><td>22 - 29</td><td>L</td><td>mmol/L</td></tr></table></div>"
        },
        "status": "final",
        "subject": {
          "reference": "urn:uuid:9022c749-c4ef-4c66-8b5c-6afad4dec851",
          "display": "Θεμιστοκλής Λιναρδάκη"
        },
        "effectiveDateTime": "2016-10-12T06:16:00Z",
        "specimen": {
          "reference": "urn:uuid:5085600e-2bc4-4744-9352-8ea374ed5789"
        }
      }
    },
    {
      "fullUrl": "urn:uuid:b7c81418-1921-4197-b7b1-2c6c0d82ba1c",
      "resource": {
        "resourceType": "Device",
        "id": "b7c81418-1921-4197-b7b1-2c6c0d82ba1c",
        "deviceName": [
          {
            "name": "SYNDERAI Synthetic Generator",
            "type": "manufacturer-name"
          }
        ],
        "version": [
          {
            "value": "5.0"
          }
        ],
        "text": {
          "status": "generated",
          "div": "<div xmlns=\"http://www.w3.org/1999/xhtml\">SYNDERAI Synthetic Generator v5.0</div>"
        },
        "status": "active\"",
        "distinctIdentifier": "synderai-generator-50",
        "manufacturer": "SYNDERAI Project"
      }
    },
    {
      "fullUrl": "urn:uuid:674ad27d-8437-4254-9301-5af996a24952",
      "resource": {
        "resourceType": "Provenance",
        "id": "674ad27d-8437-4254-9301-5af996a24952",
        "target": [
          {
            "reference": "Patient/9022c749-c4ef-4c66-8b5c-6afad4dec851"
          },
          {
            "reference": "Bundle/117afc4d-8e9e-4f52-804f-21c0e65fc2e8"
          },
          {
            "reference": "Composition/25d99b74-54b7-4f5b-b6b7-b55909e20727"
          },
          {
            "reference": "PractitionerRole/c3907023-8658-4f07-9d1c-6975409810d8"
          },
          {
            "reference": "Practitioner/f6b17ff1-7e11-4957-8605-b61f9dd57105"
          },
          {
            "reference": "PractitionerRole/a088eaff-e332-41ba-91da-8ac2a5a7f1a7"
          },
          {
            "reference": "Organization/da175ec7-767d-497f-91f5-474871aab1d9"
          }
        ],
        "activity": {
          "text": "Synthetic Example Data Generation"
        },
        "policy": [
          "https://synderai.net/synderai-synthetic-data-policy"
        ],
        "agent": [
          {
            "type": {
              "text": "author"
            },
            "who": {
              "reference": "Device/b7c81418-1921-4197-b7b1-2c6c0d82ba1c"
            }
          }
        ],
        "reason": [
          {
            "text": "Interoperability Testing and Training (non-clinical use)"
          }
        ],
        "text": {
          "status": "generated",
          "div": "<div xmlns=\"http://www.w3.org/1999/xhtml\">Provenance for SYNDERAI Synthetic Example Data Resource</div>"
        },
        "recorded": "2016-10-12T08:16:00Z"
      }
    },
    {
      "fullUrl": "urn:uuid:c3907023-8658-4f07-9d1c-6975409810d8",
      "resource": {
        "resourceType": "PractitionerRole",
        "id": "c3907023-8658-4f07-9d1c-6975409810d8",
        "meta": {
          "profile": [
            "http://hl7.eu/fhir/base/StructureDefinition/practitionerRole-eu"
          ]
        },
        "text": {
          "status": "generated",
          "div": "<div xmlns=\"http://www.w3.org/1999/xhtml\">Laboratory Role Id: c3907023-8658-4f07-9d1c-6975409810d8</div>"
        },
        "practitioner": {
          "reference": "urn:uuid:f6b17ff1-7e11-4957-8605-b61f9dd57105"
        }
      }
    },
    {
      "fullUrl": "urn:uuid:f6b17ff1-7e11-4957-8605-b61f9dd57105",
      "resource": {
        "resourceType": "Practitioner",
        "id": "f6b17ff1-7e11-4957-8605-b61f9dd57105",
        "meta": {
          "profile": [
            "http://hl7.eu/fhir/base/StructureDefinition/practitioner-eu"
          ]
        },
        "identifier": [
          {
            "assigner": {
              "display": "HL7 Europe"
            },
            "system": "urn:oid:2.16.840.1.113883.2.51.999",
            "value": "55f43bca-924f-4914-ac9e-86bb8f6b93b0"
          }
        ],
        "name": [
          {
            "prefix": [
              "dr"
            ],
            "given": [
              "Ex"
            ],
            "family": "Ample"
          }
        ],
        "address": [
          {
            "line": [
              "Laboratoire Central Européenne",
              "Boulevard du Jardin Botanique 32"
            ],
            "postalCode": "1000",
            "city": "Brussels",
            "country": "Belgium"
          }
        ],
        "text": {
          "status": "generated",
          "div": "<div xmlns=\"http://www.w3.org/1999/xhtml\">Laboratory: Laboratoire Central Européenne, 1000 Brussels, Belgium</div>"
        }
      }
    }
  ],
  "type": "document",
  "timestamp": "2016-10-12T08:16:00Z"
}
