{
  "resourceType": "Bundle",
  "id": "4b9f0b41-55b4-4410-a16f-adb2bccfffdc",
  "meta": {
    "profile": [
      "http://hl7.eu/fhir/laboratory/StructureDefinition/Bundle-eu-lab"
    ]
  },
  "identifier": {
    "assigner": {
      "display": "HL7 Europe"
    },
    "system": "urn:oid:2.16.840.1.113883.2.51.999",
    "value": "965e7c42-7e74-4a50-8133-772d72bd539e"
  },
  "entry": [
    {
      "fullUrl": "urn:uuid:61cb85ac-aa5b-4497-9676-5268aa8f662c",
      "resource": {
        "resourceType": "Composition",
        "id": "61cb85ac-aa5b-4497-9676-5268aa8f662c",
        "meta": {
          "profile": [
            "http://hl7.eu/fhir/laboratory/StructureDefinition/Composition-eu-lab"
          ]
        },
        "identifier": {
          "assigner": {
            "display": "HL7 Europe"
          },
          "system": "urn:oid:2.16.840.1.113883.2.51.999",
          "value": "ed1ca402-b881-489a-817c-09b0d0363c9b"
        },
        "author": [
          {
            "reference": "urn:uuid:c4b67759-d834-4bd7-8545-ce11ce0e0a13"
          }
        ],
        "category": [
          {
            "coding": [
              {
                "code": "26436-6",
                "system": "http://loinc.org",
                "display": "Laboratory studies (set)"
              }
            ]
          }
        ],
        "type": {
          "coding": [
            {
              "code": "11502-2",
              "system": "http://loinc.org",
              "display": "Laboratory report"
            }
          ],
          "text": "Laboratory Report"
        },
        "section": [
          {
            "code": {
              "coding": [
                {
                  "code": "26436-6",
                  "system": "http://loinc.org",
                  "display": "Laboratory studies (set)"
                }
              ],
              "text": "Laboratory studies"
            },
            "section": [
              {
                "code": {
                  "coding": [
                    {
                      "code": "$18719-5",
                      "system": "http://loinc.org",
                      "display": "Chemistry studies (set)"
                    }
                  ],
                  "text": "Chemistry"
                },
                "entry": [
                  {
                    "reference": "urn:uuid:be398f19-eaf8-45ed-89b3-5693d810e524"
                  },
                  {
                    "reference": "urn:uuid:02b65298-ffa3-43d7-901c-b5b38cc8382b"
                  },
                  {
                    "reference": "urn:uuid:7bd0e544-c17f-4bd4-8ea7-b7c439433c88"
                  },
                  {
                    "reference": "urn:uuid:8b1db883-4df1-4f3d-ae4b-2cebe8b2a87a"
                  },
                  {
                    "reference": "urn:uuid:cb000f7d-89d7-44fc-8601-c57db306b756"
                  },
                  {
                    "reference": "urn:uuid:0e02376b-5d27-4c23-8f75-8dd187ce0463"
                  },
                  {
                    "reference": "urn:uuid:00c9ab58-11e0-4a87-9764-aa5c77b88c3b"
                  },
                  {
                    "reference": "urn:uuid:c088085b-8e8b-481b-9267-e543c3c17763"
                  },
                  {
                    "reference": "urn:uuid:e51f6a26-4731-4eaf-904a-f8cdbb827031"
                  }
                ],
                "text": {
                  "status": "generated",
                  "div": "<div xmlns=\"http://www.w3.org/1999/xhtml\"><h3>Chemistry</h3><table class=\"hl7__eu__lab__report\"><thead><tr><th>Test</th><th>14-JUN-2023</th><th>Reference&#xA0;Range</th><th>Unit</th></tr></thead><tbody><tr><td>Hemoglobin A1c/Hemoglobin.total in Blood</td><td>5.9</td><td>4.5 - 6.4</td><td>%</td></tr><tr><td>Glucose [Mass/volume] in Blood</td><td>99.6</td><td>70 - 140</td><td>mg/dL</td></tr><tr><td>Urea nitrogen [Mass/volume] in Blood</td><td>12.1</td><td>7 - 20</td><td>mg/dL</td></tr><tr><td>Creatinine [Mass/volume] in Blood</td><td>0.8</td><td>0.6 - 1.1</td><td>mg/dL</td></tr><tr><td>Calcium [Mass/volume] in Blood</td><td>9.8</td><td>8.5 - 10.4</td><td>mg/dL</td></tr><tr><td>Sodium [Moles/volume] in Blood</td><td>140.6</td><td>135 - 145</td><td>mmol/L</td></tr><tr><td>Potassium [Moles/volume] in Blood</td><td>4.3</td><td>3.5 - 5.1</td><td>mmol/L</td></tr><tr><td>Chloride [Moles/volume] in Blood</td><td><strong>109.8 H</strong></td><td>98 - 107</td><td>mmol/L</td></tr><tr><td>Carbon dioxide, total [Moles/volume] in Blood</td><td>26.7</td><td>22 - 29</td><td>mmol/L</td></tr></tbody></table></div>"
                },
                "title": "Chemistry"
              }
            ],
            "title": "Laboratory Report"
          },
          {
            "text": {
              "status": "generated",
              "div": "<div xmlns=\"http://www.w3.org/1999/xhtml\"><h3>Annotation</h3><table class=\"hl7__eu__lab__report\"><tr><th>Conclusion and Recommendations based on this report and previous findings known to us</th></tr><tr><td>All laboratory values are within normal limits except for a mildly elevated chloride. Renal function, glucose control, and electrolytes are stable. The isolated mild hyperchloremia is likely not clinically significant but should be interpreted in the clinical context. No acute laboratory abnormalities detected.</td></tr></table></div>"
            },
            "code": {
              "coding": [
                {
                  "system": "http://loinc.org",
                  "code": "48767-8",
                  "display": "Annotation comment"
                }
              ]
            },
            "title": "Annotation comment"
          }
        ],
        "status": "final",
        "subject": {
          "reference": "urn:uuid:25335e9a-aefb-49ef-9575-b3f7cb07ae50",
          "display": "Magdolna Balog"
        },
        "date": "2023-06-14T15:34:16Z",
        "title": "Laboratory Report",
        "confidentiality": "N"
      }
    },
    {
      "fullUrl": "urn:uuid:7cf662d9-2802-44eb-b5b7-d632c15036c0",
      "resource": {
        "resourceType": "DiagnosticReport",
        "id": "7cf662d9-2802-44eb-b5b7-d632c15036c0",
        "meta": {
          "profile": [
            "http://hl7.eu/fhir/laboratory/StructureDefinition/DiagnosticReport-eu-lab"
          ]
        },
        "identifier": [
          {
            "assigner": {
              "display": "HL7 Europe"
            },
            "system": "urn:oid:2.16.840.1.113883.2.51.999",
            "value": "c59c2024-4874-46da-927c-02eace80648d"
          }
        ],
        "extension": [
          {
            "url": "http://hl7.org/fhir/5.0/StructureDefinition/extension-DiagnosticReport.composition",
            "valueReference": {
              "reference": "urn:uuid:ed1ca402-b881-489a-817c-09b0d0363c9b"
            }
          }
        ],
        "category": [
          {
            "coding": [
              {
                "code": "26436-6",
                "system": "http://loinc.org",
                "display": "Laboratory studies (set)"
              }
            ]
          }
        ],
        "specimen": [
          {
            "reference": "urn:uuid:60e1af14-8e3b-4e4b-99af-099f8f6d42a6"
          }
        ],
        "result": [
          {
            "reference": "urn:uuid:be398f19-eaf8-45ed-89b3-5693d810e524"
          },
          {
            "reference": "urn:uuid:02b65298-ffa3-43d7-901c-b5b38cc8382b"
          },
          {
            "reference": "urn:uuid:7bd0e544-c17f-4bd4-8ea7-b7c439433c88"
          },
          {
            "reference": "urn:uuid:8b1db883-4df1-4f3d-ae4b-2cebe8b2a87a"
          },
          {
            "reference": "urn:uuid:cb000f7d-89d7-44fc-8601-c57db306b756"
          },
          {
            "reference": "urn:uuid:0e02376b-5d27-4c23-8f75-8dd187ce0463"
          },
          {
            "reference": "urn:uuid:00c9ab58-11e0-4a87-9764-aa5c77b88c3b"
          },
          {
            "reference": "urn:uuid:c088085b-8e8b-481b-9267-e543c3c17763"
          },
          {
            "reference": "urn:uuid:e51f6a26-4731-4eaf-904a-f8cdbb827031"
          }
        ],
        "status": "registered",
        "code": {
          "coding": [
            {
              "code": "11502-2",
              "system": "http://loinc.org",
              "display": "Laboratory report"
            }
          ]
        },
        "subject": {
          "reference": "urn:uuid:25335e9a-aefb-49ef-9575-b3f7cb07ae50",
          "display": "Magdolna Balog"
        }
      }
    },
    {
      "fullUrl": "urn:uuid:25335e9a-aefb-49ef-9575-b3f7cb07ae50",
      "resource": {
        "resourceType": "Patient",
        "id": "25335e9a-aefb-49ef-9575-b3f7cb07ae50",
        "meta": {
          "security": [
            {
              "system": "http://terminology.hl7.org/CodeSystem/v3-ActReason",
              "code": "HTEST"
            },
            {
              "system": "http://terminology.hl7.org/CodeSystem/v3-ActReason",
              "code": "TRAIN"
            }
          ],
          "tag": [
            {
              "system": "https://synderai.net/fhir/CodeSystem/tags",
              "code": "synthetic",
              "display": "SYNDERAI Synthetic data"
            }
          ],
          "profile": [
            "http://hl7.eu/fhir/base/StructureDefinition/patient-eu-core"
          ]
        },
        "identifier": [
          {
            "type": {
              "coding": [
                {
                  "code": "PT",
                  "system": "http://terminology.hl7.org/CodeSystem/v2-0203"
                }
              ]
            },
            "system": "http://ec.europa.eu/identifier/eci",
            "value": "2437-386280-4"
          },
          {
            "type": {
              "coding": [
                {
                  "code": "MR",
                  "system": "http://terminology.hl7.org/CodeSystem/v2-0203"
                }
              ]
            },
            "system": "http://local.setting.eu/identifier",
            "value": "1d8dc8c5-3a85-b1b5-4101-cca776d0be28"
          }
        ],
        "name": [
          {
            "family": "Balog"
          },
          {
            "given": [
              "Magdolna"
            ]
          },
          {
            "text": "Magdolna Balog"
          }
        ],
        "address": [
          {
            "line": [
              "Ady endre utca 160."
            ],
            "use": "home",
            "type": "physical",
            "postalCode": "3989",
            "city": "Némethídfa",
            "country": "Hungary"
          }
        ],
        "telecom": [
          {
            "system": "phone",
            "value": "+36 46 091-2914"
          }
        ],
        "extension": [
          {
            "url": "http://hl7.org/fhir/StructureDefinition/patient-nationality",
            "valueCodeableConcept": {
              "coding": [
                {
                  "code": "HU",
                  "system": "http://hl7.org/fhir/ValueSet/country"
                }
              ]
            }
          }
        ],
        "text": {
          "status": "generated",
          "div": "<div xmlns=\"http://www.w3.org/1999/xhtml\"><table class=\"hl7__ips\"><tr><td>Magdolna Balog</td><td>female</td><td>21-May-1946</td></tr></table></div>"
        },
        "gender": "female",
        "birthDate": "1946-05-21"
      }
    },
    {
      "fullUrl": "urn:uuid:306eb78b-830d-4ef9-85ba-fa4c1b1a5415",
      "resource": {
        "resourceType": "ServiceRequest",
        "id": "306eb78b-830d-4ef9-85ba-fa4c1b1a5415",
        "meta": {
          "profile": [
            "http://hl7.eu/fhir/laboratory/StructureDefinition/ServiceRequest-eu-lab"
          ]
        },
        "identifier": [
          {
            "system": "http://example.org",
            "value": "4ec7d472-6c62-490b-ba12-efa3cd364f41"
          }
        ],
        "specimen": [
          {
            "reference": "urn:uuid:60e1af14-8e3b-4e4b-99af-099f8f6d42a6"
          }
        ],
        "reasonCode": [
          {
            "coding": [
              {
                "code": "26929004",
                "system": "http://snomed.info/sct",
                "display": "Alzheimer&#039;s disease"
              }
            ]
          },
          {
            "coding": [
              {
                "code": "414545008",
                "system": "http://snomed.info/sct",
                "display": "Ischemic heart disease"
              }
            ]
          },
          {
            "coding": [
              {
                "code": "49436004",
                "system": "http://snomed.info/sct",
                "display": "Atrial fibrillation"
              }
            ]
          },
          {
            "coding": [
              {
                "code": "64859006",
                "system": "http://snomed.info/sct",
                "display": "Osteoporosis"
              }
            ]
          },
          {
            "coding": [
              {
                "code": "15777000",
                "system": "http://snomed.info/sct",
                "display": "Prediabetes"
              }
            ]
          },
          {
            "coding": [
              {
                "code": "271737000",
                "system": "http://snomed.info/sct",
                "display": "Anemia"
              }
            ]
          }
        ],
        "status": "active",
        "intent": "order",
        "code": {
          "coding": [
            {
              "code": "108252007",
              "system": "http://snomed.info/sct",
              "display": "Laboratory procedure"
            }
          ]
        },
        "subject": {
          "reference": "urn:uuid:25335e9a-aefb-49ef-9575-b3f7cb07ae50",
          "display": "Magdolna Balog"
        },
        "requester": {
          "reference": "urn:uuid:a5594587-f6d1-4f92-8bcf-376ee858ff53"
        }
      }
    },
    {
      "fullUrl": "urn:uuid:a5594587-f6d1-4f92-8bcf-376ee858ff53",
      "resource": {
        "resourceType": "PractitionerRole",
        "id": "a5594587-f6d1-4f92-8bcf-376ee858ff53",
        "meta": {
          "profile": [
            "http://hl7.eu/fhir/base/StructureDefinition/practitionerRole-eu"
          ]
        },
        "text": {
          "status": "generated",
          "div": "<div xmlns=\"http://www.w3.org/1999/xhtml\">Provider Role Id: a5594587-f6d1-4f92-8bcf-376ee858ff53</div>"
        },
        "organization": {
          "reference": "urn:uuid:6e682b01-0d48-4a7b-959c-b81f1d71849b"
        }
      }
    },
    {
      "fullUrl": "urn:uuid:6e682b01-0d48-4a7b-959c-b81f1d71849b",
      "resource": {
        "resourceType": "Organization",
        "id": "6e682b01-0d48-4a7b-959c-b81f1d71849b",
        "meta": {
          "profile": [
            "http://hl7.eu/fhir/base/StructureDefinition/organization-eu"
          ]
        },
        "identifier": [
          {
            "assigner": {
              "display": "HL7 Europe"
            },
            "system": "urn:oid:2.16.840.1.113883.2.51.999",
            "value": "6e6d8de2-351d-43ca-b529-26767b00b61b"
          }
        ],
        "address": [
          {
            "line": [
              "Csabai kapu 9-11"
            ],
            "city": "Miskolc",
            "postalCode": "3529",
            "country": "Hungary"
          }
        ],
        "text": {
          "status": "generated",
          "div": "<div xmlns=\"http://www.w3.org/1999/xhtml\">Provider Organization: Semmelweis Ignác Egészségügyi Központ és Egyetemi Oktató Kórház</div>"
        },
        "name": "Semmelweis Ignác Egészségügyi Központ és Egyetemi Oktató Kórház"
      }
    },
    {
      "fullUrl": "urn:uuid:60e1af14-8e3b-4e4b-99af-099f8f6d42a6",
      "resource": {
        "resourceType": "Specimen",
        "id": "60e1af14-8e3b-4e4b-99af-099f8f6d42a6",
        "meta": {
          "profile": [
            "http://hl7.eu/fhir/laboratory/StructureDefinition/Specimen-eu-lab"
          ]
        },
        "collection": {
          "collectedDateTime": "2023-06-14"
        },
        "text": {
          "status": "generated",
          "div": "<div xmlns=\"http://www.w3.org/1999/xhtml\"><table class=\"hl7__eu__lab__report\"><tr><th>Specimen</th><th>Collection Date</th></tr><tr><td>Whole blood specimen (specimen)</td><td><span class=\"nb\">14-Jun-2023</span></td></tr></table></div>"
        },
        "type": {
          "coding": [
            {
              "code": "258580003",
              "system": "http://snomed.info/sct",
              "display": "Whole blood specimen (specimen)"
            }
          ]
        }
      }
    },
    {
      "fullUrl": "urn:uuid:be398f19-eaf8-45ed-89b3-5693d810e524",
      "resource": {
        "resourceType": "Observation",
        "id": "be398f19-eaf8-45ed-89b3-5693d810e524",
        "meta": {
          "profile": [
            "http://hl7.eu/fhir/laboratory/StructureDefinition/Observation-resultslab-eu-lab"
          ]
        },
        "performer": [
          {
            "display": "The Central European Lab"
          }
        ],
        "category": [
          {
            "coding": [
              {
                "system": "http://terminology.hl7.org/CodeSystem/observation-category",
                "code": "laboratory"
              }
            ]
          }
        ],
        "code": {
          "coding": [
            {
              "code": "4548-4",
              "system": "http://loinc.org",
              "display": "Hemoglobin A1c/Hemoglobin.total in Blood"
            }
          ],
          "text": "Hemoglobin A1c/Hemoglobin.total in Blood"
        },
        "valueQuantity": {
          "system": "http://unitsofmeasure.org",
          "value": 5.9,
          "unit": "%",
          "code": "%"
        },
        "referenceRange": [
          {
            "low": {
              "value": 4.5,
              "code": "%",
              "system": "http://unitsofmeasure.org"
            }
          },
          {
            "high": {
              "value": 6.4,
              "code": "%",
              "system": "http://unitsofmeasure.org"
            }
          }
        ],
        "text": {
          "status": "generated",
          "div": "<div xmlns=\"http://www.w3.org/1999/xhtml\"><table class=\"hl7__eu__lab__report\"><tr><th>Test</th><th>14-Jun-2023</th><th>Reference&#xA0;Range</th><th>Unit</th></tr><tr><td>Hemoglobin A1c/Hemoglobin.total in Blood</td><td>5.9</td><td>4.5 - 6.4</td><td></td><td>%</td></tr></table></div>"
        },
        "status": "final",
        "subject": {
          "reference": "urn:uuid:25335e9a-aefb-49ef-9575-b3f7cb07ae50",
          "display": "Magdolna Balog"
        },
        "effectiveDateTime": "2023-06-14T13:34:16Z",
        "specimen": {
          "reference": "urn:uuid:60e1af14-8e3b-4e4b-99af-099f8f6d42a6"
        }
      }
    },
    {
      "fullUrl": "urn:uuid:02b65298-ffa3-43d7-901c-b5b38cc8382b",
      "resource": {
        "resourceType": "Observation",
        "id": "02b65298-ffa3-43d7-901c-b5b38cc8382b",
        "meta": {
          "profile": [
            "http://hl7.eu/fhir/laboratory/StructureDefinition/Observation-resultslab-eu-lab"
          ]
        },
        "performer": [
          {
            "display": "The Central European Lab"
          }
        ],
        "category": [
          {
            "coding": [
              {
                "system": "http://terminology.hl7.org/CodeSystem/observation-category",
                "code": "laboratory"
              }
            ]
          }
        ],
        "code": {
          "coding": [
            {
              "code": "2339-0",
              "system": "http://loinc.org",
              "display": "Glucose [Mass/volume] in Blood"
            }
          ],
          "text": "Glucose [Mass/volume] in Blood"
        },
        "valueQuantity": {
          "system": "http://unitsofmeasure.org",
          "value": 99.6,
          "unit": "mg/dL",
          "code": "mg/dL"
        },
        "referenceRange": [
          {
            "low": {
              "value": 70,
              "code": "mg/dL",
              "system": "http://unitsofmeasure.org"
            }
          },
          {
            "high": {
              "value": 140,
              "code": "mg/dL",
              "system": "http://unitsofmeasure.org"
            }
          }
        ],
        "text": {
          "status": "generated",
          "div": "<div xmlns=\"http://www.w3.org/1999/xhtml\"><table class=\"hl7__eu__lab__report\"><tr><th>Test</th><th>14-Jun-2023</th><th>Reference&#xA0;Range</th><th>Unit</th></tr><tr><td>Glucose [Mass/volume] in Blood</td><td>99.6</td><td>70 - 140</td><td></td><td>mg/dL</td></tr></table></div>"
        },
        "status": "final",
        "subject": {
          "reference": "urn:uuid:25335e9a-aefb-49ef-9575-b3f7cb07ae50",
          "display": "Magdolna Balog"
        },
        "effectiveDateTime": "2023-06-14T13:34:16Z",
        "specimen": {
          "reference": "urn:uuid:60e1af14-8e3b-4e4b-99af-099f8f6d42a6"
        }
      }
    },
    {
      "fullUrl": "urn:uuid:7bd0e544-c17f-4bd4-8ea7-b7c439433c88",
      "resource": {
        "resourceType": "Observation",
        "id": "7bd0e544-c17f-4bd4-8ea7-b7c439433c88",
        "meta": {
          "profile": [
            "http://hl7.eu/fhir/laboratory/StructureDefinition/Observation-resultslab-eu-lab"
          ]
        },
        "performer": [
          {
            "display": "The Central European Lab"
          }
        ],
        "category": [
          {
            "coding": [
              {
                "system": "http://terminology.hl7.org/CodeSystem/observation-category",
                "code": "laboratory"
              }
            ]
          }
        ],
        "code": {
          "coding": [
            {
              "code": "6299-2",
              "system": "http://loinc.org",
              "display": "Urea nitrogen [Mass/volume] in Blood"
            }
          ],
          "text": "Urea nitrogen [Mass/volume] in Blood"
        },
        "valueQuantity": {
          "system": "http://unitsofmeasure.org",
          "value": 12.1,
          "unit": "mg/dL",
          "code": "mg/dL"
        },
        "referenceRange": [
          {
            "low": {
              "value": 7,
              "code": "mg/dL",
              "system": "http://unitsofmeasure.org"
            }
          },
          {
            "high": {
              "value": 20,
              "code": "mg/dL",
              "system": "http://unitsofmeasure.org"
            }
          }
        ],
        "text": {
          "status": "generated",
          "div": "<div xmlns=\"http://www.w3.org/1999/xhtml\"><table class=\"hl7__eu__lab__report\"><tr><th>Test</th><th>14-Jun-2023</th><th>Reference&#xA0;Range</th><th>Unit</th></tr><tr><td>Urea nitrogen [Mass/volume] in Blood</td><td>12.1</td><td>7 - 20</td><td></td><td>mg/dL</td></tr></table></div>"
        },
        "status": "final",
        "subject": {
          "reference": "urn:uuid:25335e9a-aefb-49ef-9575-b3f7cb07ae50",
          "display": "Magdolna Balog"
        },
        "effectiveDateTime": "2023-06-14T13:34:16Z",
        "specimen": {
          "reference": "urn:uuid:60e1af14-8e3b-4e4b-99af-099f8f6d42a6"
        }
      }
    },
    {
      "fullUrl": "urn:uuid:8b1db883-4df1-4f3d-ae4b-2cebe8b2a87a",
      "resource": {
        "resourceType": "Observation",
        "id": "8b1db883-4df1-4f3d-ae4b-2cebe8b2a87a",
        "meta": {
          "profile": [
            "http://hl7.eu/fhir/laboratory/StructureDefinition/Observation-resultslab-eu-lab"
          ]
        },
        "performer": [
          {
            "display": "The Central European Lab"
          }
        ],
        "category": [
          {
            "coding": [
              {
                "system": "http://terminology.hl7.org/CodeSystem/observation-category",
                "code": "laboratory"
              }
            ]
          }
        ],
        "code": {
          "coding": [
            {
              "code": "38483-4",
              "system": "http://loinc.org",
              "display": "Creatinine [Mass/volume] in Blood"
            }
          ],
          "text": "Creatinine [Mass/volume] in Blood"
        },
        "valueQuantity": {
          "system": "http://unitsofmeasure.org",
          "value": 0.8,
          "unit": "mg/dL",
          "code": "mg/dL"
        },
        "referenceRange": [
          {
            "low": {
              "value": 0.6,
              "code": "mg/dL",
              "system": "http://unitsofmeasure.org"
            }
          },
          {
            "high": {
              "value": 1.1,
              "code": "mg/dL",
              "system": "http://unitsofmeasure.org"
            }
          }
        ],
        "text": {
          "status": "generated",
          "div": "<div xmlns=\"http://www.w3.org/1999/xhtml\"><table class=\"hl7__eu__lab__report\"><tr><th>Test</th><th>14-Jun-2023</th><th>Reference&#xA0;Range</th><th>Unit</th></tr><tr><td>Creatinine [Mass/volume] in Blood</td><td>0.8</td><td>0.6 - 1.1</td><td></td><td>mg/dL</td></tr></table></div>"
        },
        "status": "final",
        "subject": {
          "reference": "urn:uuid:25335e9a-aefb-49ef-9575-b3f7cb07ae50",
          "display": "Magdolna Balog"
        },
        "effectiveDateTime": "2023-06-14T13:34:16Z",
        "specimen": {
          "reference": "urn:uuid:60e1af14-8e3b-4e4b-99af-099f8f6d42a6"
        }
      }
    },
    {
      "fullUrl": "urn:uuid:cb000f7d-89d7-44fc-8601-c57db306b756",
      "resource": {
        "resourceType": "Observation",
        "id": "cb000f7d-89d7-44fc-8601-c57db306b756",
        "meta": {
          "profile": [
            "http://hl7.eu/fhir/laboratory/StructureDefinition/Observation-resultslab-eu-lab"
          ]
        },
        "performer": [
          {
            "display": "The Central European Lab"
          }
        ],
        "category": [
          {
            "coding": [
              {
                "system": "http://terminology.hl7.org/CodeSystem/observation-category",
                "code": "laboratory"
              }
            ]
          }
        ],
        "code": {
          "coding": [
            {
              "code": "49765-1",
              "system": "http://loinc.org",
              "display": "Calcium [Mass/volume] in Blood"
            }
          ],
          "text": "Calcium [Mass/volume] in Blood"
        },
        "valueQuantity": {
          "system": "http://unitsofmeasure.org",
          "value": 9.8,
          "unit": "mg/dL",
          "code": "mg/dL"
        },
        "referenceRange": [
          {
            "low": {
              "value": 8.5,
              "code": "mg/dL",
              "system": "http://unitsofmeasure.org"
            }
          },
          {
            "high": {
              "value": 10.4,
              "code": "mg/dL",
              "system": "http://unitsofmeasure.org"
            }
          }
        ],
        "text": {
          "status": "generated",
          "div": "<div xmlns=\"http://www.w3.org/1999/xhtml\"><table class=\"hl7__eu__lab__report\"><tr><th>Test</th><th>14-Jun-2023</th><th>Reference&#xA0;Range</th><th>Unit</th></tr><tr><td>Calcium [Mass/volume] in Blood</td><td>9.8</td><td>8.5 - 10.4</td><td></td><td>mg/dL</td></tr></table></div>"
        },
        "status": "final",
        "subject": {
          "reference": "urn:uuid:25335e9a-aefb-49ef-9575-b3f7cb07ae50",
          "display": "Magdolna Balog"
        },
        "effectiveDateTime": "2023-06-14T13:34:16Z",
        "specimen": {
          "reference": "urn:uuid:60e1af14-8e3b-4e4b-99af-099f8f6d42a6"
        }
      }
    },
    {
      "fullUrl": "urn:uuid:0e02376b-5d27-4c23-8f75-8dd187ce0463",
      "resource": {
        "resourceType": "Observation",
        "id": "0e02376b-5d27-4c23-8f75-8dd187ce0463",
        "meta": {
          "profile": [
            "http://hl7.eu/fhir/laboratory/StructureDefinition/Observation-resultslab-eu-lab"
          ]
        },
        "performer": [
          {
            "display": "The Central European Lab"
          }
        ],
        "category": [
          {
            "coding": [
              {
                "system": "http://terminology.hl7.org/CodeSystem/observation-category",
                "code": "laboratory"
              }
            ]
          }
        ],
        "code": {
          "coding": [
            {
              "code": "2947-0",
              "system": "http://loinc.org",
              "display": "Sodium [Moles/volume] in Blood"
            }
          ],
          "text": "Sodium [Moles/volume] in Blood"
        },
        "valueQuantity": {
          "system": "http://unitsofmeasure.org",
          "value": 140.6,
          "unit": "mmol/L",
          "code": "mmol/L"
        },
        "referenceRange": [
          {
            "low": {
              "value": 135,
              "code": "mmol/L",
              "system": "http://unitsofmeasure.org"
            }
          },
          {
            "high": {
              "value": 145,
              "code": "mmol/L",
              "system": "http://unitsofmeasure.org"
            }
          }
        ],
        "text": {
          "status": "generated",
          "div": "<div xmlns=\"http://www.w3.org/1999/xhtml\"><table class=\"hl7__eu__lab__report\"><tr><th>Test</th><th>14-Jun-2023</th><th>Reference&#xA0;Range</th><th>Unit</th></tr><tr><td>Sodium [Moles/volume] in Blood</td><td>140.6</td><td>135 - 145</td><td></td><td>mmol/L</td></tr></table></div>"
        },
        "status": "final",
        "subject": {
          "reference": "urn:uuid:25335e9a-aefb-49ef-9575-b3f7cb07ae50",
          "display": "Magdolna Balog"
        },
        "effectiveDateTime": "2023-06-14T13:34:16Z",
        "specimen": {
          "reference": "urn:uuid:60e1af14-8e3b-4e4b-99af-099f8f6d42a6"
        }
      }
    },
    {
      "fullUrl": "urn:uuid:00c9ab58-11e0-4a87-9764-aa5c77b88c3b",
      "resource": {
        "resourceType": "Observation",
        "id": "00c9ab58-11e0-4a87-9764-aa5c77b88c3b",
        "meta": {
          "profile": [
            "http://hl7.eu/fhir/laboratory/StructureDefinition/Observation-resultslab-eu-lab"
          ]
        },
        "performer": [
          {
            "display": "The Central European Lab"
          }
        ],
        "category": [
          {
            "coding": [
              {
                "system": "http://terminology.hl7.org/CodeSystem/observation-category",
                "code": "laboratory"
              }
            ]
          }
        ],
        "code": {
          "coding": [
            {
              "code": "6298-4",
              "system": "http://loinc.org",
              "display": "Potassium [Moles/volume] in Blood"
            }
          ],
          "text": "Potassium [Moles/volume] in Blood"
        },
        "valueQuantity": {
          "system": "http://unitsofmeasure.org",
          "value": 4.3,
          "unit": "mmol/L",
          "code": "mmol/L"
        },
        "referenceRange": [
          {
            "low": {
              "value": 3.5,
              "code": "mmol/L",
              "system": "http://unitsofmeasure.org"
            }
          },
          {
            "high": {
              "value": 5.1,
              "code": "mmol/L",
              "system": "http://unitsofmeasure.org"
            }
          }
        ],
        "text": {
          "status": "generated",
          "div": "<div xmlns=\"http://www.w3.org/1999/xhtml\"><table class=\"hl7__eu__lab__report\"><tr><th>Test</th><th>14-Jun-2023</th><th>Reference&#xA0;Range</th><th>Unit</th></tr><tr><td>Potassium [Moles/volume] in Blood</td><td>4.3</td><td>3.5 - 5.1</td><td></td><td>mmol/L</td></tr></table></div>"
        },
        "status": "final",
        "subject": {
          "reference": "urn:uuid:25335e9a-aefb-49ef-9575-b3f7cb07ae50",
          "display": "Magdolna Balog"
        },
        "effectiveDateTime": "2023-06-14T13:34:16Z",
        "specimen": {
          "reference": "urn:uuid:60e1af14-8e3b-4e4b-99af-099f8f6d42a6"
        }
      }
    },
    {
      "fullUrl": "urn:uuid:c088085b-8e8b-481b-9267-e543c3c17763",
      "resource": {
        "resourceType": "Observation",
        "id": "c088085b-8e8b-481b-9267-e543c3c17763",
        "meta": {
          "profile": [
            "http://hl7.eu/fhir/laboratory/StructureDefinition/Observation-resultslab-eu-lab"
          ]
        },
        "performer": [
          {
            "display": "The Central European Lab"
          }
        ],
        "category": [
          {
            "coding": [
              {
                "system": "http://terminology.hl7.org/CodeSystem/observation-category",
                "code": "laboratory"
              }
            ]
          }
        ],
        "code": {
          "coding": [
            {
              "code": "2069-3",
              "system": "http://loinc.org",
              "display": "Chloride [Moles/volume] in Blood"
            }
          ],
          "text": "Chloride [Moles/volume] in Blood"
        },
        "valueQuantity": {
          "system": "http://unitsofmeasure.org",
          "value": 109.8,
          "unit": "mmol/L",
          "code": "mmol/L"
        },
        "referenceRange": [
          {
            "low": {
              "value": 98,
              "code": "mmol/L",
              "system": "http://unitsofmeasure.org"
            }
          },
          {
            "high": {
              "value": 107,
              "code": "mmol/L",
              "system": "http://unitsofmeasure.org"
            }
          }
        ],
        "interpretation": [
          {
            "coding": [
              {
                "code": "H",
                "system": "http://terminology.hl7.org/CodeSystem/v3-ObservationInterpretation",
                "display": "High"
              }
            ]
          }
        ],
        "text": {
          "status": "generated",
          "div": "<div xmlns=\"http://www.w3.org/1999/xhtml\"><table class=\"hl7__eu__lab__report\"><tr><th>Test</th><th>14-Jun-2023</th><th>Reference&#xA0;Range</th><th>Unit</th></tr><tr><td>Chloride [Moles/volume] in Blood</td><td>109.8</td><td>98 - 107</td><td>H</td><td>mmol/L</td></tr></table></div>"
        },
        "status": "final",
        "subject": {
          "reference": "urn:uuid:25335e9a-aefb-49ef-9575-b3f7cb07ae50",
          "display": "Magdolna Balog"
        },
        "effectiveDateTime": "2023-06-14T13:34:16Z",
        "specimen": {
          "reference": "urn:uuid:60e1af14-8e3b-4e4b-99af-099f8f6d42a6"
        }
      }
    },
    {
      "fullUrl": "urn:uuid:e51f6a26-4731-4eaf-904a-f8cdbb827031",
      "resource": {
        "resourceType": "Observation",
        "id": "e51f6a26-4731-4eaf-904a-f8cdbb827031",
        "meta": {
          "profile": [
            "http://hl7.eu/fhir/laboratory/StructureDefinition/Observation-resultslab-eu-lab"
          ]
        },
        "performer": [
          {
            "display": "The Central European Lab"
          }
        ],
        "category": [
          {
            "coding": [
              {
                "system": "http://terminology.hl7.org/CodeSystem/observation-category",
                "code": "laboratory"
              }
            ]
          }
        ],
        "code": {
          "coding": [
            {
              "code": "20565-8",
              "system": "http://loinc.org",
              "display": "Carbon dioxide, total [Moles/volume] in Blood"
            }
          ],
          "text": "Carbon dioxide, total [Moles/volume] in Blood"
        },
        "valueQuantity": {
          "system": "http://unitsofmeasure.org",
          "value": 26.7,
          "unit": "mmol/L",
          "code": "mmol/L"
        },
        "referenceRange": [
          {
            "low": {
              "value": 22,
              "code": "mmol/L",
              "system": "http://unitsofmeasure.org"
            }
          },
          {
            "high": {
              "value": 29,
              "code": "mmol/L",
              "system": "http://unitsofmeasure.org"
            }
          }
        ],
        "text": {
          "status": "generated",
          "div": "<div xmlns=\"http://www.w3.org/1999/xhtml\"><table class=\"hl7__eu__lab__report\"><tr><th>Test</th><th>14-Jun-2023</th><th>Reference&#xA0;Range</th><th>Unit</th></tr><tr><td>Carbon dioxide, total [Moles/volume] in Blood</td><td>26.7</td><td>22 - 29</td><td></td><td>mmol/L</td></tr></table></div>"
        },
        "status": "final",
        "subject": {
          "reference": "urn:uuid:25335e9a-aefb-49ef-9575-b3f7cb07ae50",
          "display": "Magdolna Balog"
        },
        "effectiveDateTime": "2023-06-14T13:34:16Z",
        "specimen": {
          "reference": "urn:uuid:60e1af14-8e3b-4e4b-99af-099f8f6d42a6"
        }
      }
    },
    {
      "fullUrl": "urn:uuid:6a9a67c5-6d31-4261-9b28-61d5d11c8183",
      "resource": {
        "resourceType": "Device",
        "id": "6a9a67c5-6d31-4261-9b28-61d5d11c8183",
        "deviceName": [
          {
            "name": "SYNDERAI Synthetic Generator",
            "type": "manufacturer-name"
          }
        ],
        "version": [
          {
            "value": "5.0"
          }
        ],
        "text": {
          "status": "generated",
          "div": "<div xmlns=\"http://www.w3.org/1999/xhtml\">SYNDERAI Synthetic Generator v5.0</div>"
        },
        "status": "active\"",
        "distinctIdentifier": "synderai-generator-50",
        "manufacturer": "SYNDERAI Project"
      }
    },
    {
      "fullUrl": "urn:uuid:ec826d93-94df-471d-81fe-fe66ab14b198",
      "resource": {
        "resourceType": "Provenance",
        "id": "ec826d93-94df-471d-81fe-fe66ab14b198",
        "target": [
          {
            "reference": "Patient/25335e9a-aefb-49ef-9575-b3f7cb07ae50"
          },
          {
            "reference": "Bundle/4b9f0b41-55b4-4410-a16f-adb2bccfffdc"
          },
          {
            "reference": "Composition/61cb85ac-aa5b-4497-9676-5268aa8f662c"
          },
          {
            "reference": "PractitionerRole/c4b67759-d834-4bd7-8545-ce11ce0e0a13"
          },
          {
            "reference": "Practitioner/6d8b7c7d-8ba4-493a-aca7-af49ce88b5e2"
          },
          {
            "reference": "PractitionerRole/a5594587-f6d1-4f92-8bcf-376ee858ff53"
          },
          {
            "reference": "Organization/6e682b01-0d48-4a7b-959c-b81f1d71849b"
          }
        ],
        "activity": {
          "text": "Synthetic Example Data Generation"
        },
        "policy": [
          "https://synderai.net/synderai-synthetic-data-policy"
        ],
        "agent": [
          {
            "type": {
              "text": "author"
            },
            "who": {
              "reference": "Device/6a9a67c5-6d31-4261-9b28-61d5d11c8183"
            }
          }
        ],
        "reason": [
          {
            "text": "Interoperability Testing and Training (non-clinical use)"
          }
        ],
        "text": {
          "status": "generated",
          "div": "<div xmlns=\"http://www.w3.org/1999/xhtml\">Provenance for SYNDERAI Synthetic Example Data Resource</div>"
        },
        "recorded": "2023-06-14T15:34:16Z"
      }
    },
    {
      "fullUrl": "urn:uuid:c4b67759-d834-4bd7-8545-ce11ce0e0a13",
      "resource": {
        "resourceType": "PractitionerRole",
        "id": "c4b67759-d834-4bd7-8545-ce11ce0e0a13",
        "meta": {
          "profile": [
            "http://hl7.eu/fhir/base/StructureDefinition/practitionerRole-eu"
          ]
        },
        "text": {
          "status": "generated",
          "div": "<div xmlns=\"http://www.w3.org/1999/xhtml\">Laboratory Role Id: c4b67759-d834-4bd7-8545-ce11ce0e0a13</div>"
        },
        "practitioner": {
          "reference": "urn:uuid:6d8b7c7d-8ba4-493a-aca7-af49ce88b5e2"
        }
      }
    },
    {
      "fullUrl": "urn:uuid:6d8b7c7d-8ba4-493a-aca7-af49ce88b5e2",
      "resource": {
        "resourceType": "Practitioner",
        "id": "6d8b7c7d-8ba4-493a-aca7-af49ce88b5e2",
        "meta": {
          "profile": [
            "http://hl7.eu/fhir/base/StructureDefinition/practitioner-eu"
          ]
        },
        "identifier": [
          {
            "assigner": {
              "display": "HL7 Europe"
            },
            "system": "urn:oid:2.16.840.1.113883.2.51.999",
            "value": "187a3f40-5690-4953-872b-95303f163da3"
          }
        ],
        "name": [
          {
            "prefix": [
              "dr"
            ],
            "given": [
              "Ex"
            ],
            "family": "Ample"
          }
        ],
        "address": [
          {
            "line": [
              "Laboratoire Central Européenne",
              "Boulevard du Jardin Botanique 32"
            ],
            "postalCode": "1000",
            "city": "Brussels",
            "country": "Belgium"
          }
        ],
        "text": {
          "status": "generated",
          "div": "<div xmlns=\"http://www.w3.org/1999/xhtml\">Laboratory: Laboratoire Central Européenne, 1000 Brussels, Belgium</div>"
        }
      }
    }
  ],
  "type": "document",
  "timestamp": "2023-06-14T15:34:16Z"
}
