{
  "resourceType": "Bundle",
  "id": "8ff3a61d-9836-4ccf-8f6e-6d4a7d52a043",
  "meta": {
    "profile": [
      "http://hl7.eu/fhir/laboratory/StructureDefinition/Bundle-eu-lab"
    ]
  },
  "identifier": {
    "assigner": {
      "display": "HL7 Europe"
    },
    "system": "urn:oid:2.16.840.1.113883.2.51.999",
    "value": "df2c6a68-f91a-4709-be19-4d1507b106eb"
  },
  "entry": [
    {
      "fullUrl": "urn:uuid:793fd340-a93c-4a48-b3b9-1826f18b0bb2",
      "resource": {
        "resourceType": "Composition",
        "id": "793fd340-a93c-4a48-b3b9-1826f18b0bb2",
        "meta": {
          "profile": [
            "http://hl7.eu/fhir/laboratory/StructureDefinition/Composition-eu-lab"
          ]
        },
        "identifier": {
          "assigner": {
            "display": "HL7 Europe"
          },
          "system": "urn:oid:2.16.840.1.113883.2.51.999",
          "value": "d750d9a8-86a6-4245-a4d2-25c2657ba036"
        },
        "author": [
          {
            "reference": "urn:uuid:bcaeff5d-682e-450e-9abd-f17566342aad"
          }
        ],
        "category": [
          {
            "coding": [
              {
                "code": "26436-6",
                "system": "http://loinc.org",
                "display": "Laboratory studies (set)"
              }
            ]
          }
        ],
        "type": {
          "coding": [
            {
              "code": "11502-2",
              "system": "http://loinc.org",
              "display": "Laboratory report"
            }
          ],
          "text": "Laboratory Report"
        },
        "section": [
          {
            "code": {
              "coding": [
                {
                  "code": "26436-6",
                  "system": "http://loinc.org",
                  "display": "Laboratory studies (set)"
                }
              ],
              "text": "Laboratory studies"
            },
            "section": [
              {
                "code": {
                  "coding": [
                    {
                      "code": "$18719-5",
                      "system": "http://loinc.org",
                      "display": "Chemistry studies (set)"
                    }
                  ],
                  "text": "Chemistry"
                },
                "entry": [
                  {
                    "reference": "urn:uuid:fd7410e5-4cf7-40d6-9c71-d655ea9fefdd"
                  },
                  {
                    "reference": "urn:uuid:e2aaa09e-0a4e-47b9-9fc4-add32b21eeef"
                  },
                  {
                    "reference": "urn:uuid:3d4e4990-3296-45a0-872a-39d8a9e159f6"
                  },
                  {
                    "reference": "urn:uuid:b488faa8-cc95-4e27-be66-d00ba2c9a47e"
                  },
                  {
                    "reference": "urn:uuid:55e7fdb3-3032-491e-9ffe-9f728a499c40"
                  },
                  {
                    "reference": "urn:uuid:e430feb0-a1d4-429f-9285-0242b13e748a"
                  },
                  {
                    "reference": "urn:uuid:79821f54-b7bc-490b-bce9-ad6eb989fefa"
                  },
                  {
                    "reference": "urn:uuid:8e72bf91-e078-4327-9280-d9d2c5239d51"
                  },
                  {
                    "reference": "urn:uuid:a7090488-7d0d-4f73-a523-1813c3c5e444"
                  }
                ],
                "text": {
                  "status": "generated",
                  "div": "<div xmlns=\"http://www.w3.org/1999/xhtml\"><h3>Chemistry</h3><table class=\"hl7__eu__lab__report\"><thead><tr><th>Test</th><th>05-DEC-2024</th><th>Reference&#xA0;Range</th><th>Unit</th></tr></thead><tbody><tr><td>Glucose [Mass/volume] in Serum or Plasma</td><td>98.7</td><td>70 - 140</td><td>mg/dL</td></tr><tr><td>Urea nitrogen [Mass/volume] in Serum or Plasma</td><td>9.2</td><td>7 - 50</td><td>mg/dL</td></tr><tr><td>Creatinine [Mass/volume] in Serum or Plasma</td><td><strong>2.0 H</strong></td><td>0.6 - 1.1</td><td>mg/dL</td></tr><tr><td>Calcium [Mass/volume] in Serum or Plasma</td><td>9.0</td><td>8.5 - 10.5</td><td>mg/dL</td></tr><tr><td>Sodium [Moles/volume] in Serum or Plasma</td><td>143.5</td><td>135 - 145</td><td>mmol/L</td></tr><tr><td>Potassium [Moles/volume] in Serum or Plasma</td><td>5.1</td><td>3.5 - 5.1</td><td>mmol/L</td></tr><tr><td>Chloride [Moles/volume] in Serum or Plasma</td><td><strong>108.4 H</strong></td><td>98 - 108</td><td>mmol/L</td></tr><tr><td>Carbon dioxide, total [Moles/volume] in Serum or Plasma</td><td>27.2</td><td>22 - 32</td><td>mmol/L</td></tr><tr><td>Ketones [Presence] in Urine by Test strip</td><td>Urine ketone test = +</td><td></td><td></td></tr></tbody></table></div>"
                },
                "title": "Chemistry"
              },
              {
                "code": {
                  "coding": [
                    {
                      "code": "$18729-4",
                      "system": "http://loinc.org",
                      "display": "Urinalysis studies (set)"
                    }
                  ],
                  "text": "Urinalysis"
                },
                "entry": [
                  {
                    "reference": "urn:uuid:e3940618-7d02-471c-a9ff-4a48a83d554f"
                  },
                  {
                    "reference": "urn:uuid:b66fbe57-3608-49b8-b237-224702c63a19"
                  },
                  {
                    "reference": "urn:uuid:4bed3c81-356d-42b7-a2e5-e61e9a2b66e3"
                  },
                  {
                    "reference": "urn:uuid:d6a1520c-0d50-4b37-a30e-876eebf0160c"
                  },
                  {
                    "reference": "urn:uuid:038b67f4-b6d2-401a-8147-57c073302c10"
                  },
                  {
                    "reference": "urn:uuid:0f611daa-addf-4e87-ade0-353c662e3c09"
                  },
                  {
                    "reference": "urn:uuid:600d3955-af29-44c7-99a8-39560dccce57"
                  },
                  {
                    "reference": "urn:uuid:d6def56c-ddce-4454-88f2-ed00ea79a9b7"
                  },
                  {
                    "reference": "urn:uuid:319966d1-3e90-4b30-84af-0f2bf5985fb9"
                  },
                  {
                    "reference": "urn:uuid:97838dba-7cbe-4b02-b59b-6f580ea61a8e"
                  },
                  {
                    "reference": "urn:uuid:046dd6d7-3f6d-442d-a74c-d0f5b086278b"
                  },
                  {
                    "reference": "urn:uuid:29c5f1d3-85fe-41af-97c6-f613c2851e4d"
                  }
                ],
                "text": {
                  "status": "generated",
                  "div": "<div xmlns=\"http://www.w3.org/1999/xhtml\"><h3>Urinalysis</h3><table class=\"hl7__eu__lab__report\"><thead><tr><th>Test</th><th>05-DEC-2024</th><th>Reference&#xA0;Range</th><th>Unit</th></tr></thead><tbody><tr><td>Glucose [Mass/volume] in Urine by Test strip</td><td><strong>1.1 H</strong></td><td>0.8 - 0</td><td>mg/dL</td></tr><tr><td>Glucose [Presence] in Urine by Test strip</td><td>++</td><td></td><td></td></tr><tr><td>Bilirubin.total [Mass/volume] in Urine by Test strip</td><td>0.3</td><td>0 - 1</td><td>mg/dL</td></tr><tr><td>Bilirubin.total [Presence] in Urine by Test strip</td><td>Finding of bilirubin in urine</td><td></td><td></td></tr><tr><td>Ketones [Mass/volume] in Urine by Test strip</td><td>17.4</td><td>0 - 20</td><td>mg/dL</td></tr><tr><td>Specific gravity of Urine by Test strip</td><td><strong>1.0 L</strong></td><td>1.01 - 1.03</td><td>{nominal}</td></tr><tr><td>pH of Urine by Test strip</td><td>5.1</td><td>4.6 - 7</td><td>pH</td></tr><tr><td>Protein [Mass/volume] in Urine by Test strip</td><td><strong>196.4 H</strong></td><td>0 - 15</td><td>mg/dL</td></tr><tr><td>Protein [Presence] in Urine by Test strip</td><td>Urine protein test = ++</td><td></td><td></td></tr><tr><td>Nitrite [Presence] in Urine by Test strip</td><td>Urine nitrite negative</td><td></td><td></td></tr><tr><td>Hemoglobin [Presence] in Urine by Test strip</td><td>Urine blood test = negative</td><td></td><td></td></tr><tr><td>Leukocyte esterase [Presence] in Urine by Test strip</td><td>Urine leukocyte test negative</td><td></td><td></td></tr></tbody></table></div>"
                },
                "title": "Urinalysis"
              },
              {
                "code": {
                  "coding": [
                    {
                      "code": "$LP7846-1",
                      "system": "http://loinc.org",
                      "display": "Specimen information"
                    }
                  ],
                  "text": "Specimen information"
                },
                "entry": [
                  {
                    "reference": "urn:uuid:7b35c47f-eb4f-4621-8b7c-194c54e84db3"
                  },
                  {
                    "reference": "urn:uuid:4df40da5-588c-40b3-bb9c-04525505d1cd"
                  },
                  {
                    "reference": "urn:uuid:d029299d-1f8c-4802-8726-1967d8e189d0"
                  },
                  {
                    "reference": "urn:uuid:8a90cc21-bee1-4daf-9ede-3b8e8bf07c8a"
                  }
                ],
                "text": {
                  "status": "generated",
                  "div": "<div xmlns=\"http://www.w3.org/1999/xhtml\"><h3>Specimen information</h3><table class=\"hl7__eu__lab__report\"><thead><tr><th>Test</th><th>05-DEC-2024</th><th>Specimen</th><th></th></tr></thead><tbody><tr><td>Appearance of Urine</td><td>Cloudy urine</td><td>Urine</td><td></td></tr><tr><td>Odor of Urine</td><td>Urine smell ammoniacal</td><td>Urine</td><td></td></tr><tr><td>Clarity of Urine</td><td>Translucent</td><td>Urine</td><td></td></tr><tr><td>Color of Urine</td><td>Brown color</td><td>Urine</td><td></td></tr></tbody></table></div>"
                },
                "title": "Specimen information"
              }
            ],
            "title": "Laboratory Report"
          },
          {
            "text": {
              "status": "generated",
              "div": "<div xmlns=\"http://www.w3.org/1999/xhtml\"><h3>Annotation</h3><table class=\"hl7__eu__lab__report\"><tr><th>Conclusion and Recommendations based on this report and previous findings known to us</th></tr><tr><td>The patient shows elevated serum creatinine, suggesting impaired renal function. Urinalysis reveals significant proteinuria, glucosuria, ketonuria, low specific gravity, and abnormal urine color/appearance, but no hematuria or signs of infection. These findings are consistent with possible diabetic nephropathy or another form of renal impairment. Further nephrological evaluation and assessment of glycemic control are recommended.</td></tr></table></div>"
            },
            "code": {
              "coding": [
                {
                  "system": "http://loinc.org",
                  "code": "48767-8",
                  "display": "Annotation comment"
                }
              ]
            },
            "title": "Annotation comment"
          }
        ],
        "status": "final",
        "subject": {
          "reference": "urn:uuid:c04f6085-fc0e-4f3a-af52-ed1f88562ea9",
          "display": "Marthe Gallet"
        },
        "date": "2024-12-05T20:05:43Z",
        "title": "Laboratory Report",
        "confidentiality": "N"
      }
    },
    {
      "fullUrl": "urn:uuid:781490a1-400e-4859-b333-4e6ed1bc44e3",
      "resource": {
        "resourceType": "DiagnosticReport",
        "id": "781490a1-400e-4859-b333-4e6ed1bc44e3",
        "meta": {
          "profile": [
            "http://hl7.eu/fhir/laboratory/StructureDefinition/DiagnosticReport-eu-lab"
          ]
        },
        "identifier": [
          {
            "assigner": {
              "display": "HL7 Europe"
            },
            "system": "urn:oid:2.16.840.1.113883.2.51.999",
            "value": "b7df22af-4698-40d3-9d98-5205443e9290"
          }
        ],
        "extension": [
          {
            "url": "http://hl7.org/fhir/5.0/StructureDefinition/extension-DiagnosticReport.composition",
            "valueReference": {
              "reference": "urn:uuid:d750d9a8-86a6-4245-a4d2-25c2657ba036"
            }
          }
        ],
        "category": [
          {
            "coding": [
              {
                "code": "26436-6",
                "system": "http://loinc.org",
                "display": "Laboratory studies (set)"
              }
            ]
          }
        ],
        "specimen": [
          {
            "reference": "urn:uuid:5b6b8d02-a038-4cce-bce5-c9a2d458feeb"
          },
          {
            "reference": "urn:uuid:1d4f28b5-a148-4848-86bf-6f880693c908"
          }
        ],
        "result": [
          {
            "reference": "urn:uuid:fd7410e5-4cf7-40d6-9c71-d655ea9fefdd"
          },
          {
            "reference": "urn:uuid:e2aaa09e-0a4e-47b9-9fc4-add32b21eeef"
          },
          {
            "reference": "urn:uuid:3d4e4990-3296-45a0-872a-39d8a9e159f6"
          },
          {
            "reference": "urn:uuid:b488faa8-cc95-4e27-be66-d00ba2c9a47e"
          },
          {
            "reference": "urn:uuid:55e7fdb3-3032-491e-9ffe-9f728a499c40"
          },
          {
            "reference": "urn:uuid:e430feb0-a1d4-429f-9285-0242b13e748a"
          },
          {
            "reference": "urn:uuid:79821f54-b7bc-490b-bce9-ad6eb989fefa"
          },
          {
            "reference": "urn:uuid:8e72bf91-e078-4327-9280-d9d2c5239d51"
          },
          {
            "reference": "urn:uuid:7b35c47f-eb4f-4621-8b7c-194c54e84db3"
          },
          {
            "reference": "urn:uuid:4df40da5-588c-40b3-bb9c-04525505d1cd"
          },
          {
            "reference": "urn:uuid:d029299d-1f8c-4802-8726-1967d8e189d0"
          },
          {
            "reference": "urn:uuid:8a90cc21-bee1-4daf-9ede-3b8e8bf07c8a"
          },
          {
            "reference": "urn:uuid:e3940618-7d02-471c-a9ff-4a48a83d554f"
          },
          {
            "reference": "urn:uuid:b66fbe57-3608-49b8-b237-224702c63a19"
          },
          {
            "reference": "urn:uuid:4bed3c81-356d-42b7-a2e5-e61e9a2b66e3"
          },
          {
            "reference": "urn:uuid:d6a1520c-0d50-4b37-a30e-876eebf0160c"
          },
          {
            "reference": "urn:uuid:038b67f4-b6d2-401a-8147-57c073302c10"
          },
          {
            "reference": "urn:uuid:a7090488-7d0d-4f73-a523-1813c3c5e444"
          },
          {
            "reference": "urn:uuid:0f611daa-addf-4e87-ade0-353c662e3c09"
          },
          {
            "reference": "urn:uuid:600d3955-af29-44c7-99a8-39560dccce57"
          },
          {
            "reference": "urn:uuid:d6def56c-ddce-4454-88f2-ed00ea79a9b7"
          },
          {
            "reference": "urn:uuid:319966d1-3e90-4b30-84af-0f2bf5985fb9"
          },
          {
            "reference": "urn:uuid:97838dba-7cbe-4b02-b59b-6f580ea61a8e"
          },
          {
            "reference": "urn:uuid:046dd6d7-3f6d-442d-a74c-d0f5b086278b"
          },
          {
            "reference": "urn:uuid:29c5f1d3-85fe-41af-97c6-f613c2851e4d"
          }
        ],
        "status": "registered",
        "code": {
          "coding": [
            {
              "code": "11502-2",
              "system": "http://loinc.org",
              "display": "Laboratory report"
            }
          ]
        },
        "subject": {
          "reference": "urn:uuid:c04f6085-fc0e-4f3a-af52-ed1f88562ea9",
          "display": "Marthe Gallet"
        }
      }
    },
    {
      "fullUrl": "urn:uuid:c04f6085-fc0e-4f3a-af52-ed1f88562ea9",
      "resource": {
        "resourceType": "Patient",
        "id": "c04f6085-fc0e-4f3a-af52-ed1f88562ea9",
        "meta": {
          "security": [
            {
              "system": "http://terminology.hl7.org/CodeSystem/v3-ActReason",
              "code": "HTEST"
            },
            {
              "system": "http://terminology.hl7.org/CodeSystem/v3-ActReason",
              "code": "TRAIN"
            }
          ],
          "tag": [
            {
              "system": "https://synderai.net/fhir/CodeSystem/tags",
              "code": "synthetic",
              "display": "SYNDERAI Synthetic data"
            }
          ],
          "profile": [
            "http://hl7.eu/fhir/base/StructureDefinition/patient-eu-core"
          ]
        },
        "identifier": [
          {
            "type": {
              "coding": [
                {
                  "code": "PT",
                  "system": "http://terminology.hl7.org/CodeSystem/v2-0203"
                }
              ]
            },
            "system": "http://ec.europa.eu/identifier/eci",
            "value": "9444-947487-6"
          },
          {
            "type": {
              "coding": [
                {
                  "code": "MR",
                  "system": "http://terminology.hl7.org/CodeSystem/v2-0203"
                }
              ]
            },
            "system": "http://local.setting.eu/identifier",
            "value": "854228d5-a476-2d9c-a1d7-c3202375a617"
          }
        ],
        "name": [
          {
            "family": "Gallet"
          },
          {
            "given": [
              "Marthe"
            ]
          },
          {
            "text": "Marthe Gallet"
          }
        ],
        "address": [
          {
            "line": [
              "3, rue Emmanuel Goncalves"
            ],
            "use": "home",
            "type": "physical",
            "postalCode": "49490",
            "city": "Briand",
            "country": "France"
          }
        ],
        "telecom": [
          {
            "system": "phone",
            "value": "+33 1 70 99 82 74"
          }
        ],
        "extension": [
          {
            "url": "http://hl7.org/fhir/StructureDefinition/patient-nationality",
            "valueCodeableConcept": {
              "coding": [
                {
                  "code": "FR",
                  "system": "http://hl7.org/fhir/ValueSet/country"
                }
              ]
            }
          }
        ],
        "text": {
          "status": "generated",
          "div": "<div xmlns=\"http://www.w3.org/1999/xhtml\"><table class=\"hl7__ips\"><tr><td>Marthe Gallet</td><td>female</td><td>29-Oct-1950</td></tr></table></div>"
        },
        "gender": "female",
        "birthDate": "1950-10-29"
      }
    },
    {
      "fullUrl": "urn:uuid:55be2252-65c8-457b-b80d-ae9169b566bf",
      "resource": {
        "resourceType": "ServiceRequest",
        "id": "55be2252-65c8-457b-b80d-ae9169b566bf",
        "meta": {
          "profile": [
            "http://hl7.eu/fhir/laboratory/StructureDefinition/ServiceRequest-eu-lab"
          ]
        },
        "identifier": [
          {
            "system": "http://example.org",
            "value": "cfc98232-4406-4124-911b-11d26713f7ab"
          }
        ],
        "specimen": [
          {
            "reference": "urn:uuid:5b6b8d02-a038-4cce-bce5-c9a2d458feeb"
          },
          {
            "reference": "urn:uuid:1d4f28b5-a148-4848-86bf-6f880693c908"
          }
        ],
        "reasonCode": [
          {
            "coding": [
              {
                "code": "431856006",
                "system": "http://snomed.info/sct",
                "display": "Chronic kidney disease stage 2"
              }
            ]
          },
          {
            "coding": [
              {
                "code": "90781000119102",
                "system": "http://snomed.info/sct",
                "display": "Microalbuminuria due to type 2 diabetes mellitus"
              }
            ]
          },
          {
            "coding": [
              {
                "code": "127013003",
                "system": "http://snomed.info/sct",
                "display": "Disorder of kidney due to diabetes mellitus"
              }
            ]
          },
          {
            "coding": [
              {
                "code": "431855005",
                "system": "http://snomed.info/sct",
                "display": "Chronic kidney disease stage 1"
              }
            ]
          },
          {
            "coding": [
              {
                "code": "55822004",
                "system": "http://snomed.info/sct",
                "display": "Hyperlipidemia"
              }
            ]
          },
          {
            "coding": [
              {
                "code": "59621000",
                "system": "http://snomed.info/sct",
                "display": "Essential hypertension"
              }
            ]
          }
        ],
        "status": "active",
        "intent": "order",
        "code": {
          "coding": [
            {
              "code": "108252007",
              "system": "http://snomed.info/sct",
              "display": "Laboratory procedure"
            }
          ]
        },
        "subject": {
          "reference": "urn:uuid:c04f6085-fc0e-4f3a-af52-ed1f88562ea9",
          "display": "Marthe Gallet"
        },
        "requester": {
          "reference": "urn:uuid:e0128a4d-122a-4c0e-8ac1-f281bd58aad1"
        }
      }
    },
    {
      "fullUrl": "urn:uuid:e0128a4d-122a-4c0e-8ac1-f281bd58aad1",
      "resource": {
        "resourceType": "PractitionerRole",
        "id": "e0128a4d-122a-4c0e-8ac1-f281bd58aad1",
        "meta": {
          "profile": [
            "http://hl7.eu/fhir/base/StructureDefinition/practitionerRole-eu"
          ]
        },
        "text": {
          "status": "generated",
          "div": "<div xmlns=\"http://www.w3.org/1999/xhtml\">Provider Role Id: e0128a4d-122a-4c0e-8ac1-f281bd58aad1</div>"
        },
        "organization": {
          "reference": "urn:uuid:9da6ddce-6bce-4e81-b091-319af36b0aab"
        }
      }
    },
    {
      "fullUrl": "urn:uuid:9da6ddce-6bce-4e81-b091-319af36b0aab",
      "resource": {
        "resourceType": "Organization",
        "id": "9da6ddce-6bce-4e81-b091-319af36b0aab",
        "meta": {
          "profile": [
            "http://hl7.eu/fhir/base/StructureDefinition/organization-eu"
          ]
        },
        "identifier": [
          {
            "assigner": {
              "display": "HL7 Europe"
            },
            "system": "urn:oid:2.16.840.1.113883.2.51.999",
            "value": "6105099c-83f7-4505-88da-8f842d855154"
          }
        ],
        "address": [
          {
            "line": [
              "Rue Larrey nan"
            ],
            "city": "Angers",
            "postalCode": "49100",
            "country": "France"
          }
        ],
        "text": {
          "status": "generated",
          "div": "<div xmlns=\"http://www.w3.org/1999/xhtml\">Provider Organization: CHU d&#039;Angers</div>"
        },
        "name": "CHU d&#039;Angers"
      }
    },
    {
      "fullUrl": "urn:uuid:5b6b8d02-a038-4cce-bce5-c9a2d458feeb",
      "resource": {
        "resourceType": "Specimen",
        "id": "5b6b8d02-a038-4cce-bce5-c9a2d458feeb",
        "meta": {
          "profile": [
            "http://hl7.eu/fhir/laboratory/StructureDefinition/Specimen-eu-lab"
          ]
        },
        "collection": {
          "collectedDateTime": "2024-12-05"
        },
        "text": {
          "status": "generated",
          "div": "<div xmlns=\"http://www.w3.org/1999/xhtml\"><table class=\"hl7__eu__lab__report\"><tr><th>Specimen</th><th>Collection Date</th></tr><tr><td>Acellular blood (serum or plasma) specimen</td><td><span class=\"nb\">05-Dec-2024</span></td></tr></table></div>"
        },
        "type": {
          "coding": [
            {
              "code": "122592007",
              "system": "http://snomed.info/sct",
              "display": "Acellular blood (serum or plasma) specimen"
            }
          ]
        }
      }
    },
    {
      "fullUrl": "urn:uuid:1d4f28b5-a148-4848-86bf-6f880693c908",
      "resource": {
        "resourceType": "Specimen",
        "id": "1d4f28b5-a148-4848-86bf-6f880693c908",
        "meta": {
          "profile": [
            "http://hl7.eu/fhir/laboratory/StructureDefinition/Specimen-eu-lab"
          ]
        },
        "collection": {
          "collectedDateTime": "2024-12-05"
        },
        "text": {
          "status": "generated",
          "div": "<div xmlns=\"http://www.w3.org/1999/xhtml\"><table class=\"hl7__eu__lab__report\"><tr><th>Specimen</th><th>Collection Date</th></tr><tr><td>Urine specimen</td><td><span class=\"nb\">05-Dec-2024</span></td></tr></table></div>"
        },
        "type": {
          "coding": [
            {
              "code": "122575003",
              "system": "http://snomed.info/sct",
              "display": "Urine specimen"
            }
          ]
        }
      }
    },
    {
      "fullUrl": "urn:uuid:fd7410e5-4cf7-40d6-9c71-d655ea9fefdd",
      "resource": {
        "resourceType": "Observation",
        "id": "fd7410e5-4cf7-40d6-9c71-d655ea9fefdd",
        "meta": {
          "profile": [
            "http://hl7.eu/fhir/laboratory/StructureDefinition/Observation-resultslab-eu-lab"
          ]
        },
        "performer": [
          {
            "display": "The Central European Lab"
          }
        ],
        "category": [
          {
            "coding": [
              {
                "system": "http://terminology.hl7.org/CodeSystem/observation-category",
                "code": "laboratory"
              }
            ]
          }
        ],
        "code": {
          "coding": [
            {
              "code": "2345-7",
              "system": "http://loinc.org",
              "display": "Glucose [Mass/volume] in Serum or Plasma"
            }
          ],
          "text": "Glucose [Mass/volume] in Serum or Plasma"
        },
        "valueQuantity": {
          "system": "http://unitsofmeasure.org",
          "value": 98.7,
          "unit": "mg/dL",
          "code": "mg/dL"
        },
        "referenceRange": [
          {
            "low": {
              "value": 70,
              "code": "mg/dL",
              "system": "http://unitsofmeasure.org"
            }
          },
          {
            "high": {
              "value": 140,
              "code": "mg/dL",
              "system": "http://unitsofmeasure.org"
            }
          }
        ],
        "text": {
          "status": "generated",
          "div": "<div xmlns=\"http://www.w3.org/1999/xhtml\"><table class=\"hl7__eu__lab__report\"><tr><th>Test</th><th>05-Dec-2024</th><th>Reference&#xA0;Range</th><th>Unit</th></tr><tr><td>Glucose [Mass/volume] in Serum or Plasma</td><td>98.7</td><td>70 - 140</td><td></td><td>mg/dL</td></tr></table></div>"
        },
        "status": "final",
        "subject": {
          "reference": "urn:uuid:c04f6085-fc0e-4f3a-af52-ed1f88562ea9",
          "display": "Marthe Gallet"
        },
        "effectiveDateTime": "2024-12-05T19:05:43Z",
        "specimen": {
          "reference": "urn:uuid:5b6b8d02-a038-4cce-bce5-c9a2d458feeb"
        }
      }
    },
    {
      "fullUrl": "urn:uuid:e2aaa09e-0a4e-47b9-9fc4-add32b21eeef",
      "resource": {
        "resourceType": "Observation",
        "id": "e2aaa09e-0a4e-47b9-9fc4-add32b21eeef",
        "meta": {
          "profile": [
            "http://hl7.eu/fhir/laboratory/StructureDefinition/Observation-resultslab-eu-lab"
          ]
        },
        "performer": [
          {
            "display": "The Central European Lab"
          }
        ],
        "category": [
          {
            "coding": [
              {
                "system": "http://terminology.hl7.org/CodeSystem/observation-category",
                "code": "laboratory"
              }
            ]
          }
        ],
        "code": {
          "coding": [
            {
              "code": "3094-0",
              "system": "http://loinc.org",
              "display": "Urea nitrogen [Mass/volume] in Serum or Plasma"
            }
          ],
          "text": "Urea nitrogen [Mass/volume] in Serum or Plasma"
        },
        "valueQuantity": {
          "system": "http://unitsofmeasure.org",
          "value": 9.2,
          "unit": "mg/dL",
          "code": "mg/dL"
        },
        "referenceRange": [
          {
            "low": {
              "value": 7,
              "code": "mg/dL",
              "system": "http://unitsofmeasure.org"
            }
          },
          {
            "high": {
              "value": 50,
              "code": "mg/dL",
              "system": "http://unitsofmeasure.org"
            }
          }
        ],
        "text": {
          "status": "generated",
          "div": "<div xmlns=\"http://www.w3.org/1999/xhtml\"><table class=\"hl7__eu__lab__report\"><tr><th>Test</th><th>05-Dec-2024</th><th>Reference&#xA0;Range</th><th>Unit</th></tr><tr><td>Urea nitrogen [Mass/volume] in Serum or Plasma</td><td>9.2</td><td>7 - 50</td><td></td><td>mg/dL</td></tr></table></div>"
        },
        "status": "final",
        "subject": {
          "reference": "urn:uuid:c04f6085-fc0e-4f3a-af52-ed1f88562ea9",
          "display": "Marthe Gallet"
        },
        "effectiveDateTime": "2024-12-05T19:05:43Z",
        "specimen": {
          "reference": "urn:uuid:5b6b8d02-a038-4cce-bce5-c9a2d458feeb"
        }
      }
    },
    {
      "fullUrl": "urn:uuid:3d4e4990-3296-45a0-872a-39d8a9e159f6",
      "resource": {
        "resourceType": "Observation",
        "id": "3d4e4990-3296-45a0-872a-39d8a9e159f6",
        "meta": {
          "profile": [
            "http://hl7.eu/fhir/laboratory/StructureDefinition/Observation-resultslab-eu-lab"
          ]
        },
        "performer": [
          {
            "display": "The Central European Lab"
          }
        ],
        "category": [
          {
            "coding": [
              {
                "system": "http://terminology.hl7.org/CodeSystem/observation-category",
                "code": "laboratory"
              }
            ]
          }
        ],
        "code": {
          "coding": [
            {
              "code": "2160-0",
              "system": "http://loinc.org",
              "display": "Creatinine [Mass/volume] in Serum or Plasma"
            }
          ],
          "text": "Creatinine [Mass/volume] in Serum or Plasma"
        },
        "valueQuantity": {
          "system": "http://unitsofmeasure.org",
          "value": 2,
          "unit": "mg/dL",
          "code": "mg/dL"
        },
        "referenceRange": [
          {
            "low": {
              "value": 0.6,
              "code": "mg/dL",
              "system": "http://unitsofmeasure.org"
            }
          },
          {
            "high": {
              "value": 1.1,
              "code": "mg/dL",
              "system": "http://unitsofmeasure.org"
            }
          }
        ],
        "interpretation": [
          {
            "coding": [
              {
                "code": "H",
                "system": "http://terminology.hl7.org/CodeSystem/v3-ObservationInterpretation",
                "display": "High"
              }
            ]
          }
        ],
        "text": {
          "status": "generated",
          "div": "<div xmlns=\"http://www.w3.org/1999/xhtml\"><table class=\"hl7__eu__lab__report\"><tr><th>Test</th><th>05-Dec-2024</th><th>Reference&#xA0;Range</th><th>Unit</th></tr><tr><td>Creatinine [Mass/volume] in Serum or Plasma</td><td>2.0</td><td>0.6 - 1.1</td><td>H</td><td>mg/dL</td></tr></table></div>"
        },
        "status": "final",
        "subject": {
          "reference": "urn:uuid:c04f6085-fc0e-4f3a-af52-ed1f88562ea9",
          "display": "Marthe Gallet"
        },
        "effectiveDateTime": "2024-12-05T19:05:43Z",
        "specimen": {
          "reference": "urn:uuid:5b6b8d02-a038-4cce-bce5-c9a2d458feeb"
        }
      }
    },
    {
      "fullUrl": "urn:uuid:b488faa8-cc95-4e27-be66-d00ba2c9a47e",
      "resource": {
        "resourceType": "Observation",
        "id": "b488faa8-cc95-4e27-be66-d00ba2c9a47e",
        "meta": {
          "profile": [
            "http://hl7.eu/fhir/laboratory/StructureDefinition/Observation-resultslab-eu-lab"
          ]
        },
        "performer": [
          {
            "display": "The Central European Lab"
          }
        ],
        "category": [
          {
            "coding": [
              {
                "system": "http://terminology.hl7.org/CodeSystem/observation-category",
                "code": "laboratory"
              }
            ]
          }
        ],
        "code": {
          "coding": [
            {
              "code": "17861-6",
              "system": "http://loinc.org",
              "display": "Calcium [Mass/volume] in Serum or Plasma"
            }
          ],
          "text": "Calcium [Mass/volume] in Serum or Plasma"
        },
        "valueQuantity": {
          "system": "http://unitsofmeasure.org",
          "value": 9,
          "unit": "mg/dL",
          "code": "mg/dL"
        },
        "referenceRange": [
          {
            "low": {
              "value": 8.5,
              "code": "mg/dL",
              "system": "http://unitsofmeasure.org"
            }
          },
          {
            "high": {
              "value": 10.5,
              "code": "mg/dL",
              "system": "http://unitsofmeasure.org"
            }
          }
        ],
        "text": {
          "status": "generated",
          "div": "<div xmlns=\"http://www.w3.org/1999/xhtml\"><table class=\"hl7__eu__lab__report\"><tr><th>Test</th><th>05-Dec-2024</th><th>Reference&#xA0;Range</th><th>Unit</th></tr><tr><td>Calcium [Mass/volume] in Serum or Plasma</td><td>9.0</td><td>8.5 - 10.5</td><td></td><td>mg/dL</td></tr></table></div>"
        },
        "status": "final",
        "subject": {
          "reference": "urn:uuid:c04f6085-fc0e-4f3a-af52-ed1f88562ea9",
          "display": "Marthe Gallet"
        },
        "effectiveDateTime": "2024-12-05T19:05:43Z",
        "specimen": {
          "reference": "urn:uuid:5b6b8d02-a038-4cce-bce5-c9a2d458feeb"
        }
      }
    },
    {
      "fullUrl": "urn:uuid:55e7fdb3-3032-491e-9ffe-9f728a499c40",
      "resource": {
        "resourceType": "Observation",
        "id": "55e7fdb3-3032-491e-9ffe-9f728a499c40",
        "meta": {
          "profile": [
            "http://hl7.eu/fhir/laboratory/StructureDefinition/Observation-resultslab-eu-lab"
          ]
        },
        "performer": [
          {
            "display": "The Central European Lab"
          }
        ],
        "category": [
          {
            "coding": [
              {
                "system": "http://terminology.hl7.org/CodeSystem/observation-category",
                "code": "laboratory"
              }
            ]
          }
        ],
        "code": {
          "coding": [
            {
              "code": "2951-2",
              "system": "http://loinc.org",
              "display": "Sodium [Moles/volume] in Serum or Plasma"
            }
          ],
          "text": "Sodium [Moles/volume] in Serum or Plasma"
        },
        "valueQuantity": {
          "system": "http://unitsofmeasure.org",
          "value": 143.5,
          "unit": "mmol/L",
          "code": "mmol/L"
        },
        "referenceRange": [
          {
            "low": {
              "value": 135,
              "code": "mmol/L",
              "system": "http://unitsofmeasure.org"
            }
          },
          {
            "high": {
              "value": 145,
              "code": "mmol/L",
              "system": "http://unitsofmeasure.org"
            }
          }
        ],
        "text": {
          "status": "generated",
          "div": "<div xmlns=\"http://www.w3.org/1999/xhtml\"><table class=\"hl7__eu__lab__report\"><tr><th>Test</th><th>05-Dec-2024</th><th>Reference&#xA0;Range</th><th>Unit</th></tr><tr><td>Sodium [Moles/volume] in Serum or Plasma</td><td>143.5</td><td>135 - 145</td><td></td><td>mmol/L</td></tr></table></div>"
        },
        "status": "final",
        "subject": {
          "reference": "urn:uuid:c04f6085-fc0e-4f3a-af52-ed1f88562ea9",
          "display": "Marthe Gallet"
        },
        "effectiveDateTime": "2024-12-05T19:05:43Z",
        "specimen": {
          "reference": "urn:uuid:5b6b8d02-a038-4cce-bce5-c9a2d458feeb"
        }
      }
    },
    {
      "fullUrl": "urn:uuid:e430feb0-a1d4-429f-9285-0242b13e748a",
      "resource": {
        "resourceType": "Observation",
        "id": "e430feb0-a1d4-429f-9285-0242b13e748a",
        "meta": {
          "profile": [
            "http://hl7.eu/fhir/laboratory/StructureDefinition/Observation-resultslab-eu-lab"
          ]
        },
        "performer": [
          {
            "display": "The Central European Lab"
          }
        ],
        "category": [
          {
            "coding": [
              {
                "system": "http://terminology.hl7.org/CodeSystem/observation-category",
                "code": "laboratory"
              }
            ]
          }
        ],
        "code": {
          "coding": [
            {
              "code": "2823-3",
              "system": "http://loinc.org",
              "display": "Potassium [Moles/volume] in Serum or Plasma"
            }
          ],
          "text": "Potassium [Moles/volume] in Serum or Plasma"
        },
        "valueQuantity": {
          "system": "http://unitsofmeasure.org",
          "value": 5.1,
          "unit": "mmol/L",
          "code": "mmol/L"
        },
        "referenceRange": [
          {
            "low": {
              "value": 3.5,
              "code": "mmol/L",
              "system": "http://unitsofmeasure.org"
            }
          },
          {
            "high": {
              "value": 5.1,
              "code": "mmol/L",
              "system": "http://unitsofmeasure.org"
            }
          }
        ],
        "text": {
          "status": "generated",
          "div": "<div xmlns=\"http://www.w3.org/1999/xhtml\"><table class=\"hl7__eu__lab__report\"><tr><th>Test</th><th>05-Dec-2024</th><th>Reference&#xA0;Range</th><th>Unit</th></tr><tr><td>Potassium [Moles/volume] in Serum or Plasma</td><td>5.1</td><td>3.5 - 5.1</td><td></td><td>mmol/L</td></tr></table></div>"
        },
        "status": "final",
        "subject": {
          "reference": "urn:uuid:c04f6085-fc0e-4f3a-af52-ed1f88562ea9",
          "display": "Marthe Gallet"
        },
        "effectiveDateTime": "2024-12-05T19:05:43Z",
        "specimen": {
          "reference": "urn:uuid:5b6b8d02-a038-4cce-bce5-c9a2d458feeb"
        }
      }
    },
    {
      "fullUrl": "urn:uuid:79821f54-b7bc-490b-bce9-ad6eb989fefa",
      "resource": {
        "resourceType": "Observation",
        "id": "79821f54-b7bc-490b-bce9-ad6eb989fefa",
        "meta": {
          "profile": [
            "http://hl7.eu/fhir/laboratory/StructureDefinition/Observation-resultslab-eu-lab"
          ]
        },
        "performer": [
          {
            "display": "The Central European Lab"
          }
        ],
        "category": [
          {
            "coding": [
              {
                "system": "http://terminology.hl7.org/CodeSystem/observation-category",
                "code": "laboratory"
              }
            ]
          }
        ],
        "code": {
          "coding": [
            {
              "code": "2075-0",
              "system": "http://loinc.org",
              "display": "Chloride [Moles/volume] in Serum or Plasma"
            }
          ],
          "text": "Chloride [Moles/volume] in Serum or Plasma"
        },
        "valueQuantity": {
          "system": "http://unitsofmeasure.org",
          "value": 108.4,
          "unit": "mmol/L",
          "code": "mmol/L"
        },
        "referenceRange": [
          {
            "low": {
              "value": 98,
              "code": "mmol/L",
              "system": "http://unitsofmeasure.org"
            }
          },
          {
            "high": {
              "value": 108,
              "code": "mmol/L",
              "system": "http://unitsofmeasure.org"
            }
          }
        ],
        "interpretation": [
          {
            "coding": [
              {
                "code": "H",
                "system": "http://terminology.hl7.org/CodeSystem/v3-ObservationInterpretation",
                "display": "High"
              }
            ]
          }
        ],
        "text": {
          "status": "generated",
          "div": "<div xmlns=\"http://www.w3.org/1999/xhtml\"><table class=\"hl7__eu__lab__report\"><tr><th>Test</th><th>05-Dec-2024</th><th>Reference&#xA0;Range</th><th>Unit</th></tr><tr><td>Chloride [Moles/volume] in Serum or Plasma</td><td>108.4</td><td>98 - 108</td><td>H</td><td>mmol/L</td></tr></table></div>"
        },
        "status": "final",
        "subject": {
          "reference": "urn:uuid:c04f6085-fc0e-4f3a-af52-ed1f88562ea9",
          "display": "Marthe Gallet"
        },
        "effectiveDateTime": "2024-12-05T19:05:43Z",
        "specimen": {
          "reference": "urn:uuid:5b6b8d02-a038-4cce-bce5-c9a2d458feeb"
        }
      }
    },
    {
      "fullUrl": "urn:uuid:8e72bf91-e078-4327-9280-d9d2c5239d51",
      "resource": {
        "resourceType": "Observation",
        "id": "8e72bf91-e078-4327-9280-d9d2c5239d51",
        "meta": {
          "profile": [
            "http://hl7.eu/fhir/laboratory/StructureDefinition/Observation-resultslab-eu-lab"
          ]
        },
        "performer": [
          {
            "display": "The Central European Lab"
          }
        ],
        "category": [
          {
            "coding": [
              {
                "system": "http://terminology.hl7.org/CodeSystem/observation-category",
                "code": "laboratory"
              }
            ]
          }
        ],
        "code": {
          "coding": [
            {
              "code": "2028-9",
              "system": "http://loinc.org",
              "display": "Carbon dioxide, total [Moles/volume] in Serum or Plasma"
            }
          ],
          "text": "Carbon dioxide, total [Moles/volume] in Serum or Plasma"
        },
        "valueQuantity": {
          "system": "http://unitsofmeasure.org",
          "value": 27.2,
          "unit": "mmol/L",
          "code": "mmol/L"
        },
        "referenceRange": [
          {
            "low": {
              "value": 22,
              "code": "mmol/L",
              "system": "http://unitsofmeasure.org"
            }
          },
          {
            "high": {
              "value": 32,
              "code": "mmol/L",
              "system": "http://unitsofmeasure.org"
            }
          }
        ],
        "text": {
          "status": "generated",
          "div": "<div xmlns=\"http://www.w3.org/1999/xhtml\"><table class=\"hl7__eu__lab__report\"><tr><th>Test</th><th>05-Dec-2024</th><th>Reference&#xA0;Range</th><th>Unit</th></tr><tr><td>Carbon dioxide, total [Moles/volume] in Serum or Plasma</td><td>27.2</td><td>22 - 32</td><td></td><td>mmol/L</td></tr></table></div>"
        },
        "status": "final",
        "subject": {
          "reference": "urn:uuid:c04f6085-fc0e-4f3a-af52-ed1f88562ea9",
          "display": "Marthe Gallet"
        },
        "effectiveDateTime": "2024-12-05T19:05:43Z",
        "specimen": {
          "reference": "urn:uuid:5b6b8d02-a038-4cce-bce5-c9a2d458feeb"
        }
      }
    },
    {
      "fullUrl": "urn:uuid:7b35c47f-eb4f-4621-8b7c-194c54e84db3",
      "resource": {
        "resourceType": "Observation",
        "id": "7b35c47f-eb4f-4621-8b7c-194c54e84db3",
        "meta": {
          "profile": [
            "http://hl7.eu/fhir/laboratory/StructureDefinition/Observation-resultslab-eu-lab"
          ]
        },
        "performer": [
          {
            "display": "The Central European Lab"
          }
        ],
        "category": [
          {
            "coding": [
              {
                "system": "http://terminology.hl7.org/CodeSystem/observation-category",
                "code": "laboratory"
              }
            ]
          }
        ],
        "code": {
          "coding": [
            {
              "code": "5767-9",
              "system": "http://loinc.org",
              "display": "Appearance of Urine"
            }
          ],
          "text": "Appearance of Urine"
        },
        "text": {
          "status": "generated",
          "div": "<div xmlns=\"http://www.w3.org/1999/xhtml\"><table class=\"hl7__eu__lab__report\"><tr><th>Test</th><th>05-Dec-2024</th><th>Reference&#xA0;Range</th><th>Unit</th></tr><tr><td>Appearance of Urine</td></tr></table></div>"
        },
        "status": "final",
        "subject": {
          "reference": "urn:uuid:c04f6085-fc0e-4f3a-af52-ed1f88562ea9",
          "display": "Marthe Gallet"
        },
        "effectiveDateTime": "2024-12-05T19:05:43Z",
        "specimen": {
          "reference": "urn:uuid:1d4f28b5-a148-4848-86bf-6f880693c908"
        }
      }
    },
    {
      "fullUrl": "urn:uuid:4df40da5-588c-40b3-bb9c-04525505d1cd",
      "resource": {
        "resourceType": "Observation",
        "id": "4df40da5-588c-40b3-bb9c-04525505d1cd",
        "meta": {
          "profile": [
            "http://hl7.eu/fhir/laboratory/StructureDefinition/Observation-resultslab-eu-lab"
          ]
        },
        "performer": [
          {
            "display": "The Central European Lab"
          }
        ],
        "category": [
          {
            "coding": [
              {
                "system": "http://terminology.hl7.org/CodeSystem/observation-category",
                "code": "laboratory"
              }
            ]
          }
        ],
        "code": {
          "coding": [
            {
              "code": "34533-0",
              "system": "http://loinc.org",
              "display": "Odor of Urine"
            }
          ],
          "text": "Odor of Urine"
        },
        "text": {
          "status": "generated",
          "div": "<div xmlns=\"http://www.w3.org/1999/xhtml\"><table class=\"hl7__eu__lab__report\"><tr><th>Test</th><th>05-Dec-2024</th><th>Reference&#xA0;Range</th><th>Unit</th></tr><tr><td>Odor of Urine</td></tr></table></div>"
        },
        "status": "final",
        "subject": {
          "reference": "urn:uuid:c04f6085-fc0e-4f3a-af52-ed1f88562ea9",
          "display": "Marthe Gallet"
        },
        "effectiveDateTime": "2024-12-05T19:05:43Z",
        "specimen": {
          "reference": "urn:uuid:1d4f28b5-a148-4848-86bf-6f880693c908"
        }
      }
    },
    {
      "fullUrl": "urn:uuid:d029299d-1f8c-4802-8726-1967d8e189d0",
      "resource": {
        "resourceType": "Observation",
        "id": "d029299d-1f8c-4802-8726-1967d8e189d0",
        "meta": {
          "profile": [
            "http://hl7.eu/fhir/laboratory/StructureDefinition/Observation-resultslab-eu-lab"
          ]
        },
        "performer": [
          {
            "display": "The Central European Lab"
          }
        ],
        "category": [
          {
            "coding": [
              {
                "system": "http://terminology.hl7.org/CodeSystem/observation-category",
                "code": "laboratory"
              }
            ]
          }
        ],
        "code": {
          "coding": [
            {
              "code": "32167-9",
              "system": "http://loinc.org",
              "display": "Clarity of Urine"
            }
          ],
          "text": "Clarity of Urine"
        },
        "text": {
          "status": "generated",
          "div": "<div xmlns=\"http://www.w3.org/1999/xhtml\"><table class=\"hl7__eu__lab__report\"><tr><th>Test</th><th>05-Dec-2024</th><th>Reference&#xA0;Range</th><th>Unit</th></tr><tr><td>Clarity of Urine</td></tr></table></div>"
        },
        "status": "final",
        "subject": {
          "reference": "urn:uuid:c04f6085-fc0e-4f3a-af52-ed1f88562ea9",
          "display": "Marthe Gallet"
        },
        "effectiveDateTime": "2024-12-05T19:05:43Z",
        "specimen": {
          "reference": "urn:uuid:1d4f28b5-a148-4848-86bf-6f880693c908"
        }
      }
    },
    {
      "fullUrl": "urn:uuid:8a90cc21-bee1-4daf-9ede-3b8e8bf07c8a",
      "resource": {
        "resourceType": "Observation",
        "id": "8a90cc21-bee1-4daf-9ede-3b8e8bf07c8a",
        "meta": {
          "profile": [
            "http://hl7.eu/fhir/laboratory/StructureDefinition/Observation-resultslab-eu-lab"
          ]
        },
        "performer": [
          {
            "display": "The Central European Lab"
          }
        ],
        "category": [
          {
            "coding": [
              {
                "system": "http://terminology.hl7.org/CodeSystem/observation-category",
                "code": "laboratory"
              }
            ]
          }
        ],
        "code": {
          "coding": [
            {
              "code": "5778-6",
              "system": "http://loinc.org",
              "display": "Color of Urine"
            }
          ],
          "text": "Color of Urine"
        },
        "text": {
          "status": "generated",
          "div": "<div xmlns=\"http://www.w3.org/1999/xhtml\"><table class=\"hl7__eu__lab__report\"><tr><th>Test</th><th>05-Dec-2024</th><th>Reference&#xA0;Range</th><th>Unit</th></tr><tr><td>Color of Urine</td></tr></table></div>"
        },
        "status": "final",
        "subject": {
          "reference": "urn:uuid:c04f6085-fc0e-4f3a-af52-ed1f88562ea9",
          "display": "Marthe Gallet"
        },
        "effectiveDateTime": "2024-12-05T19:05:43Z",
        "specimen": {
          "reference": "urn:uuid:1d4f28b5-a148-4848-86bf-6f880693c908"
        }
      }
    },
    {
      "fullUrl": "urn:uuid:e3940618-7d02-471c-a9ff-4a48a83d554f",
      "resource": {
        "resourceType": "Observation",
        "id": "e3940618-7d02-471c-a9ff-4a48a83d554f",
        "meta": {
          "profile": [
            "http://hl7.eu/fhir/laboratory/StructureDefinition/Observation-resultslab-eu-lab"
          ]
        },
        "performer": [
          {
            "display": "The Central European Lab"
          }
        ],
        "category": [
          {
            "coding": [
              {
                "system": "http://terminology.hl7.org/CodeSystem/observation-category",
                "code": "laboratory"
              }
            ]
          }
        ],
        "code": {
          "coding": [
            {
              "code": "5792-7",
              "system": "http://loinc.org",
              "display": "Glucose [Mass/volume] in Urine by Test strip"
            }
          ],
          "text": "Glucose [Mass/volume] in Urine by Test strip"
        },
        "valueQuantity": {
          "system": "http://unitsofmeasure.org",
          "value": 1.1,
          "unit": "mg/dL",
          "code": "mg/dL"
        },
        "referenceRange": [
          {
            "low": {
              "value": 0.8,
              "code": "mg/dL",
              "system": "http://unitsofmeasure.org"
            }
          },
          {
            "high": {
              "value": 0,
              "code": "mg/dL",
              "system": "http://unitsofmeasure.org"
            }
          }
        ],
        "interpretation": [
          {
            "coding": [
              {
                "code": "H",
                "system": "http://terminology.hl7.org/CodeSystem/v3-ObservationInterpretation",
                "display": "High"
              }
            ]
          }
        ],
        "text": {
          "status": "generated",
          "div": "<div xmlns=\"http://www.w3.org/1999/xhtml\"><table class=\"hl7__eu__lab__report\"><tr><th>Test</th><th>05-Dec-2024</th><th>Reference&#xA0;Range</th><th>Unit</th></tr><tr><td>Glucose [Mass/volume] in Urine by Test strip</td><td>1.1</td><td>0.8 - 0</td><td>H</td><td>mg/dL</td></tr></table></div>"
        },
        "status": "final",
        "subject": {
          "reference": "urn:uuid:c04f6085-fc0e-4f3a-af52-ed1f88562ea9",
          "display": "Marthe Gallet"
        },
        "effectiveDateTime": "2024-12-05T19:05:43Z",
        "specimen": {
          "reference": "urn:uuid:1d4f28b5-a148-4848-86bf-6f880693c908"
        }
      }
    },
    {
      "fullUrl": "urn:uuid:b66fbe57-3608-49b8-b237-224702c63a19",
      "resource": {
        "resourceType": "Observation",
        "id": "b66fbe57-3608-49b8-b237-224702c63a19",
        "meta": {
          "profile": [
            "http://hl7.eu/fhir/laboratory/StructureDefinition/Observation-resultslab-eu-lab"
          ]
        },
        "performer": [
          {
            "display": "The Central European Lab"
          }
        ],
        "category": [
          {
            "coding": [
              {
                "system": "http://terminology.hl7.org/CodeSystem/observation-category",
                "code": "laboratory"
              }
            ]
          }
        ],
        "code": {
          "coding": [
            {
              "code": "25428-4",
              "system": "http://loinc.org",
              "display": "Glucose [Presence] in Urine by Test strip"
            }
          ],
          "text": "Glucose [Presence] in Urine by Test strip"
        },
        "text": {
          "status": "generated",
          "div": "<div xmlns=\"http://www.w3.org/1999/xhtml\"><table class=\"hl7__eu__lab__report\"><tr><th>Test</th><th>05-Dec-2024</th><th>Reference&#xA0;Range</th><th>Unit</th></tr><tr><td>Glucose [Presence] in Urine by Test strip</td></tr></table></div>"
        },
        "status": "final",
        "subject": {
          "reference": "urn:uuid:c04f6085-fc0e-4f3a-af52-ed1f88562ea9",
          "display": "Marthe Gallet"
        },
        "effectiveDateTime": "2024-12-05T19:05:43Z",
        "specimen": {
          "reference": "urn:uuid:1d4f28b5-a148-4848-86bf-6f880693c908"
        }
      }
    },
    {
      "fullUrl": "urn:uuid:4bed3c81-356d-42b7-a2e5-e61e9a2b66e3",
      "resource": {
        "resourceType": "Observation",
        "id": "4bed3c81-356d-42b7-a2e5-e61e9a2b66e3",
        "meta": {
          "profile": [
            "http://hl7.eu/fhir/laboratory/StructureDefinition/Observation-resultslab-eu-lab"
          ]
        },
        "performer": [
          {
            "display": "The Central European Lab"
          }
        ],
        "category": [
          {
            "coding": [
              {
                "system": "http://terminology.hl7.org/CodeSystem/observation-category",
                "code": "laboratory"
              }
            ]
          }
        ],
        "code": {
          "coding": [
            {
              "code": "20505-4",
              "system": "http://loinc.org",
              "display": "Bilirubin.total [Mass/volume] in Urine by Test strip"
            }
          ],
          "text": "Bilirubin.total [Mass/volume] in Urine by Test strip"
        },
        "valueQuantity": {
          "system": "http://unitsofmeasure.org",
          "value": 0.3,
          "unit": "mg/dL",
          "code": "mg/dL"
        },
        "referenceRange": [
          {
            "low": {
              "value": 0,
              "code": "mg/dL",
              "system": "http://unitsofmeasure.org"
            }
          },
          {
            "high": {
              "value": 1,
              "code": "mg/dL",
              "system": "http://unitsofmeasure.org"
            }
          }
        ],
        "text": {
          "status": "generated",
          "div": "<div xmlns=\"http://www.w3.org/1999/xhtml\"><table class=\"hl7__eu__lab__report\"><tr><th>Test</th><th>05-Dec-2024</th><th>Reference&#xA0;Range</th><th>Unit</th></tr><tr><td>Bilirubin.total [Mass/volume] in Urine by Test strip</td><td>0.3</td><td>0 - 1</td><td></td><td>mg/dL</td></tr></table></div>"
        },
        "status": "final",
        "subject": {
          "reference": "urn:uuid:c04f6085-fc0e-4f3a-af52-ed1f88562ea9",
          "display": "Marthe Gallet"
        },
        "effectiveDateTime": "2024-12-05T19:05:43Z",
        "specimen": {
          "reference": "urn:uuid:1d4f28b5-a148-4848-86bf-6f880693c908"
        }
      }
    },
    {
      "fullUrl": "urn:uuid:d6a1520c-0d50-4b37-a30e-876eebf0160c",
      "resource": {
        "resourceType": "Observation",
        "id": "d6a1520c-0d50-4b37-a30e-876eebf0160c",
        "meta": {
          "profile": [
            "http://hl7.eu/fhir/laboratory/StructureDefinition/Observation-resultslab-eu-lab"
          ]
        },
        "performer": [
          {
            "display": "The Central European Lab"
          }
        ],
        "category": [
          {
            "coding": [
              {
                "system": "http://terminology.hl7.org/CodeSystem/observation-category",
                "code": "laboratory"
              }
            ]
          }
        ],
        "code": {
          "coding": [
            {
              "code": "5770-3",
              "system": "http://loinc.org",
              "display": "Bilirubin.total [Presence] in Urine by Test strip"
            }
          ],
          "text": "Bilirubin.total [Presence] in Urine by Test strip"
        },
        "text": {
          "status": "generated",
          "div": "<div xmlns=\"http://www.w3.org/1999/xhtml\"><table class=\"hl7__eu__lab__report\"><tr><th>Test</th><th>05-Dec-2024</th><th>Reference&#xA0;Range</th><th>Unit</th></tr><tr><td>Bilirubin.total [Presence] in Urine by Test strip</td></tr></table></div>"
        },
        "status": "final",
        "subject": {
          "reference": "urn:uuid:c04f6085-fc0e-4f3a-af52-ed1f88562ea9",
          "display": "Marthe Gallet"
        },
        "effectiveDateTime": "2024-12-05T19:05:43Z",
        "specimen": {
          "reference": "urn:uuid:1d4f28b5-a148-4848-86bf-6f880693c908"
        }
      }
    },
    {
      "fullUrl": "urn:uuid:038b67f4-b6d2-401a-8147-57c073302c10",
      "resource": {
        "resourceType": "Observation",
        "id": "038b67f4-b6d2-401a-8147-57c073302c10",
        "meta": {
          "profile": [
            "http://hl7.eu/fhir/laboratory/StructureDefinition/Observation-resultslab-eu-lab"
          ]
        },
        "performer": [
          {
            "display": "The Central European Lab"
          }
        ],
        "category": [
          {
            "coding": [
              {
                "system": "http://terminology.hl7.org/CodeSystem/observation-category",
                "code": "laboratory"
              }
            ]
          }
        ],
        "code": {
          "coding": [
            {
              "code": "5797-6",
              "system": "http://loinc.org",
              "display": "Ketones [Mass/volume] in Urine by Test strip"
            }
          ],
          "text": "Ketones [Mass/volume] in Urine by Test strip"
        },
        "valueQuantity": {
          "system": "http://unitsofmeasure.org",
          "value": 17.4,
          "unit": "mg/dL",
          "code": "mg/dL"
        },
        "referenceRange": [
          {
            "low": {
              "value": 0,
              "code": "mg/dL",
              "system": "http://unitsofmeasure.org"
            }
          },
          {
            "high": {
              "value": 20,
              "code": "mg/dL",
              "system": "http://unitsofmeasure.org"
            }
          }
        ],
        "text": {
          "status": "generated",
          "div": "<div xmlns=\"http://www.w3.org/1999/xhtml\"><table class=\"hl7__eu__lab__report\"><tr><th>Test</th><th>05-Dec-2024</th><th>Reference&#xA0;Range</th><th>Unit</th></tr><tr><td>Ketones [Mass/volume] in Urine by Test strip</td><td>17.4</td><td>0 - 20</td><td></td><td>mg/dL</td></tr></table></div>"
        },
        "status": "final",
        "subject": {
          "reference": "urn:uuid:c04f6085-fc0e-4f3a-af52-ed1f88562ea9",
          "display": "Marthe Gallet"
        },
        "effectiveDateTime": "2024-12-05T19:05:43Z",
        "specimen": {
          "reference": "urn:uuid:1d4f28b5-a148-4848-86bf-6f880693c908"
        }
      }
    },
    {
      "fullUrl": "urn:uuid:a7090488-7d0d-4f73-a523-1813c3c5e444",
      "resource": {
        "resourceType": "Observation",
        "id": "a7090488-7d0d-4f73-a523-1813c3c5e444",
        "meta": {
          "profile": [
            "http://hl7.eu/fhir/laboratory/StructureDefinition/Observation-resultslab-eu-lab"
          ]
        },
        "performer": [
          {
            "display": "The Central European Lab"
          }
        ],
        "category": [
          {
            "coding": [
              {
                "system": "http://terminology.hl7.org/CodeSystem/observation-category",
                "code": "laboratory"
              }
            ]
          }
        ],
        "code": {
          "coding": [
            {
              "code": "2514-8",
              "system": "http://loinc.org",
              "display": "Ketones [Presence] in Urine by Test strip"
            }
          ],
          "text": "Ketones [Presence] in Urine by Test strip"
        },
        "text": {
          "status": "generated",
          "div": "<div xmlns=\"http://www.w3.org/1999/xhtml\"><table class=\"hl7__eu__lab__report\"><tr><th>Test</th><th>05-Dec-2024</th><th>Reference&#xA0;Range</th><th>Unit</th></tr><tr><td>Ketones [Presence] in Urine by Test strip</td></tr></table></div>"
        },
        "status": "final",
        "subject": {
          "reference": "urn:uuid:c04f6085-fc0e-4f3a-af52-ed1f88562ea9",
          "display": "Marthe Gallet"
        },
        "effectiveDateTime": "2024-12-05T19:05:43Z",
        "specimen": {
          "reference": "urn:uuid:1d4f28b5-a148-4848-86bf-6f880693c908"
        }
      }
    },
    {
      "fullUrl": "urn:uuid:0f611daa-addf-4e87-ade0-353c662e3c09",
      "resource": {
        "resourceType": "Observation",
        "id": "0f611daa-addf-4e87-ade0-353c662e3c09",
        "meta": {
          "profile": [
            "http://hl7.eu/fhir/laboratory/StructureDefinition/Observation-resultslab-eu-lab"
          ]
        },
        "performer": [
          {
            "display": "The Central European Lab"
          }
        ],
        "category": [
          {
            "coding": [
              {
                "system": "http://terminology.hl7.org/CodeSystem/observation-category",
                "code": "laboratory"
              }
            ]
          }
        ],
        "code": {
          "coding": [
            {
              "code": "5811-5",
              "system": "http://loinc.org",
              "display": "Specific gravity of Urine by Test strip"
            }
          ],
          "text": "Specific gravity of Urine by Test strip"
        },
        "valueQuantity": {
          "system": "http://unitsofmeasure.org",
          "value": 1,
          "unit": "{nominal}",
          "code": "{nominal}"
        },
        "referenceRange": [
          {
            "low": {
              "value": 1.01,
              "code": "g/mL",
              "system": "http://unitsofmeasure.org"
            }
          },
          {
            "high": {
              "value": 1.03,
              "code": "g/mL",
              "system": "http://unitsofmeasure.org"
            }
          }
        ],
        "interpretation": [
          {
            "coding": [
              {
                "code": "L",
                "system": "http://terminology.hl7.org/CodeSystem/v3-ObservationInterpretation",
                "display": "Low"
              }
            ]
          }
        ],
        "text": {
          "status": "generated",
          "div": "<div xmlns=\"http://www.w3.org/1999/xhtml\"><table class=\"hl7__eu__lab__report\"><tr><th>Test</th><th>05-Dec-2024</th><th>Reference&#xA0;Range</th><th>Unit</th></tr><tr><td>Specific gravity of Urine by Test strip</td><td>1.0</td><td>1.01 - 1.03</td><td>L</td><td>{nominal}</td></tr></table></div>"
        },
        "status": "final",
        "subject": {
          "reference": "urn:uuid:c04f6085-fc0e-4f3a-af52-ed1f88562ea9",
          "display": "Marthe Gallet"
        },
        "effectiveDateTime": "2024-12-05T19:05:43Z",
        "specimen": {
          "reference": "urn:uuid:1d4f28b5-a148-4848-86bf-6f880693c908"
        }
      }
    },
    {
      "fullUrl": "urn:uuid:600d3955-af29-44c7-99a8-39560dccce57",
      "resource": {
        "resourceType": "Observation",
        "id": "600d3955-af29-44c7-99a8-39560dccce57",
        "meta": {
          "profile": [
            "http://hl7.eu/fhir/laboratory/StructureDefinition/Observation-resultslab-eu-lab"
          ]
        },
        "performer": [
          {
            "display": "The Central European Lab"
          }
        ],
        "category": [
          {
            "coding": [
              {
                "system": "http://terminology.hl7.org/CodeSystem/observation-category",
                "code": "laboratory"
              }
            ]
          }
        ],
        "code": {
          "coding": [
            {
              "code": "5803-2",
              "system": "http://loinc.org",
              "display": "pH of Urine by Test strip"
            }
          ],
          "text": "pH of Urine by Test strip"
        },
        "valueQuantity": {
          "system": "http://unitsofmeasure.org",
          "value": 5.1,
          "unit": "pH",
          "code": "pH"
        },
        "referenceRange": [
          {
            "low": {
              "value": 4.6,
              "code": "pH",
              "system": "http://unitsofmeasure.org"
            }
          },
          {
            "high": {
              "value": 7,
              "code": "pH",
              "system": "http://unitsofmeasure.org"
            }
          }
        ],
        "text": {
          "status": "generated",
          "div": "<div xmlns=\"http://www.w3.org/1999/xhtml\"><table class=\"hl7__eu__lab__report\"><tr><th>Test</th><th>05-Dec-2024</th><th>Reference&#xA0;Range</th><th>Unit</th></tr><tr><td>pH of Urine by Test strip</td><td>5.1</td><td>4.6 - 7</td><td></td><td>pH</td></tr></table></div>"
        },
        "status": "final",
        "subject": {
          "reference": "urn:uuid:c04f6085-fc0e-4f3a-af52-ed1f88562ea9",
          "display": "Marthe Gallet"
        },
        "effectiveDateTime": "2024-12-05T19:05:43Z",
        "specimen": {
          "reference": "urn:uuid:1d4f28b5-a148-4848-86bf-6f880693c908"
        }
      }
    },
    {
      "fullUrl": "urn:uuid:d6def56c-ddce-4454-88f2-ed00ea79a9b7",
      "resource": {
        "resourceType": "Observation",
        "id": "d6def56c-ddce-4454-88f2-ed00ea79a9b7",
        "meta": {
          "profile": [
            "http://hl7.eu/fhir/laboratory/StructureDefinition/Observation-resultslab-eu-lab"
          ]
        },
        "performer": [
          {
            "display": "The Central European Lab"
          }
        ],
        "category": [
          {
            "coding": [
              {
                "system": "http://terminology.hl7.org/CodeSystem/observation-category",
                "code": "laboratory"
              }
            ]
          }
        ],
        "code": {
          "coding": [
            {
              "code": "5804-0",
              "system": "http://loinc.org",
              "display": "Protein [Mass/volume] in Urine by Test strip"
            }
          ],
          "text": "Protein [Mass/volume] in Urine by Test strip"
        },
        "valueQuantity": {
          "system": "http://unitsofmeasure.org",
          "value": 196.4,
          "unit": "mg/dL",
          "code": "mg/dL"
        },
        "referenceRange": [
          {
            "low": {
              "value": 0,
              "code": "mg/dL",
              "system": "http://unitsofmeasure.org"
            }
          },
          {
            "high": {
              "value": 15,
              "code": "mg/dL",
              "system": "http://unitsofmeasure.org"
            }
          }
        ],
        "interpretation": [
          {
            "coding": [
              {
                "code": "H",
                "system": "http://terminology.hl7.org/CodeSystem/v3-ObservationInterpretation",
                "display": "High"
              }
            ]
          }
        ],
        "text": {
          "status": "generated",
          "div": "<div xmlns=\"http://www.w3.org/1999/xhtml\"><table class=\"hl7__eu__lab__report\"><tr><th>Test</th><th>05-Dec-2024</th><th>Reference&#xA0;Range</th><th>Unit</th></tr><tr><td>Protein [Mass/volume] in Urine by Test strip</td><td>196.4</td><td>0 - 15</td><td>H</td><td>mg/dL</td></tr></table></div>"
        },
        "status": "final",
        "subject": {
          "reference": "urn:uuid:c04f6085-fc0e-4f3a-af52-ed1f88562ea9",
          "display": "Marthe Gallet"
        },
        "effectiveDateTime": "2024-12-05T19:05:43Z",
        "specimen": {
          "reference": "urn:uuid:1d4f28b5-a148-4848-86bf-6f880693c908"
        }
      }
    },
    {
      "fullUrl": "urn:uuid:319966d1-3e90-4b30-84af-0f2bf5985fb9",
      "resource": {
        "resourceType": "Observation",
        "id": "319966d1-3e90-4b30-84af-0f2bf5985fb9",
        "meta": {
          "profile": [
            "http://hl7.eu/fhir/laboratory/StructureDefinition/Observation-resultslab-eu-lab"
          ]
        },
        "performer": [
          {
            "display": "The Central European Lab"
          }
        ],
        "category": [
          {
            "coding": [
              {
                "system": "http://terminology.hl7.org/CodeSystem/observation-category",
                "code": "laboratory"
              }
            ]
          }
        ],
        "code": {
          "coding": [
            {
              "code": "20454-5",
              "system": "http://loinc.org",
              "display": "Protein [Presence] in Urine by Test strip"
            }
          ],
          "text": "Protein [Presence] in Urine by Test strip"
        },
        "text": {
          "status": "generated",
          "div": "<div xmlns=\"http://www.w3.org/1999/xhtml\"><table class=\"hl7__eu__lab__report\"><tr><th>Test</th><th>05-Dec-2024</th><th>Reference&#xA0;Range</th><th>Unit</th></tr><tr><td>Protein [Presence] in Urine by Test strip</td></tr></table></div>"
        },
        "status": "final",
        "subject": {
          "reference": "urn:uuid:c04f6085-fc0e-4f3a-af52-ed1f88562ea9",
          "display": "Marthe Gallet"
        },
        "effectiveDateTime": "2024-12-05T19:05:43Z",
        "specimen": {
          "reference": "urn:uuid:1d4f28b5-a148-4848-86bf-6f880693c908"
        }
      }
    },
    {
      "fullUrl": "urn:uuid:97838dba-7cbe-4b02-b59b-6f580ea61a8e",
      "resource": {
        "resourceType": "Observation",
        "id": "97838dba-7cbe-4b02-b59b-6f580ea61a8e",
        "meta": {
          "profile": [
            "http://hl7.eu/fhir/laboratory/StructureDefinition/Observation-resultslab-eu-lab"
          ]
        },
        "performer": [
          {
            "display": "The Central European Lab"
          }
        ],
        "category": [
          {
            "coding": [
              {
                "system": "http://terminology.hl7.org/CodeSystem/observation-category",
                "code": "laboratory"
              }
            ]
          }
        ],
        "code": {
          "coding": [
            {
              "code": "5802-4",
              "system": "http://loinc.org",
              "display": "Nitrite [Presence] in Urine by Test strip"
            }
          ],
          "text": "Nitrite [Presence] in Urine by Test strip"
        },
        "text": {
          "status": "generated",
          "div": "<div xmlns=\"http://www.w3.org/1999/xhtml\"><table class=\"hl7__eu__lab__report\"><tr><th>Test</th><th>05-Dec-2024</th><th>Reference&#xA0;Range</th><th>Unit</th></tr><tr><td>Nitrite [Presence] in Urine by Test strip</td></tr></table></div>"
        },
        "status": "final",
        "subject": {
          "reference": "urn:uuid:c04f6085-fc0e-4f3a-af52-ed1f88562ea9",
          "display": "Marthe Gallet"
        },
        "effectiveDateTime": "2024-12-05T19:05:43Z",
        "specimen": {
          "reference": "urn:uuid:1d4f28b5-a148-4848-86bf-6f880693c908"
        }
      }
    },
    {
      "fullUrl": "urn:uuid:046dd6d7-3f6d-442d-a74c-d0f5b086278b",
      "resource": {
        "resourceType": "Observation",
        "id": "046dd6d7-3f6d-442d-a74c-d0f5b086278b",
        "meta": {
          "profile": [
            "http://hl7.eu/fhir/laboratory/StructureDefinition/Observation-resultslab-eu-lab"
          ]
        },
        "performer": [
          {
            "display": "The Central European Lab"
          }
        ],
        "category": [
          {
            "coding": [
              {
                "system": "http://terminology.hl7.org/CodeSystem/observation-category",
                "code": "laboratory"
              }
            ]
          }
        ],
        "code": {
          "coding": [
            {
              "code": "5794-3",
              "system": "http://loinc.org",
              "display": "Hemoglobin [Presence] in Urine by Test strip"
            }
          ],
          "text": "Hemoglobin [Presence] in Urine by Test strip"
        },
        "text": {
          "status": "generated",
          "div": "<div xmlns=\"http://www.w3.org/1999/xhtml\"><table class=\"hl7__eu__lab__report\"><tr><th>Test</th><th>05-Dec-2024</th><th>Reference&#xA0;Range</th><th>Unit</th></tr><tr><td>Hemoglobin [Presence] in Urine by Test strip</td></tr></table></div>"
        },
        "status": "final",
        "subject": {
          "reference": "urn:uuid:c04f6085-fc0e-4f3a-af52-ed1f88562ea9",
          "display": "Marthe Gallet"
        },
        "effectiveDateTime": "2024-12-05T19:05:43Z",
        "specimen": {
          "reference": "urn:uuid:1d4f28b5-a148-4848-86bf-6f880693c908"
        }
      }
    },
    {
      "fullUrl": "urn:uuid:29c5f1d3-85fe-41af-97c6-f613c2851e4d",
      "resource": {
        "resourceType": "Observation",
        "id": "29c5f1d3-85fe-41af-97c6-f613c2851e4d",
        "meta": {
          "profile": [
            "http://hl7.eu/fhir/laboratory/StructureDefinition/Observation-resultslab-eu-lab"
          ]
        },
        "performer": [
          {
            "display": "The Central European Lab"
          }
        ],
        "category": [
          {
            "coding": [
              {
                "system": "http://terminology.hl7.org/CodeSystem/observation-category",
                "code": "laboratory"
              }
            ]
          }
        ],
        "code": {
          "coding": [
            {
              "code": "5799-2",
              "system": "http://loinc.org",
              "display": "Leukocyte esterase [Presence] in Urine by Test strip"
            }
          ],
          "text": "Leukocyte esterase [Presence] in Urine by Test strip"
        },
        "text": {
          "status": "generated",
          "div": "<div xmlns=\"http://www.w3.org/1999/xhtml\"><table class=\"hl7__eu__lab__report\"><tr><th>Test</th><th>05-Dec-2024</th><th>Reference&#xA0;Range</th><th>Unit</th></tr><tr><td>Leukocyte esterase [Presence] in Urine by Test strip</td></tr></table></div>"
        },
        "status": "final",
        "subject": {
          "reference": "urn:uuid:c04f6085-fc0e-4f3a-af52-ed1f88562ea9",
          "display": "Marthe Gallet"
        },
        "effectiveDateTime": "2024-12-05T19:05:43Z",
        "specimen": {
          "reference": "urn:uuid:1d4f28b5-a148-4848-86bf-6f880693c908"
        }
      }
    },
    {
      "fullUrl": "urn:uuid:29bb9d06-ce42-44f7-91f7-bf7020dc9481",
      "resource": {
        "resourceType": "Device",
        "id": "29bb9d06-ce42-44f7-91f7-bf7020dc9481",
        "deviceName": [
          {
            "name": "SYNDERAI Synthetic Generator",
            "type": "manufacturer-name"
          }
        ],
        "version": [
          {
            "value": "5.0"
          }
        ],
        "text": {
          "status": "generated",
          "div": "<div xmlns=\"http://www.w3.org/1999/xhtml\">SYNDERAI Synthetic Generator v5.0</div>"
        },
        "status": "active\"",
        "distinctIdentifier": "synderai-generator-50",
        "manufacturer": "SYNDERAI Project"
      }
    },
    {
      "fullUrl": "urn:uuid:d5536e88-9e6b-43d4-92b7-1ea2efb78274",
      "resource": {
        "resourceType": "Provenance",
        "id": "d5536e88-9e6b-43d4-92b7-1ea2efb78274",
        "target": [
          {
            "reference": "Patient/c04f6085-fc0e-4f3a-af52-ed1f88562ea9"
          },
          {
            "reference": "Bundle/8ff3a61d-9836-4ccf-8f6e-6d4a7d52a043"
          },
          {
            "reference": "Composition/793fd340-a93c-4a48-b3b9-1826f18b0bb2"
          },
          {
            "reference": "PractitionerRole/bcaeff5d-682e-450e-9abd-f17566342aad"
          },
          {
            "reference": "Practitioner/e40c605d-7086-4071-8e4d-5e007261acfd"
          },
          {
            "reference": "PractitionerRole/e0128a4d-122a-4c0e-8ac1-f281bd58aad1"
          },
          {
            "reference": "Organization/9da6ddce-6bce-4e81-b091-319af36b0aab"
          }
        ],
        "activity": {
          "text": "Synthetic Example Data Generation"
        },
        "policy": [
          "https://synderai.net/synderai-synthetic-data-policy"
        ],
        "agent": [
          {
            "type": {
              "text": "author"
            },
            "who": {
              "reference": "Device/29bb9d06-ce42-44f7-91f7-bf7020dc9481"
            }
          }
        ],
        "reason": [
          {
            "text": "Interoperability Testing and Training (non-clinical use)"
          }
        ],
        "text": {
          "status": "generated",
          "div": "<div xmlns=\"http://www.w3.org/1999/xhtml\">Provenance for SYNDERAI Synthetic Example Data Resource</div>"
        },
        "recorded": "2024-12-05T20:05:43Z"
      }
    },
    {
      "fullUrl": "urn:uuid:bcaeff5d-682e-450e-9abd-f17566342aad",
      "resource": {
        "resourceType": "PractitionerRole",
        "id": "bcaeff5d-682e-450e-9abd-f17566342aad",
        "meta": {
          "profile": [
            "http://hl7.eu/fhir/base/StructureDefinition/practitionerRole-eu"
          ]
        },
        "text": {
          "status": "generated",
          "div": "<div xmlns=\"http://www.w3.org/1999/xhtml\">Laboratory Role Id: bcaeff5d-682e-450e-9abd-f17566342aad</div>"
        },
        "practitioner": {
          "reference": "urn:uuid:e40c605d-7086-4071-8e4d-5e007261acfd"
        }
      }
    },
    {
      "fullUrl": "urn:uuid:e40c605d-7086-4071-8e4d-5e007261acfd",
      "resource": {
        "resourceType": "Practitioner",
        "id": "e40c605d-7086-4071-8e4d-5e007261acfd",
        "meta": {
          "profile": [
            "http://hl7.eu/fhir/base/StructureDefinition/practitioner-eu"
          ]
        },
        "identifier": [
          {
            "assigner": {
              "display": "HL7 Europe"
            },
            "system": "urn:oid:2.16.840.1.113883.2.51.999",
            "value": "6fa3f8c4-c001-4733-9f34-189631da1430"
          }
        ],
        "name": [
          {
            "prefix": [
              "dr"
            ],
            "given": [
              "Ex"
            ],
            "family": "Ample"
          }
        ],
        "address": [
          {
            "line": [
              "Laboratoire Central Européenne",
              "Boulevard du Jardin Botanique 32"
            ],
            "postalCode": "1000",
            "city": "Brussels",
            "country": "Belgium"
          }
        ],
        "text": {
          "status": "generated",
          "div": "<div xmlns=\"http://www.w3.org/1999/xhtml\">Laboratory: Laboratoire Central Européenne, 1000 Brussels, Belgium</div>"
        }
      }
    }
  ],
  "type": "document",
  "timestamp": "2024-12-05T20:05:43Z"
}
