{
  "resourceType": "Bundle",
  "id": "9350a1a0-bdab-4b84-a443-c46570899327",
  "meta": {
    "profile": [
      "http://hl7.eu/fhir/laboratory/StructureDefinition/Bundle-eu-lab"
    ]
  },
  "identifier": {
    "assigner": {
      "display": "HL7 Europe"
    },
    "system": "urn:oid:2.16.840.1.113883.2.51.999",
    "value": "448a12e3-228e-4504-852d-07ed6c99161e"
  },
  "entry": [
    {
      "fullUrl": "urn:uuid:f6d3f12b-3617-491e-81bc-4dbaab9a35d0",
      "resource": {
        "resourceType": "Composition",
        "id": "f6d3f12b-3617-491e-81bc-4dbaab9a35d0",
        "meta": {
          "profile": [
            "http://hl7.eu/fhir/laboratory/StructureDefinition/Composition-eu-lab"
          ]
        },
        "identifier": {
          "assigner": {
            "display": "HL7 Europe"
          },
          "system": "urn:oid:2.16.840.1.113883.2.51.999",
          "value": "2a3fde58-0d23-4d23-8a17-3f5a19903994"
        },
        "author": [
          {
            "reference": "urn:uuid:9b080e67-06c0-4df6-a00a-7b2c96481de7"
          }
        ],
        "category": [
          {
            "coding": [
              {
                "code": "26436-6",
                "system": "http://loinc.org",
                "display": "Laboratory studies (set)"
              }
            ]
          }
        ],
        "type": {
          "coding": [
            {
              "code": "11502-2",
              "system": "http://loinc.org",
              "display": "Laboratory report"
            }
          ],
          "text": "Laboratory Report"
        },
        "section": [
          {
            "code": {
              "coding": [
                {
                  "code": "26436-6",
                  "system": "http://loinc.org",
                  "display": "Laboratory studies (set)"
                }
              ],
              "text": "Laboratory studies"
            },
            "section": [
              {
                "code": {
                  "coding": [
                    {
                      "code": "$18719-5",
                      "system": "http://loinc.org",
                      "display": "Chemistry studies (set)"
                    }
                  ],
                  "text": "Chemistry"
                },
                "entry": [
                  {
                    "reference": "urn:uuid:6c33e240-d525-46be-b221-b207f6033a46"
                  },
                  {
                    "reference": "urn:uuid:7361dd76-1455-40a2-926f-cab6d686dd89"
                  },
                  {
                    "reference": "urn:uuid:5bc9a7e6-0e99-44ab-a1cb-9e76787fc6b4"
                  },
                  {
                    "reference": "urn:uuid:dc26525f-5b27-4499-9ebc-a298745fb079"
                  },
                  {
                    "reference": "urn:uuid:73cf8d07-b85b-44ff-85a3-334a5e8b885b"
                  },
                  {
                    "reference": "urn:uuid:03692ac9-6db0-4002-a473-bfc988ca7234"
                  },
                  {
                    "reference": "urn:uuid:4166bd54-6c53-4cab-9760-1a8e01b6f89a"
                  },
                  {
                    "reference": "urn:uuid:2f6000cc-486d-497e-9fba-2f1feb36777b"
                  },
                  {
                    "reference": "urn:uuid:d66ddaab-f9ba-43d4-89b6-78c96b6480cb"
                  },
                  {
                    "reference": "urn:uuid:13759cad-c139-4cf0-af58-1994dea80dfa"
                  },
                  {
                    "reference": "urn:uuid:4d987397-1d38-4134-9e87-ba5231f9a386"
                  },
                  {
                    "reference": "urn:uuid:a61249be-4516-4e1c-bf44-10f1074b8c8f"
                  },
                  {
                    "reference": "urn:uuid:75bdb535-3c38-4906-8728-38c5e451fbd9"
                  },
                  {
                    "reference": "urn:uuid:28204763-ca40-4e40-ac1f-b0fe7554bc77"
                  },
                  {
                    "reference": "urn:uuid:83c32f2b-b33c-4b54-b22b-0f50ac586f4e"
                  },
                  {
                    "reference": "urn:uuid:bf7ced31-64e3-4cd2-b8cc-77ccb1e25e99"
                  },
                  {
                    "reference": "urn:uuid:2737840f-f487-4507-a5e2-a539147405a7"
                  },
                  {
                    "reference": "urn:uuid:305de546-e408-4637-b347-27e975ae1903"
                  }
                ],
                "text": {
                  "status": "generated",
                  "div": "<div xmlns=\"http://www.w3.org/1999/xhtml\"><h3>Chemistry</h3><table class=\"hl7__eu__lab__report\"><thead><tr><th>Test</th><th>09-SEP-2021</th><th>Reference&#xA0;Range</th><th>Unit</th></tr></thead><tbody><tr><td>Glucose [Mass/volume] in Serum or Plasma</td><td>76.0</td><td>70 - 139</td><td>mg/dL</td></tr><tr><td>Urea nitrogen [Mass/volume] in Serum or Plasma</td><td>15.9</td><td>7 - 20</td><td>mg/dL</td></tr><tr><td>Creatinine [Mass/volume] in Serum or Plasma</td><td><strong>1.8 H</strong></td><td>0.6 - 1.1</td><td>mg/dL</td></tr><tr><td>Calcium [Mass/volume] in Serum or Plasma</td><td>9.8</td><td>8.5 - 10.4</td><td>mg/dL</td></tr><tr><td>Sodium [Moles/volume] in Serum or Plasma</td><td>138.4</td><td>135 - 145</td><td>mmol/L</td></tr><tr><td>Potassium [Moles/volume] in Serum or Plasma</td><td>4.6</td><td>3.5 - 5.1</td><td>mmol/L</td></tr><tr><td>Chloride [Moles/volume] in Serum or Plasma</td><td><strong>110.9 H</strong></td><td>98 - 110</td><td>mmol/L</td></tr><tr><td>Carbon dioxide, total [Moles/volume] in Serum or Plasma</td><td>22.9</td><td>22 - 32</td><td>mmol/L</td></tr><tr><td>Ketones [Presence] in Urine by Test strip</td><td>Urine ketone test = +</td><td></td><td></td></tr><tr><td>Hemoglobin A1c/Hemoglobin.total in Blood</td><td><strong>3.0 L</strong></td><td>4 - 6</td><td>%</td></tr><tr><td>Glucose [Mass/volume] in Blood</td><td>76.0</td><td>70 - 100</td><td>mg/dL</td></tr><tr><td>Urea nitrogen [Mass/volume] in Blood</td><td>15.9</td><td>7 - 20</td><td>mg/dL</td></tr><tr><td>Creatinine [Mass/volume] in Blood</td><td><strong>1.6 H</strong></td><td>0.6 - 1.3</td><td>mg/dL</td></tr><tr><td>Calcium [Mass/volume] in Blood</td><td>9.8</td><td>8.6 - 10.4</td><td>mg/dL</td></tr><tr><td>Sodium [Moles/volume] in Blood</td><td>138.4</td><td>135 - 145</td><td>mmol/L</td></tr><tr><td>Potassium [Moles/volume] in Blood</td><td>4.6</td><td>3.5 - 5.1</td><td>mmol/L</td></tr><tr><td>Chloride [Moles/volume] in Blood</td><td><strong>110.9 H</strong></td><td>98 - 110</td><td>mmol/L</td></tr><tr><td>Carbon dioxide, total [Moles/volume] in Blood</td><td>22.9</td><td>22 - 29</td><td>mmol/L</td></tr></tbody></table></div>"
                },
                "title": "Chemistry"
              },
              {
                "code": {
                  "coding": [
                    {
                      "code": "$18729-4",
                      "system": "http://loinc.org",
                      "display": "Urinalysis studies (set)"
                    }
                  ],
                  "text": "Urinalysis"
                },
                "entry": [
                  {
                    "reference": "urn:uuid:844993a1-6754-4a65-9ed7-36f6f44a8ac1"
                  },
                  {
                    "reference": "urn:uuid:0c951f4b-b1cf-4992-8f92-f6f94a271565"
                  },
                  {
                    "reference": "urn:uuid:6272719e-a9ac-43d5-8146-7ab77a0cdd31"
                  },
                  {
                    "reference": "urn:uuid:fd4a5fff-ed22-4145-9b10-42224cc6ff21"
                  },
                  {
                    "reference": "urn:uuid:c103d4da-1385-4643-ab70-79fe7568c338"
                  },
                  {
                    "reference": "urn:uuid:c2e85255-197d-48ed-9f24-d84f98e60d03"
                  },
                  {
                    "reference": "urn:uuid:ff89870b-eb9b-47d6-beca-2b599a34c033"
                  },
                  {
                    "reference": "urn:uuid:ff0b4d9a-f749-46fb-a6bf-b4e788646670"
                  },
                  {
                    "reference": "urn:uuid:63ba8a43-ccce-454d-88a5-058073b81e34"
                  },
                  {
                    "reference": "urn:uuid:8f51a761-0bb6-4636-a7db-9d0aad917450"
                  },
                  {
                    "reference": "urn:uuid:bbaa11d5-fb0e-43e9-9cb8-f40835de779a"
                  },
                  {
                    "reference": "urn:uuid:d261d0ee-a8b8-4925-a684-4b16ace7153f"
                  }
                ],
                "text": {
                  "status": "generated",
                  "div": "<div xmlns=\"http://www.w3.org/1999/xhtml\"><h3>Urinalysis</h3><table class=\"hl7__eu__lab__report\"><thead><tr><th>Test</th><th>09-SEP-2021</th><th>Reference&#xA0;Range</th><th>Unit</th></tr></thead><tbody><tr><td>Glucose [Mass/volume] in Urine by Test strip</td><td><strong>1.2 H</strong></td><td>0 - 0</td><td>mg/dL</td></tr><tr><td>Glucose [Presence] in Urine by Test strip</td><td>++</td><td></td><td></td></tr><tr><td>Bilirubin.total [Mass/volume] in Urine by Test strip</td><td>0.5</td><td>0 - 1.6</td><td>mg/dL</td></tr><tr><td>Bilirubin.total [Presence] in Urine by Test strip</td><td>Finding of bilirubin in urine</td><td></td><td></td></tr><tr><td>Ketones [Mass/volume] in Urine by Test strip</td><td><strong>9.3 H</strong></td><td>0 - 0.5</td><td>mg/dL</td></tr><tr><td>Specific gravity of Urine by Test strip</td><td><strong>1.0 L</strong></td><td>1.005 - 1.03</td><td>{nominal}</td></tr><tr><td>pH of Urine by Test strip</td><td>5.9</td><td>4.5 - 7.5</td><td>pH</td></tr><tr><td>Protein [Mass/volume] in Urine by Test strip</td><td><strong>200.3 H</strong></td><td>0 - 15</td><td>mg/dL</td></tr><tr><td>Protein [Presence] in Urine by Test strip</td><td>Urine protein test = ++</td><td></td><td></td></tr><tr><td>Nitrite [Presence] in Urine by Test strip</td><td>Urine nitrite negative</td><td></td><td></td></tr><tr><td>Hemoglobin [Presence] in Urine by Test strip</td><td>Urine blood test = negative</td><td></td><td></td></tr><tr><td>Leukocyte esterase [Presence] in Urine by Test strip</td><td>Urine leukocyte test negative</td><td></td><td></td></tr></tbody></table></div>"
                },
                "title": "Urinalysis"
              },
              {
                "code": {
                  "coding": [
                    {
                      "code": "$LP7846-1",
                      "system": "http://loinc.org",
                      "display": "Specimen information"
                    }
                  ],
                  "text": "Specimen information"
                },
                "entry": [
                  {
                    "reference": "urn:uuid:02c965bb-548b-4911-9618-302150f2d1ff"
                  },
                  {
                    "reference": "urn:uuid:16bb958b-ef1e-47de-b117-0392511afff8"
                  },
                  {
                    "reference": "urn:uuid:d98e2b53-9789-4143-807e-d24cca8c7e84"
                  },
                  {
                    "reference": "urn:uuid:609ba4ea-b463-4e5d-a47f-7062d04e6742"
                  }
                ],
                "text": {
                  "status": "generated",
                  "div": "<div xmlns=\"http://www.w3.org/1999/xhtml\"><h3>Specimen information</h3><table class=\"hl7__eu__lab__report\"><thead><tr><th>Test</th><th>09-SEP-2021</th><th>Specimen</th><th></th></tr></thead><tbody><tr><td>Appearance of Urine</td><td>Cloudy urine</td><td>Urine</td><td></td></tr><tr><td>Odor of Urine</td><td>Urine smell ammoniacal</td><td>Urine</td><td></td></tr><tr><td>Clarity of Urine</td><td>Translucent</td><td>Urine</td><td></td></tr><tr><td>Color of Urine</td><td>Brown color</td><td>Urine</td><td></td></tr></tbody></table></div>"
                },
                "title": "Specimen information"
              }
            ],
            "title": "Laboratory Report"
          },
          {
            "text": {
              "status": "generated",
              "div": "<div xmlns=\"http://www.w3.org/1999/xhtml\"><h3>Annotation</h3><table class=\"hl7__eu__lab__report\"><tr><th>Conclusion and Recommendations based on this report and previous findings known to us</th></tr><tr><td>The patient shows elevated creatinine, proteinuria, glycosuria, ketonuria, and low urine specific gravity, suggesting possible renal impairment and abnormal glucose handling despite low-normal blood glucose and low HbA1c. Urine is cloudy, brown, and ammoniacal, but no evidence of infection (negative nitrites/leukocytes). Elevated chloride may indicate mild metabolic disturbance. Recommend further nephrological and endocrinological evaluation for possible renal dysfunction and atypical diabetes or tubular disorder.</td></tr></table></div>"
            },
            "code": {
              "coding": [
                {
                  "system": "http://loinc.org",
                  "code": "48767-8",
                  "display": "Annotation comment"
                }
              ]
            },
            "title": "Annotation comment"
          }
        ],
        "status": "final",
        "subject": {
          "reference": "urn:uuid:60a877f1-46fd-4447-8d48-c599e24e8c69",
          "display": "Molly Jenkins"
        },
        "date": "2021-09-09T16:42:11Z",
        "title": "Laboratory Report",
        "confidentiality": "N"
      }
    },
    {
      "fullUrl": "urn:uuid:40236b52-b4de-403e-973a-74e27912acd9",
      "resource": {
        "resourceType": "DiagnosticReport",
        "id": "40236b52-b4de-403e-973a-74e27912acd9",
        "meta": {
          "profile": [
            "http://hl7.eu/fhir/laboratory/StructureDefinition/DiagnosticReport-eu-lab"
          ]
        },
        "identifier": [
          {
            "assigner": {
              "display": "HL7 Europe"
            },
            "system": "urn:oid:2.16.840.1.113883.2.51.999",
            "value": "37123508-934e-47e2-9a37-03c19155f2bd"
          }
        ],
        "extension": [
          {
            "url": "http://hl7.org/fhir/5.0/StructureDefinition/extension-DiagnosticReport.composition",
            "valueReference": {
              "reference": "urn:uuid:2a3fde58-0d23-4d23-8a17-3f5a19903994"
            }
          }
        ],
        "category": [
          {
            "coding": [
              {
                "code": "26436-6",
                "system": "http://loinc.org",
                "display": "Laboratory studies (set)"
              }
            ]
          }
        ],
        "specimen": [
          {
            "reference": "urn:uuid:ebff5cab-5084-4045-ac00-9aab18830a78"
          },
          {
            "reference": "urn:uuid:d1e92dcc-7f8c-468a-90fc-4f58a73ebb57"
          },
          {
            "reference": "urn:uuid:ea95850d-9e1c-49d9-9f86-bb9843e59338"
          }
        ],
        "result": [
          {
            "reference": "urn:uuid:6c33e240-d525-46be-b221-b207f6033a46"
          },
          {
            "reference": "urn:uuid:7361dd76-1455-40a2-926f-cab6d686dd89"
          },
          {
            "reference": "urn:uuid:5bc9a7e6-0e99-44ab-a1cb-9e76787fc6b4"
          },
          {
            "reference": "urn:uuid:dc26525f-5b27-4499-9ebc-a298745fb079"
          },
          {
            "reference": "urn:uuid:73cf8d07-b85b-44ff-85a3-334a5e8b885b"
          },
          {
            "reference": "urn:uuid:03692ac9-6db0-4002-a473-bfc988ca7234"
          },
          {
            "reference": "urn:uuid:4166bd54-6c53-4cab-9760-1a8e01b6f89a"
          },
          {
            "reference": "urn:uuid:2f6000cc-486d-497e-9fba-2f1feb36777b"
          },
          {
            "reference": "urn:uuid:02c965bb-548b-4911-9618-302150f2d1ff"
          },
          {
            "reference": "urn:uuid:16bb958b-ef1e-47de-b117-0392511afff8"
          },
          {
            "reference": "urn:uuid:d98e2b53-9789-4143-807e-d24cca8c7e84"
          },
          {
            "reference": "urn:uuid:609ba4ea-b463-4e5d-a47f-7062d04e6742"
          },
          {
            "reference": "urn:uuid:844993a1-6754-4a65-9ed7-36f6f44a8ac1"
          },
          {
            "reference": "urn:uuid:0c951f4b-b1cf-4992-8f92-f6f94a271565"
          },
          {
            "reference": "urn:uuid:6272719e-a9ac-43d5-8146-7ab77a0cdd31"
          },
          {
            "reference": "urn:uuid:fd4a5fff-ed22-4145-9b10-42224cc6ff21"
          },
          {
            "reference": "urn:uuid:c103d4da-1385-4643-ab70-79fe7568c338"
          },
          {
            "reference": "urn:uuid:d66ddaab-f9ba-43d4-89b6-78c96b6480cb"
          },
          {
            "reference": "urn:uuid:c2e85255-197d-48ed-9f24-d84f98e60d03"
          },
          {
            "reference": "urn:uuid:ff89870b-eb9b-47d6-beca-2b599a34c033"
          },
          {
            "reference": "urn:uuid:ff0b4d9a-f749-46fb-a6bf-b4e788646670"
          },
          {
            "reference": "urn:uuid:63ba8a43-ccce-454d-88a5-058073b81e34"
          },
          {
            "reference": "urn:uuid:8f51a761-0bb6-4636-a7db-9d0aad917450"
          },
          {
            "reference": "urn:uuid:bbaa11d5-fb0e-43e9-9cb8-f40835de779a"
          },
          {
            "reference": "urn:uuid:d261d0ee-a8b8-4925-a684-4b16ace7153f"
          },
          {
            "reference": "urn:uuid:13759cad-c139-4cf0-af58-1994dea80dfa"
          },
          {
            "reference": "urn:uuid:4d987397-1d38-4134-9e87-ba5231f9a386"
          },
          {
            "reference": "urn:uuid:a61249be-4516-4e1c-bf44-10f1074b8c8f"
          },
          {
            "reference": "urn:uuid:75bdb535-3c38-4906-8728-38c5e451fbd9"
          },
          {
            "reference": "urn:uuid:28204763-ca40-4e40-ac1f-b0fe7554bc77"
          },
          {
            "reference": "urn:uuid:83c32f2b-b33c-4b54-b22b-0f50ac586f4e"
          },
          {
            "reference": "urn:uuid:bf7ced31-64e3-4cd2-b8cc-77ccb1e25e99"
          },
          {
            "reference": "urn:uuid:2737840f-f487-4507-a5e2-a539147405a7"
          },
          {
            "reference": "urn:uuid:305de546-e408-4637-b347-27e975ae1903"
          }
        ],
        "status": "registered",
        "code": {
          "coding": [
            {
              "code": "11502-2",
              "system": "http://loinc.org",
              "display": "Laboratory report"
            }
          ]
        },
        "subject": {
          "reference": "urn:uuid:60a877f1-46fd-4447-8d48-c599e24e8c69",
          "display": "Molly Jenkins"
        }
      }
    },
    {
      "fullUrl": "urn:uuid:60a877f1-46fd-4447-8d48-c599e24e8c69",
      "resource": {
        "resourceType": "Patient",
        "id": "60a877f1-46fd-4447-8d48-c599e24e8c69",
        "meta": {
          "security": [
            {
              "system": "http://terminology.hl7.org/CodeSystem/v3-ActReason",
              "code": "HTEST"
            },
            {
              "system": "http://terminology.hl7.org/CodeSystem/v3-ActReason",
              "code": "TRAIN"
            }
          ],
          "tag": [
            {
              "system": "https://synderai.net/fhir/CodeSystem/tags",
              "code": "synthetic",
              "display": "SYNDERAI Synthetic data"
            }
          ],
          "profile": [
            "http://hl7.eu/fhir/base/StructureDefinition/patient-eu-core"
          ]
        },
        "identifier": [
          {
            "type": {
              "coding": [
                {
                  "code": "PT",
                  "system": "http://terminology.hl7.org/CodeSystem/v2-0203"
                }
              ]
            },
            "system": "http://ec.europa.eu/identifier/eci",
            "value": "7634-012682-0"
          },
          {
            "type": {
              "coding": [
                {
                  "code": "MR",
                  "system": "http://terminology.hl7.org/CodeSystem/v2-0203"
                }
              ]
            },
            "system": "http://local.setting.eu/identifier",
            "value": "9934a8eb-b6e1-34e1-edf5-57a0262d1bea"
          }
        ],
        "name": [
          {
            "family": "Jenkins"
          },
          {
            "given": [
              "Molly"
            ]
          },
          {
            "text": "Molly Jenkins"
          }
        ],
        "address": [
          {
            "line": [
              "98 Ali field"
            ],
            "use": "home",
            "type": "physical",
            "postalCode": "AB42",
            "city": "Port Jennamouth",
            "country": "United Kingdom"
          }
        ],
        "telecom": [
          {
            "system": "phone",
            "value": "(0118) 496 0334"
          }
        ],
        "extension": [
          {
            "url": "http://hl7.org/fhir/StructureDefinition/patient-nationality",
            "valueCodeableConcept": {
              "coding": [
                {
                  "code": "GB",
                  "system": "http://hl7.org/fhir/ValueSet/country"
                }
              ]
            }
          }
        ],
        "text": {
          "status": "generated",
          "div": "<div xmlns=\"http://www.w3.org/1999/xhtml\"><table class=\"hl7__ips\"><tr><td>Molly Jenkins</td><td>female</td><td>14-Aug-1967</td></tr></table></div>"
        },
        "gender": "female",
        "birthDate": "1967-08-14"
      }
    },
    {
      "fullUrl": "urn:uuid:d98dc18e-b5f8-46ce-b4b3-f98fa8449710",
      "resource": {
        "resourceType": "ServiceRequest",
        "id": "d98dc18e-b5f8-46ce-b4b3-f98fa8449710",
        "meta": {
          "profile": [
            "http://hl7.eu/fhir/laboratory/StructureDefinition/ServiceRequest-eu-lab"
          ]
        },
        "identifier": [
          {
            "system": "http://example.org",
            "value": "5becf013-05a4-43b2-9948-c9ff5b7c81fd"
          }
        ],
        "specimen": [
          {
            "reference": "urn:uuid:ebff5cab-5084-4045-ac00-9aab18830a78"
          },
          {
            "reference": "urn:uuid:d1e92dcc-7f8c-468a-90fc-4f58a73ebb57"
          },
          {
            "reference": "urn:uuid:ea95850d-9e1c-49d9-9f86-bb9843e59338"
          }
        ],
        "reasonCode": [
          {
            "coding": [
              {
                "code": "431856006",
                "system": "http://snomed.info/sct",
                "display": "Chronic kidney disease stage 2"
              }
            ]
          },
          {
            "coding": [
              {
                "code": "90781000119102",
                "system": "http://snomed.info/sct",
                "display": "Microalbuminuria due to type 2 diabetes mellitus"
              }
            ]
          },
          {
            "coding": [
              {
                "code": "127013003",
                "system": "http://snomed.info/sct",
                "display": "Disorder of kidney due to diabetes mellitus"
              }
            ]
          },
          {
            "coding": [
              {
                "code": "431855005",
                "system": "http://snomed.info/sct",
                "display": "Chronic kidney disease stage 1"
              }
            ]
          },
          {
            "coding": [
              {
                "code": "15777000",
                "system": "http://snomed.info/sct",
                "display": "Prediabetes"
              }
            ]
          },
          {
            "coding": [
              {
                "code": "59621000",
                "system": "http://snomed.info/sct",
                "display": "Essential hypertension"
              }
            ]
          },
          {
            "coding": [
              {
                "code": "53827007",
                "system": "http://snomed.info/sct",
                "display": "Excessive salivation"
              }
            ]
          },
          {
            "coding": [
              {
                "code": "64859006",
                "system": "http://snomed.info/sct",
                "display": "Osteoporosis"
              }
            ]
          },
          {
            "coding": [
              {
                "code": "128188000",
                "system": "http://snomed.info/sct",
                "display": "Cerebral palsy"
              }
            ]
          },
          {
            "coding": [
              {
                "code": "235595009",
                "system": "http://snomed.info/sct",
                "display": "Gastroesophageal reflux disease"
              }
            ]
          }
        ],
        "status": "active",
        "intent": "order",
        "code": {
          "coding": [
            {
              "code": "108252007",
              "system": "http://snomed.info/sct",
              "display": "Laboratory procedure"
            }
          ]
        },
        "subject": {
          "reference": "urn:uuid:60a877f1-46fd-4447-8d48-c599e24e8c69",
          "display": "Molly Jenkins"
        },
        "requester": {
          "reference": "urn:uuid:6d8f7d6c-4261-4561-9296-14de76440141"
        }
      }
    },
    {
      "fullUrl": "urn:uuid:6d8f7d6c-4261-4561-9296-14de76440141",
      "resource": {
        "resourceType": "PractitionerRole",
        "id": "6d8f7d6c-4261-4561-9296-14de76440141",
        "meta": {
          "profile": [
            "http://hl7.eu/fhir/base/StructureDefinition/practitionerRole-eu"
          ]
        },
        "text": {
          "status": "generated",
          "div": "<div xmlns=\"http://www.w3.org/1999/xhtml\">Provider Role Id: 6d8f7d6c-4261-4561-9296-14de76440141</div>"
        },
        "organization": {
          "reference": "urn:uuid:25f5b95e-ca20-42f3-bdb6-8098d9a38727"
        }
      }
    },
    {
      "fullUrl": "urn:uuid:25f5b95e-ca20-42f3-bdb6-8098d9a38727",
      "resource": {
        "resourceType": "Organization",
        "id": "25f5b95e-ca20-42f3-bdb6-8098d9a38727",
        "meta": {
          "profile": [
            "http://hl7.eu/fhir/base/StructureDefinition/organization-eu"
          ]
        },
        "identifier": [
          {
            "assigner": {
              "display": "HL7 Europe"
            },
            "system": "urn:oid:2.16.840.1.113883.2.51.999",
            "value": "688dafca-de89-408c-838d-5951ce8a8466"
          }
        ],
        "address": [
          {
            "city": "Aberdeen",
            "postalCode": "AB11 6",
            "country": "United Kingdom"
          }
        ],
        "text": {
          "status": "generated",
          "div": "<div xmlns=\"http://www.w3.org/1999/xhtml\">Provider Organization: Aberdeen Community Health and Care Village</div>"
        },
        "name": "Aberdeen Community Health and Care Village"
      }
    },
    {
      "fullUrl": "urn:uuid:ebff5cab-5084-4045-ac00-9aab18830a78",
      "resource": {
        "resourceType": "Specimen",
        "id": "ebff5cab-5084-4045-ac00-9aab18830a78",
        "meta": {
          "profile": [
            "http://hl7.eu/fhir/laboratory/StructureDefinition/Specimen-eu-lab"
          ]
        },
        "collection": {
          "collectedDateTime": "2021-09-09"
        },
        "text": {
          "status": "generated",
          "div": "<div xmlns=\"http://www.w3.org/1999/xhtml\"><table class=\"hl7__eu__lab__report\"><tr><th>Specimen</th><th>Collection Date</th></tr><tr><td>Acellular blood (serum or plasma) specimen</td><td><span class=\"nb\">09-Sep-2021</span></td></tr></table></div>"
        },
        "type": {
          "coding": [
            {
              "code": "122592007",
              "system": "http://snomed.info/sct",
              "display": "Acellular blood (serum or plasma) specimen"
            }
          ]
        }
      }
    },
    {
      "fullUrl": "urn:uuid:d1e92dcc-7f8c-468a-90fc-4f58a73ebb57",
      "resource": {
        "resourceType": "Specimen",
        "id": "d1e92dcc-7f8c-468a-90fc-4f58a73ebb57",
        "meta": {
          "profile": [
            "http://hl7.eu/fhir/laboratory/StructureDefinition/Specimen-eu-lab"
          ]
        },
        "collection": {
          "collectedDateTime": "2021-09-09"
        },
        "text": {
          "status": "generated",
          "div": "<div xmlns=\"http://www.w3.org/1999/xhtml\"><table class=\"hl7__eu__lab__report\"><tr><th>Specimen</th><th>Collection Date</th></tr><tr><td>Urine specimen</td><td><span class=\"nb\">09-Sep-2021</span></td></tr></table></div>"
        },
        "type": {
          "coding": [
            {
              "code": "122575003",
              "system": "http://snomed.info/sct",
              "display": "Urine specimen"
            }
          ]
        }
      }
    },
    {
      "fullUrl": "urn:uuid:ea95850d-9e1c-49d9-9f86-bb9843e59338",
      "resource": {
        "resourceType": "Specimen",
        "id": "ea95850d-9e1c-49d9-9f86-bb9843e59338",
        "meta": {
          "profile": [
            "http://hl7.eu/fhir/laboratory/StructureDefinition/Specimen-eu-lab"
          ]
        },
        "collection": {
          "collectedDateTime": "2021-09-09"
        },
        "text": {
          "status": "generated",
          "div": "<div xmlns=\"http://www.w3.org/1999/xhtml\"><table class=\"hl7__eu__lab__report\"><tr><th>Specimen</th><th>Collection Date</th></tr><tr><td>Whole blood specimen (specimen)</td><td><span class=\"nb\">09-Sep-2021</span></td></tr></table></div>"
        },
        "type": {
          "coding": [
            {
              "code": "258580003",
              "system": "http://snomed.info/sct",
              "display": "Whole blood specimen (specimen)"
            }
          ]
        }
      }
    },
    {
      "fullUrl": "urn:uuid:6c33e240-d525-46be-b221-b207f6033a46",
      "resource": {
        "resourceType": "Observation",
        "id": "6c33e240-d525-46be-b221-b207f6033a46",
        "meta": {
          "profile": [
            "http://hl7.eu/fhir/laboratory/StructureDefinition/Observation-resultslab-eu-lab"
          ]
        },
        "performer": [
          {
            "display": "The Central European Lab"
          }
        ],
        "category": [
          {
            "coding": [
              {
                "system": "http://terminology.hl7.org/CodeSystem/observation-category",
                "code": "laboratory"
              }
            ]
          }
        ],
        "code": {
          "coding": [
            {
              "code": "2345-7",
              "system": "http://loinc.org",
              "display": "Glucose [Mass/volume] in Serum or Plasma"
            }
          ],
          "text": "Glucose [Mass/volume] in Serum or Plasma"
        },
        "valueQuantity": {
          "system": "http://unitsofmeasure.org",
          "value": 76,
          "unit": "mg/dL",
          "code": "mg/dL"
        },
        "referenceRange": [
          {
            "low": {
              "value": 70,
              "code": "mg/dL",
              "system": "http://unitsofmeasure.org"
            }
          },
          {
            "high": {
              "value": 139,
              "code": "mg/dL",
              "system": "http://unitsofmeasure.org"
            }
          }
        ],
        "text": {
          "status": "generated",
          "div": "<div xmlns=\"http://www.w3.org/1999/xhtml\"><table class=\"hl7__eu__lab__report\"><tr><th>Test</th><th>09-Sep-2021</th><th>Reference&#xA0;Range</th><th>Unit</th></tr><tr><td>Glucose [Mass/volume] in Serum or Plasma</td><td>76.0</td><td>70 - 139</td><td></td><td>mg/dL</td></tr></table></div>"
        },
        "status": "final",
        "subject": {
          "reference": "urn:uuid:60a877f1-46fd-4447-8d48-c599e24e8c69",
          "display": "Molly Jenkins"
        },
        "effectiveDateTime": "2021-09-09T14:42:11Z",
        "specimen": {
          "reference": "urn:uuid:ebff5cab-5084-4045-ac00-9aab18830a78"
        }
      }
    },
    {
      "fullUrl": "urn:uuid:7361dd76-1455-40a2-926f-cab6d686dd89",
      "resource": {
        "resourceType": "Observation",
        "id": "7361dd76-1455-40a2-926f-cab6d686dd89",
        "meta": {
          "profile": [
            "http://hl7.eu/fhir/laboratory/StructureDefinition/Observation-resultslab-eu-lab"
          ]
        },
        "performer": [
          {
            "display": "The Central European Lab"
          }
        ],
        "category": [
          {
            "coding": [
              {
                "system": "http://terminology.hl7.org/CodeSystem/observation-category",
                "code": "laboratory"
              }
            ]
          }
        ],
        "code": {
          "coding": [
            {
              "code": "3094-0",
              "system": "http://loinc.org",
              "display": "Urea nitrogen [Mass/volume] in Serum or Plasma"
            }
          ],
          "text": "Urea nitrogen [Mass/volume] in Serum or Plasma"
        },
        "valueQuantity": {
          "system": "http://unitsofmeasure.org",
          "value": 15.9,
          "unit": "mg/dL",
          "code": "mg/dL"
        },
        "referenceRange": [
          {
            "low": {
              "value": 7,
              "code": "mg/dL",
              "system": "http://unitsofmeasure.org"
            }
          },
          {
            "high": {
              "value": 20,
              "code": "mg/dL",
              "system": "http://unitsofmeasure.org"
            }
          }
        ],
        "text": {
          "status": "generated",
          "div": "<div xmlns=\"http://www.w3.org/1999/xhtml\"><table class=\"hl7__eu__lab__report\"><tr><th>Test</th><th>09-Sep-2021</th><th>Reference&#xA0;Range</th><th>Unit</th></tr><tr><td>Urea nitrogen [Mass/volume] in Serum or Plasma</td><td>15.9</td><td>7 - 20</td><td></td><td>mg/dL</td></tr></table></div>"
        },
        "status": "final",
        "subject": {
          "reference": "urn:uuid:60a877f1-46fd-4447-8d48-c599e24e8c69",
          "display": "Molly Jenkins"
        },
        "effectiveDateTime": "2021-09-09T14:42:11Z",
        "specimen": {
          "reference": "urn:uuid:ebff5cab-5084-4045-ac00-9aab18830a78"
        }
      }
    },
    {
      "fullUrl": "urn:uuid:5bc9a7e6-0e99-44ab-a1cb-9e76787fc6b4",
      "resource": {
        "resourceType": "Observation",
        "id": "5bc9a7e6-0e99-44ab-a1cb-9e76787fc6b4",
        "meta": {
          "profile": [
            "http://hl7.eu/fhir/laboratory/StructureDefinition/Observation-resultslab-eu-lab"
          ]
        },
        "performer": [
          {
            "display": "The Central European Lab"
          }
        ],
        "category": [
          {
            "coding": [
              {
                "system": "http://terminology.hl7.org/CodeSystem/observation-category",
                "code": "laboratory"
              }
            ]
          }
        ],
        "code": {
          "coding": [
            {
              "code": "2160-0",
              "system": "http://loinc.org",
              "display": "Creatinine [Mass/volume] in Serum or Plasma"
            }
          ],
          "text": "Creatinine [Mass/volume] in Serum or Plasma"
        },
        "valueQuantity": {
          "system": "http://unitsofmeasure.org",
          "value": 1.8,
          "unit": "mg/dL",
          "code": "mg/dL"
        },
        "referenceRange": [
          {
            "low": {
              "value": 0.6,
              "code": "mg/dL",
              "system": "http://unitsofmeasure.org"
            }
          },
          {
            "high": {
              "value": 1.1,
              "code": "mg/dL",
              "system": "http://unitsofmeasure.org"
            }
          }
        ],
        "interpretation": [
          {
            "coding": [
              {
                "code": "H",
                "system": "http://terminology.hl7.org/CodeSystem/v3-ObservationInterpretation",
                "display": "High"
              }
            ]
          }
        ],
        "text": {
          "status": "generated",
          "div": "<div xmlns=\"http://www.w3.org/1999/xhtml\"><table class=\"hl7__eu__lab__report\"><tr><th>Test</th><th>09-Sep-2021</th><th>Reference&#xA0;Range</th><th>Unit</th></tr><tr><td>Creatinine [Mass/volume] in Serum or Plasma</td><td>1.8</td><td>0.6 - 1.1</td><td>H</td><td>mg/dL</td></tr></table></div>"
        },
        "status": "final",
        "subject": {
          "reference": "urn:uuid:60a877f1-46fd-4447-8d48-c599e24e8c69",
          "display": "Molly Jenkins"
        },
        "effectiveDateTime": "2021-09-09T14:42:11Z",
        "specimen": {
          "reference": "urn:uuid:ebff5cab-5084-4045-ac00-9aab18830a78"
        }
      }
    },
    {
      "fullUrl": "urn:uuid:dc26525f-5b27-4499-9ebc-a298745fb079",
      "resource": {
        "resourceType": "Observation",
        "id": "dc26525f-5b27-4499-9ebc-a298745fb079",
        "meta": {
          "profile": [
            "http://hl7.eu/fhir/laboratory/StructureDefinition/Observation-resultslab-eu-lab"
          ]
        },
        "performer": [
          {
            "display": "The Central European Lab"
          }
        ],
        "category": [
          {
            "coding": [
              {
                "system": "http://terminology.hl7.org/CodeSystem/observation-category",
                "code": "laboratory"
              }
            ]
          }
        ],
        "code": {
          "coding": [
            {
              "code": "17861-6",
              "system": "http://loinc.org",
              "display": "Calcium [Mass/volume] in Serum or Plasma"
            }
          ],
          "text": "Calcium [Mass/volume] in Serum or Plasma"
        },
        "valueQuantity": {
          "system": "http://unitsofmeasure.org",
          "value": 9.8,
          "unit": "mg/dL",
          "code": "mg/dL"
        },
        "referenceRange": [
          {
            "low": {
              "value": 8.5,
              "code": "mg/dL",
              "system": "http://unitsofmeasure.org"
            }
          },
          {
            "high": {
              "value": 10.4,
              "code": "mg/dL",
              "system": "http://unitsofmeasure.org"
            }
          }
        ],
        "text": {
          "status": "generated",
          "div": "<div xmlns=\"http://www.w3.org/1999/xhtml\"><table class=\"hl7__eu__lab__report\"><tr><th>Test</th><th>09-Sep-2021</th><th>Reference&#xA0;Range</th><th>Unit</th></tr><tr><td>Calcium [Mass/volume] in Serum or Plasma</td><td>9.8</td><td>8.5 - 10.4</td><td></td><td>mg/dL</td></tr></table></div>"
        },
        "status": "final",
        "subject": {
          "reference": "urn:uuid:60a877f1-46fd-4447-8d48-c599e24e8c69",
          "display": "Molly Jenkins"
        },
        "effectiveDateTime": "2021-09-09T14:42:11Z",
        "specimen": {
          "reference": "urn:uuid:ebff5cab-5084-4045-ac00-9aab18830a78"
        }
      }
    },
    {
      "fullUrl": "urn:uuid:73cf8d07-b85b-44ff-85a3-334a5e8b885b",
      "resource": {
        "resourceType": "Observation",
        "id": "73cf8d07-b85b-44ff-85a3-334a5e8b885b",
        "meta": {
          "profile": [
            "http://hl7.eu/fhir/laboratory/StructureDefinition/Observation-resultslab-eu-lab"
          ]
        },
        "performer": [
          {
            "display": "The Central European Lab"
          }
        ],
        "category": [
          {
            "coding": [
              {
                "system": "http://terminology.hl7.org/CodeSystem/observation-category",
                "code": "laboratory"
              }
            ]
          }
        ],
        "code": {
          "coding": [
            {
              "code": "2951-2",
              "system": "http://loinc.org",
              "display": "Sodium [Moles/volume] in Serum or Plasma"
            }
          ],
          "text": "Sodium [Moles/volume] in Serum or Plasma"
        },
        "valueQuantity": {
          "system": "http://unitsofmeasure.org",
          "value": 138.4,
          "unit": "mmol/L",
          "code": "mmol/L"
        },
        "referenceRange": [
          {
            "low": {
              "value": 135,
              "code": "mmol/L",
              "system": "http://unitsofmeasure.org"
            }
          },
          {
            "high": {
              "value": 145,
              "code": "mmol/L",
              "system": "http://unitsofmeasure.org"
            }
          }
        ],
        "text": {
          "status": "generated",
          "div": "<div xmlns=\"http://www.w3.org/1999/xhtml\"><table class=\"hl7__eu__lab__report\"><tr><th>Test</th><th>09-Sep-2021</th><th>Reference&#xA0;Range</th><th>Unit</th></tr><tr><td>Sodium [Moles/volume] in Serum or Plasma</td><td>138.4</td><td>135 - 145</td><td></td><td>mmol/L</td></tr></table></div>"
        },
        "status": "final",
        "subject": {
          "reference": "urn:uuid:60a877f1-46fd-4447-8d48-c599e24e8c69",
          "display": "Molly Jenkins"
        },
        "effectiveDateTime": "2021-09-09T14:42:11Z",
        "specimen": {
          "reference": "urn:uuid:ebff5cab-5084-4045-ac00-9aab18830a78"
        }
      }
    },
    {
      "fullUrl": "urn:uuid:03692ac9-6db0-4002-a473-bfc988ca7234",
      "resource": {
        "resourceType": "Observation",
        "id": "03692ac9-6db0-4002-a473-bfc988ca7234",
        "meta": {
          "profile": [
            "http://hl7.eu/fhir/laboratory/StructureDefinition/Observation-resultslab-eu-lab"
          ]
        },
        "performer": [
          {
            "display": "The Central European Lab"
          }
        ],
        "category": [
          {
            "coding": [
              {
                "system": "http://terminology.hl7.org/CodeSystem/observation-category",
                "code": "laboratory"
              }
            ]
          }
        ],
        "code": {
          "coding": [
            {
              "code": "2823-3",
              "system": "http://loinc.org",
              "display": "Potassium [Moles/volume] in Serum or Plasma"
            }
          ],
          "text": "Potassium [Moles/volume] in Serum or Plasma"
        },
        "valueQuantity": {
          "system": "http://unitsofmeasure.org",
          "value": 4.6,
          "unit": "mmol/L",
          "code": "mmol/L"
        },
        "referenceRange": [
          {
            "low": {
              "value": 3.5,
              "code": "mmol/L",
              "system": "http://unitsofmeasure.org"
            }
          },
          {
            "high": {
              "value": 5.1,
              "code": "mmol/L",
              "system": "http://unitsofmeasure.org"
            }
          }
        ],
        "text": {
          "status": "generated",
          "div": "<div xmlns=\"http://www.w3.org/1999/xhtml\"><table class=\"hl7__eu__lab__report\"><tr><th>Test</th><th>09-Sep-2021</th><th>Reference&#xA0;Range</th><th>Unit</th></tr><tr><td>Potassium [Moles/volume] in Serum or Plasma</td><td>4.6</td><td>3.5 - 5.1</td><td></td><td>mmol/L</td></tr></table></div>"
        },
        "status": "final",
        "subject": {
          "reference": "urn:uuid:60a877f1-46fd-4447-8d48-c599e24e8c69",
          "display": "Molly Jenkins"
        },
        "effectiveDateTime": "2021-09-09T14:42:11Z",
        "specimen": {
          "reference": "urn:uuid:ebff5cab-5084-4045-ac00-9aab18830a78"
        }
      }
    },
    {
      "fullUrl": "urn:uuid:4166bd54-6c53-4cab-9760-1a8e01b6f89a",
      "resource": {
        "resourceType": "Observation",
        "id": "4166bd54-6c53-4cab-9760-1a8e01b6f89a",
        "meta": {
          "profile": [
            "http://hl7.eu/fhir/laboratory/StructureDefinition/Observation-resultslab-eu-lab"
          ]
        },
        "performer": [
          {
            "display": "The Central European Lab"
          }
        ],
        "category": [
          {
            "coding": [
              {
                "system": "http://terminology.hl7.org/CodeSystem/observation-category",
                "code": "laboratory"
              }
            ]
          }
        ],
        "code": {
          "coding": [
            {
              "code": "2075-0",
              "system": "http://loinc.org",
              "display": "Chloride [Moles/volume] in Serum or Plasma"
            }
          ],
          "text": "Chloride [Moles/volume] in Serum or Plasma"
        },
        "valueQuantity": {
          "system": "http://unitsofmeasure.org",
          "value": 110.9,
          "unit": "mmol/L",
          "code": "mmol/L"
        },
        "referenceRange": [
          {
            "low": {
              "value": 98,
              "code": "mmol/L",
              "system": "http://unitsofmeasure.org"
            }
          },
          {
            "high": {
              "value": 110,
              "code": "mmol/L",
              "system": "http://unitsofmeasure.org"
            }
          }
        ],
        "interpretation": [
          {
            "coding": [
              {
                "code": "H",
                "system": "http://terminology.hl7.org/CodeSystem/v3-ObservationInterpretation",
                "display": "High"
              }
            ]
          }
        ],
        "text": {
          "status": "generated",
          "div": "<div xmlns=\"http://www.w3.org/1999/xhtml\"><table class=\"hl7__eu__lab__report\"><tr><th>Test</th><th>09-Sep-2021</th><th>Reference&#xA0;Range</th><th>Unit</th></tr><tr><td>Chloride [Moles/volume] in Serum or Plasma</td><td>110.9</td><td>98 - 110</td><td>H</td><td>mmol/L</td></tr></table></div>"
        },
        "status": "final",
        "subject": {
          "reference": "urn:uuid:60a877f1-46fd-4447-8d48-c599e24e8c69",
          "display": "Molly Jenkins"
        },
        "effectiveDateTime": "2021-09-09T14:42:11Z",
        "specimen": {
          "reference": "urn:uuid:ebff5cab-5084-4045-ac00-9aab18830a78"
        }
      }
    },
    {
      "fullUrl": "urn:uuid:2f6000cc-486d-497e-9fba-2f1feb36777b",
      "resource": {
        "resourceType": "Observation",
        "id": "2f6000cc-486d-497e-9fba-2f1feb36777b",
        "meta": {
          "profile": [
            "http://hl7.eu/fhir/laboratory/StructureDefinition/Observation-resultslab-eu-lab"
          ]
        },
        "performer": [
          {
            "display": "The Central European Lab"
          }
        ],
        "category": [
          {
            "coding": [
              {
                "system": "http://terminology.hl7.org/CodeSystem/observation-category",
                "code": "laboratory"
              }
            ]
          }
        ],
        "code": {
          "coding": [
            {
              "code": "2028-9",
              "system": "http://loinc.org",
              "display": "Carbon dioxide, total [Moles/volume] in Serum or Plasma"
            }
          ],
          "text": "Carbon dioxide, total [Moles/volume] in Serum or Plasma"
        },
        "valueQuantity": {
          "system": "http://unitsofmeasure.org",
          "value": 22.9,
          "unit": "mmol/L",
          "code": "mmol/L"
        },
        "referenceRange": [
          {
            "low": {
              "value": 22,
              "code": "mmol/L",
              "system": "http://unitsofmeasure.org"
            }
          },
          {
            "high": {
              "value": 32,
              "code": "mmol/L",
              "system": "http://unitsofmeasure.org"
            }
          }
        ],
        "text": {
          "status": "generated",
          "div": "<div xmlns=\"http://www.w3.org/1999/xhtml\"><table class=\"hl7__eu__lab__report\"><tr><th>Test</th><th>09-Sep-2021</th><th>Reference&#xA0;Range</th><th>Unit</th></tr><tr><td>Carbon dioxide, total [Moles/volume] in Serum or Plasma</td><td>22.9</td><td>22 - 32</td><td></td><td>mmol/L</td></tr></table></div>"
        },
        "status": "final",
        "subject": {
          "reference": "urn:uuid:60a877f1-46fd-4447-8d48-c599e24e8c69",
          "display": "Molly Jenkins"
        },
        "effectiveDateTime": "2021-09-09T14:42:11Z",
        "specimen": {
          "reference": "urn:uuid:ebff5cab-5084-4045-ac00-9aab18830a78"
        }
      }
    },
    {
      "fullUrl": "urn:uuid:02c965bb-548b-4911-9618-302150f2d1ff",
      "resource": {
        "resourceType": "Observation",
        "id": "02c965bb-548b-4911-9618-302150f2d1ff",
        "meta": {
          "profile": [
            "http://hl7.eu/fhir/laboratory/StructureDefinition/Observation-resultslab-eu-lab"
          ]
        },
        "performer": [
          {
            "display": "The Central European Lab"
          }
        ],
        "category": [
          {
            "coding": [
              {
                "system": "http://terminology.hl7.org/CodeSystem/observation-category",
                "code": "laboratory"
              }
            ]
          }
        ],
        "code": {
          "coding": [
            {
              "code": "5767-9",
              "system": "http://loinc.org",
              "display": "Appearance of Urine"
            }
          ],
          "text": "Appearance of Urine"
        },
        "text": {
          "status": "generated",
          "div": "<div xmlns=\"http://www.w3.org/1999/xhtml\"><table class=\"hl7__eu__lab__report\"><tr><th>Test</th><th>09-Sep-2021</th><th>Reference&#xA0;Range</th><th>Unit</th></tr><tr><td>Appearance of Urine</td></tr></table></div>"
        },
        "status": "final",
        "subject": {
          "reference": "urn:uuid:60a877f1-46fd-4447-8d48-c599e24e8c69",
          "display": "Molly Jenkins"
        },
        "effectiveDateTime": "2021-09-09T14:42:11Z",
        "specimen": {
          "reference": "urn:uuid:d1e92dcc-7f8c-468a-90fc-4f58a73ebb57"
        }
      }
    },
    {
      "fullUrl": "urn:uuid:16bb958b-ef1e-47de-b117-0392511afff8",
      "resource": {
        "resourceType": "Observation",
        "id": "16bb958b-ef1e-47de-b117-0392511afff8",
        "meta": {
          "profile": [
            "http://hl7.eu/fhir/laboratory/StructureDefinition/Observation-resultslab-eu-lab"
          ]
        },
        "performer": [
          {
            "display": "The Central European Lab"
          }
        ],
        "category": [
          {
            "coding": [
              {
                "system": "http://terminology.hl7.org/CodeSystem/observation-category",
                "code": "laboratory"
              }
            ]
          }
        ],
        "code": {
          "coding": [
            {
              "code": "34533-0",
              "system": "http://loinc.org",
              "display": "Odor of Urine"
            }
          ],
          "text": "Odor of Urine"
        },
        "text": {
          "status": "generated",
          "div": "<div xmlns=\"http://www.w3.org/1999/xhtml\"><table class=\"hl7__eu__lab__report\"><tr><th>Test</th><th>09-Sep-2021</th><th>Reference&#xA0;Range</th><th>Unit</th></tr><tr><td>Odor of Urine</td></tr></table></div>"
        },
        "status": "final",
        "subject": {
          "reference": "urn:uuid:60a877f1-46fd-4447-8d48-c599e24e8c69",
          "display": "Molly Jenkins"
        },
        "effectiveDateTime": "2021-09-09T14:42:11Z",
        "specimen": {
          "reference": "urn:uuid:d1e92dcc-7f8c-468a-90fc-4f58a73ebb57"
        }
      }
    },
    {
      "fullUrl": "urn:uuid:d98e2b53-9789-4143-807e-d24cca8c7e84",
      "resource": {
        "resourceType": "Observation",
        "id": "d98e2b53-9789-4143-807e-d24cca8c7e84",
        "meta": {
          "profile": [
            "http://hl7.eu/fhir/laboratory/StructureDefinition/Observation-resultslab-eu-lab"
          ]
        },
        "performer": [
          {
            "display": "The Central European Lab"
          }
        ],
        "category": [
          {
            "coding": [
              {
                "system": "http://terminology.hl7.org/CodeSystem/observation-category",
                "code": "laboratory"
              }
            ]
          }
        ],
        "code": {
          "coding": [
            {
              "code": "32167-9",
              "system": "http://loinc.org",
              "display": "Clarity of Urine"
            }
          ],
          "text": "Clarity of Urine"
        },
        "text": {
          "status": "generated",
          "div": "<div xmlns=\"http://www.w3.org/1999/xhtml\"><table class=\"hl7__eu__lab__report\"><tr><th>Test</th><th>09-Sep-2021</th><th>Reference&#xA0;Range</th><th>Unit</th></tr><tr><td>Clarity of Urine</td></tr></table></div>"
        },
        "status": "final",
        "subject": {
          "reference": "urn:uuid:60a877f1-46fd-4447-8d48-c599e24e8c69",
          "display": "Molly Jenkins"
        },
        "effectiveDateTime": "2021-09-09T14:42:11Z",
        "specimen": {
          "reference": "urn:uuid:d1e92dcc-7f8c-468a-90fc-4f58a73ebb57"
        }
      }
    },
    {
      "fullUrl": "urn:uuid:609ba4ea-b463-4e5d-a47f-7062d04e6742",
      "resource": {
        "resourceType": "Observation",
        "id": "609ba4ea-b463-4e5d-a47f-7062d04e6742",
        "meta": {
          "profile": [
            "http://hl7.eu/fhir/laboratory/StructureDefinition/Observation-resultslab-eu-lab"
          ]
        },
        "performer": [
          {
            "display": "The Central European Lab"
          }
        ],
        "category": [
          {
            "coding": [
              {
                "system": "http://terminology.hl7.org/CodeSystem/observation-category",
                "code": "laboratory"
              }
            ]
          }
        ],
        "code": {
          "coding": [
            {
              "code": "5778-6",
              "system": "http://loinc.org",
              "display": "Color of Urine"
            }
          ],
          "text": "Color of Urine"
        },
        "text": {
          "status": "generated",
          "div": "<div xmlns=\"http://www.w3.org/1999/xhtml\"><table class=\"hl7__eu__lab__report\"><tr><th>Test</th><th>09-Sep-2021</th><th>Reference&#xA0;Range</th><th>Unit</th></tr><tr><td>Color of Urine</td></tr></table></div>"
        },
        "status": "final",
        "subject": {
          "reference": "urn:uuid:60a877f1-46fd-4447-8d48-c599e24e8c69",
          "display": "Molly Jenkins"
        },
        "effectiveDateTime": "2021-09-09T14:42:11Z",
        "specimen": {
          "reference": "urn:uuid:d1e92dcc-7f8c-468a-90fc-4f58a73ebb57"
        }
      }
    },
    {
      "fullUrl": "urn:uuid:844993a1-6754-4a65-9ed7-36f6f44a8ac1",
      "resource": {
        "resourceType": "Observation",
        "id": "844993a1-6754-4a65-9ed7-36f6f44a8ac1",
        "meta": {
          "profile": [
            "http://hl7.eu/fhir/laboratory/StructureDefinition/Observation-resultslab-eu-lab"
          ]
        },
        "performer": [
          {
            "display": "The Central European Lab"
          }
        ],
        "category": [
          {
            "coding": [
              {
                "system": "http://terminology.hl7.org/CodeSystem/observation-category",
                "code": "laboratory"
              }
            ]
          }
        ],
        "code": {
          "coding": [
            {
              "code": "5792-7",
              "system": "http://loinc.org",
              "display": "Glucose [Mass/volume] in Urine by Test strip"
            }
          ],
          "text": "Glucose [Mass/volume] in Urine by Test strip"
        },
        "valueQuantity": {
          "system": "http://unitsofmeasure.org",
          "value": 1.2,
          "unit": "mg/dL",
          "code": "mg/dL"
        },
        "referenceRange": [
          {
            "low": {
              "value": 0,
              "code": "mg/dL",
              "system": "http://unitsofmeasure.org"
            }
          },
          {
            "high": {
              "value": 0,
              "code": "mg/dL",
              "system": "http://unitsofmeasure.org"
            }
          }
        ],
        "interpretation": [
          {
            "coding": [
              {
                "code": "H",
                "system": "http://terminology.hl7.org/CodeSystem/v3-ObservationInterpretation",
                "display": "High"
              }
            ]
          }
        ],
        "text": {
          "status": "generated",
          "div": "<div xmlns=\"http://www.w3.org/1999/xhtml\"><table class=\"hl7__eu__lab__report\"><tr><th>Test</th><th>09-Sep-2021</th><th>Reference&#xA0;Range</th><th>Unit</th></tr><tr><td>Glucose [Mass/volume] in Urine by Test strip</td><td>1.2</td><td>0 - 0</td><td>H</td><td>mg/dL</td></tr></table></div>"
        },
        "status": "final",
        "subject": {
          "reference": "urn:uuid:60a877f1-46fd-4447-8d48-c599e24e8c69",
          "display": "Molly Jenkins"
        },
        "effectiveDateTime": "2021-09-09T14:42:11Z",
        "specimen": {
          "reference": "urn:uuid:d1e92dcc-7f8c-468a-90fc-4f58a73ebb57"
        }
      }
    },
    {
      "fullUrl": "urn:uuid:0c951f4b-b1cf-4992-8f92-f6f94a271565",
      "resource": {
        "resourceType": "Observation",
        "id": "0c951f4b-b1cf-4992-8f92-f6f94a271565",
        "meta": {
          "profile": [
            "http://hl7.eu/fhir/laboratory/StructureDefinition/Observation-resultslab-eu-lab"
          ]
        },
        "performer": [
          {
            "display": "The Central European Lab"
          }
        ],
        "category": [
          {
            "coding": [
              {
                "system": "http://terminology.hl7.org/CodeSystem/observation-category",
                "code": "laboratory"
              }
            ]
          }
        ],
        "code": {
          "coding": [
            {
              "code": "25428-4",
              "system": "http://loinc.org",
              "display": "Glucose [Presence] in Urine by Test strip"
            }
          ],
          "text": "Glucose [Presence] in Urine by Test strip"
        },
        "text": {
          "status": "generated",
          "div": "<div xmlns=\"http://www.w3.org/1999/xhtml\"><table class=\"hl7__eu__lab__report\"><tr><th>Test</th><th>09-Sep-2021</th><th>Reference&#xA0;Range</th><th>Unit</th></tr><tr><td>Glucose [Presence] in Urine by Test strip</td></tr></table></div>"
        },
        "status": "final",
        "subject": {
          "reference": "urn:uuid:60a877f1-46fd-4447-8d48-c599e24e8c69",
          "display": "Molly Jenkins"
        },
        "effectiveDateTime": "2021-09-09T14:42:11Z",
        "specimen": {
          "reference": "urn:uuid:d1e92dcc-7f8c-468a-90fc-4f58a73ebb57"
        }
      }
    },
    {
      "fullUrl": "urn:uuid:6272719e-a9ac-43d5-8146-7ab77a0cdd31",
      "resource": {
        "resourceType": "Observation",
        "id": "6272719e-a9ac-43d5-8146-7ab77a0cdd31",
        "meta": {
          "profile": [
            "http://hl7.eu/fhir/laboratory/StructureDefinition/Observation-resultslab-eu-lab"
          ]
        },
        "performer": [
          {
            "display": "The Central European Lab"
          }
        ],
        "category": [
          {
            "coding": [
              {
                "system": "http://terminology.hl7.org/CodeSystem/observation-category",
                "code": "laboratory"
              }
            ]
          }
        ],
        "code": {
          "coding": [
            {
              "code": "20505-4",
              "system": "http://loinc.org",
              "display": "Bilirubin.total [Mass/volume] in Urine by Test strip"
            }
          ],
          "text": "Bilirubin.total [Mass/volume] in Urine by Test strip"
        },
        "valueQuantity": {
          "system": "http://unitsofmeasure.org",
          "value": 0.5,
          "unit": "mg/dL",
          "code": "mg/dL"
        },
        "referenceRange": [
          {
            "low": {
              "value": 0,
              "code": "mg/dL",
              "system": "http://unitsofmeasure.org"
            }
          },
          {
            "high": {
              "value": 1.6,
              "code": "mg/dL",
              "system": "http://unitsofmeasure.org"
            }
          }
        ],
        "text": {
          "status": "generated",
          "div": "<div xmlns=\"http://www.w3.org/1999/xhtml\"><table class=\"hl7__eu__lab__report\"><tr><th>Test</th><th>09-Sep-2021</th><th>Reference&#xA0;Range</th><th>Unit</th></tr><tr><td>Bilirubin.total [Mass/volume] in Urine by Test strip</td><td>0.5</td><td>0 - 1.6</td><td></td><td>mg/dL</td></tr></table></div>"
        },
        "status": "final",
        "subject": {
          "reference": "urn:uuid:60a877f1-46fd-4447-8d48-c599e24e8c69",
          "display": "Molly Jenkins"
        },
        "effectiveDateTime": "2021-09-09T14:42:11Z",
        "specimen": {
          "reference": "urn:uuid:d1e92dcc-7f8c-468a-90fc-4f58a73ebb57"
        }
      }
    },
    {
      "fullUrl": "urn:uuid:fd4a5fff-ed22-4145-9b10-42224cc6ff21",
      "resource": {
        "resourceType": "Observation",
        "id": "fd4a5fff-ed22-4145-9b10-42224cc6ff21",
        "meta": {
          "profile": [
            "http://hl7.eu/fhir/laboratory/StructureDefinition/Observation-resultslab-eu-lab"
          ]
        },
        "performer": [
          {
            "display": "The Central European Lab"
          }
        ],
        "category": [
          {
            "coding": [
              {
                "system": "http://terminology.hl7.org/CodeSystem/observation-category",
                "code": "laboratory"
              }
            ]
          }
        ],
        "code": {
          "coding": [
            {
              "code": "5770-3",
              "system": "http://loinc.org",
              "display": "Bilirubin.total [Presence] in Urine by Test strip"
            }
          ],
          "text": "Bilirubin.total [Presence] in Urine by Test strip"
        },
        "text": {
          "status": "generated",
          "div": "<div xmlns=\"http://www.w3.org/1999/xhtml\"><table class=\"hl7__eu__lab__report\"><tr><th>Test</th><th>09-Sep-2021</th><th>Reference&#xA0;Range</th><th>Unit</th></tr><tr><td>Bilirubin.total [Presence] in Urine by Test strip</td></tr></table></div>"
        },
        "status": "final",
        "subject": {
          "reference": "urn:uuid:60a877f1-46fd-4447-8d48-c599e24e8c69",
          "display": "Molly Jenkins"
        },
        "effectiveDateTime": "2021-09-09T14:42:11Z",
        "specimen": {
          "reference": "urn:uuid:d1e92dcc-7f8c-468a-90fc-4f58a73ebb57"
        }
      }
    },
    {
      "fullUrl": "urn:uuid:c103d4da-1385-4643-ab70-79fe7568c338",
      "resource": {
        "resourceType": "Observation",
        "id": "c103d4da-1385-4643-ab70-79fe7568c338",
        "meta": {
          "profile": [
            "http://hl7.eu/fhir/laboratory/StructureDefinition/Observation-resultslab-eu-lab"
          ]
        },
        "performer": [
          {
            "display": "The Central European Lab"
          }
        ],
        "category": [
          {
            "coding": [
              {
                "system": "http://terminology.hl7.org/CodeSystem/observation-category",
                "code": "laboratory"
              }
            ]
          }
        ],
        "code": {
          "coding": [
            {
              "code": "5797-6",
              "system": "http://loinc.org",
              "display": "Ketones [Mass/volume] in Urine by Test strip"
            }
          ],
          "text": "Ketones [Mass/volume] in Urine by Test strip"
        },
        "valueQuantity": {
          "system": "http://unitsofmeasure.org",
          "value": 9.3,
          "unit": "mg/dL",
          "code": "mg/dL"
        },
        "referenceRange": [
          {
            "low": {
              "value": 0,
              "code": "mg/dL",
              "system": "http://unitsofmeasure.org"
            }
          },
          {
            "high": {
              "value": 0.5,
              "code": "mg/dL",
              "system": "http://unitsofmeasure.org"
            }
          }
        ],
        "interpretation": [
          {
            "coding": [
              {
                "code": "H",
                "system": "http://terminology.hl7.org/CodeSystem/v3-ObservationInterpretation",
                "display": "High"
              }
            ]
          }
        ],
        "text": {
          "status": "generated",
          "div": "<div xmlns=\"http://www.w3.org/1999/xhtml\"><table class=\"hl7__eu__lab__report\"><tr><th>Test</th><th>09-Sep-2021</th><th>Reference&#xA0;Range</th><th>Unit</th></tr><tr><td>Ketones [Mass/volume] in Urine by Test strip</td><td>9.3</td><td>0 - 0.5</td><td>H</td><td>mg/dL</td></tr></table></div>"
        },
        "status": "final",
        "subject": {
          "reference": "urn:uuid:60a877f1-46fd-4447-8d48-c599e24e8c69",
          "display": "Molly Jenkins"
        },
        "effectiveDateTime": "2021-09-09T14:42:11Z",
        "specimen": {
          "reference": "urn:uuid:d1e92dcc-7f8c-468a-90fc-4f58a73ebb57"
        }
      }
    },
    {
      "fullUrl": "urn:uuid:d66ddaab-f9ba-43d4-89b6-78c96b6480cb",
      "resource": {
        "resourceType": "Observation",
        "id": "d66ddaab-f9ba-43d4-89b6-78c96b6480cb",
        "meta": {
          "profile": [
            "http://hl7.eu/fhir/laboratory/StructureDefinition/Observation-resultslab-eu-lab"
          ]
        },
        "performer": [
          {
            "display": "The Central European Lab"
          }
        ],
        "category": [
          {
            "coding": [
              {
                "system": "http://terminology.hl7.org/CodeSystem/observation-category",
                "code": "laboratory"
              }
            ]
          }
        ],
        "code": {
          "coding": [
            {
              "code": "2514-8",
              "system": "http://loinc.org",
              "display": "Ketones [Presence] in Urine by Test strip"
            }
          ],
          "text": "Ketones [Presence] in Urine by Test strip"
        },
        "text": {
          "status": "generated",
          "div": "<div xmlns=\"http://www.w3.org/1999/xhtml\"><table class=\"hl7__eu__lab__report\"><tr><th>Test</th><th>09-Sep-2021</th><th>Reference&#xA0;Range</th><th>Unit</th></tr><tr><td>Ketones [Presence] in Urine by Test strip</td></tr></table></div>"
        },
        "status": "final",
        "subject": {
          "reference": "urn:uuid:60a877f1-46fd-4447-8d48-c599e24e8c69",
          "display": "Molly Jenkins"
        },
        "effectiveDateTime": "2021-09-09T14:42:11Z",
        "specimen": {
          "reference": "urn:uuid:d1e92dcc-7f8c-468a-90fc-4f58a73ebb57"
        }
      }
    },
    {
      "fullUrl": "urn:uuid:c2e85255-197d-48ed-9f24-d84f98e60d03",
      "resource": {
        "resourceType": "Observation",
        "id": "c2e85255-197d-48ed-9f24-d84f98e60d03",
        "meta": {
          "profile": [
            "http://hl7.eu/fhir/laboratory/StructureDefinition/Observation-resultslab-eu-lab"
          ]
        },
        "performer": [
          {
            "display": "The Central European Lab"
          }
        ],
        "category": [
          {
            "coding": [
              {
                "system": "http://terminology.hl7.org/CodeSystem/observation-category",
                "code": "laboratory"
              }
            ]
          }
        ],
        "code": {
          "coding": [
            {
              "code": "5811-5",
              "system": "http://loinc.org",
              "display": "Specific gravity of Urine by Test strip"
            }
          ],
          "text": "Specific gravity of Urine by Test strip"
        },
        "valueQuantity": {
          "system": "http://unitsofmeasure.org",
          "value": 1,
          "unit": "{nominal}",
          "code": "{nominal}"
        },
        "referenceRange": [
          {
            "low": {
              "value": 1.005,
              "code": "g/mL",
              "system": "http://unitsofmeasure.org"
            }
          },
          {
            "high": {
              "value": 1.03,
              "code": "g/mL",
              "system": "http://unitsofmeasure.org"
            }
          }
        ],
        "interpretation": [
          {
            "coding": [
              {
                "code": "L",
                "system": "http://terminology.hl7.org/CodeSystem/v3-ObservationInterpretation",
                "display": "Low"
              }
            ]
          }
        ],
        "text": {
          "status": "generated",
          "div": "<div xmlns=\"http://www.w3.org/1999/xhtml\"><table class=\"hl7__eu__lab__report\"><tr><th>Test</th><th>09-Sep-2021</th><th>Reference&#xA0;Range</th><th>Unit</th></tr><tr><td>Specific gravity of Urine by Test strip</td><td>1.0</td><td>1.005 - 1.03</td><td>L</td><td>{nominal}</td></tr></table></div>"
        },
        "status": "final",
        "subject": {
          "reference": "urn:uuid:60a877f1-46fd-4447-8d48-c599e24e8c69",
          "display": "Molly Jenkins"
        },
        "effectiveDateTime": "2021-09-09T14:42:11Z",
        "specimen": {
          "reference": "urn:uuid:d1e92dcc-7f8c-468a-90fc-4f58a73ebb57"
        }
      }
    },
    {
      "fullUrl": "urn:uuid:ff89870b-eb9b-47d6-beca-2b599a34c033",
      "resource": {
        "resourceType": "Observation",
        "id": "ff89870b-eb9b-47d6-beca-2b599a34c033",
        "meta": {
          "profile": [
            "http://hl7.eu/fhir/laboratory/StructureDefinition/Observation-resultslab-eu-lab"
          ]
        },
        "performer": [
          {
            "display": "The Central European Lab"
          }
        ],
        "category": [
          {
            "coding": [
              {
                "system": "http://terminology.hl7.org/CodeSystem/observation-category",
                "code": "laboratory"
              }
            ]
          }
        ],
        "code": {
          "coding": [
            {
              "code": "5803-2",
              "system": "http://loinc.org",
              "display": "pH of Urine by Test strip"
            }
          ],
          "text": "pH of Urine by Test strip"
        },
        "valueQuantity": {
          "system": "http://unitsofmeasure.org",
          "value": 5.9,
          "unit": "pH",
          "code": "pH"
        },
        "referenceRange": [
          {
            "low": {
              "value": 4.5,
              "code": "pH",
              "system": "http://unitsofmeasure.org"
            }
          },
          {
            "high": {
              "value": 7.5,
              "code": "pH",
              "system": "http://unitsofmeasure.org"
            }
          }
        ],
        "text": {
          "status": "generated",
          "div": "<div xmlns=\"http://www.w3.org/1999/xhtml\"><table class=\"hl7__eu__lab__report\"><tr><th>Test</th><th>09-Sep-2021</th><th>Reference&#xA0;Range</th><th>Unit</th></tr><tr><td>pH of Urine by Test strip</td><td>5.9</td><td>4.5 - 7.5</td><td></td><td>pH</td></tr></table></div>"
        },
        "status": "final",
        "subject": {
          "reference": "urn:uuid:60a877f1-46fd-4447-8d48-c599e24e8c69",
          "display": "Molly Jenkins"
        },
        "effectiveDateTime": "2021-09-09T14:42:11Z",
        "specimen": {
          "reference": "urn:uuid:d1e92dcc-7f8c-468a-90fc-4f58a73ebb57"
        }
      }
    },
    {
      "fullUrl": "urn:uuid:ff0b4d9a-f749-46fb-a6bf-b4e788646670",
      "resource": {
        "resourceType": "Observation",
        "id": "ff0b4d9a-f749-46fb-a6bf-b4e788646670",
        "meta": {
          "profile": [
            "http://hl7.eu/fhir/laboratory/StructureDefinition/Observation-resultslab-eu-lab"
          ]
        },
        "performer": [
          {
            "display": "The Central European Lab"
          }
        ],
        "category": [
          {
            "coding": [
              {
                "system": "http://terminology.hl7.org/CodeSystem/observation-category",
                "code": "laboratory"
              }
            ]
          }
        ],
        "code": {
          "coding": [
            {
              "code": "5804-0",
              "system": "http://loinc.org",
              "display": "Protein [Mass/volume] in Urine by Test strip"
            }
          ],
          "text": "Protein [Mass/volume] in Urine by Test strip"
        },
        "valueQuantity": {
          "system": "http://unitsofmeasure.org",
          "value": 200.3,
          "unit": "mg/dL",
          "code": "mg/dL"
        },
        "referenceRange": [
          {
            "low": {
              "value": 0,
              "code": "mg/dL",
              "system": "http://unitsofmeasure.org"
            }
          },
          {
            "high": {
              "value": 15,
              "code": "mg/dL",
              "system": "http://unitsofmeasure.org"
            }
          }
        ],
        "interpretation": [
          {
            "coding": [
              {
                "code": "H",
                "system": "http://terminology.hl7.org/CodeSystem/v3-ObservationInterpretation",
                "display": "High"
              }
            ]
          }
        ],
        "text": {
          "status": "generated",
          "div": "<div xmlns=\"http://www.w3.org/1999/xhtml\"><table class=\"hl7__eu__lab__report\"><tr><th>Test</th><th>09-Sep-2021</th><th>Reference&#xA0;Range</th><th>Unit</th></tr><tr><td>Protein [Mass/volume] in Urine by Test strip</td><td>200.3</td><td>0 - 15</td><td>H</td><td>mg/dL</td></tr></table></div>"
        },
        "status": "final",
        "subject": {
          "reference": "urn:uuid:60a877f1-46fd-4447-8d48-c599e24e8c69",
          "display": "Molly Jenkins"
        },
        "effectiveDateTime": "2021-09-09T14:42:11Z",
        "specimen": {
          "reference": "urn:uuid:d1e92dcc-7f8c-468a-90fc-4f58a73ebb57"
        }
      }
    },
    {
      "fullUrl": "urn:uuid:63ba8a43-ccce-454d-88a5-058073b81e34",
      "resource": {
        "resourceType": "Observation",
        "id": "63ba8a43-ccce-454d-88a5-058073b81e34",
        "meta": {
          "profile": [
            "http://hl7.eu/fhir/laboratory/StructureDefinition/Observation-resultslab-eu-lab"
          ]
        },
        "performer": [
          {
            "display": "The Central European Lab"
          }
        ],
        "category": [
          {
            "coding": [
              {
                "system": "http://terminology.hl7.org/CodeSystem/observation-category",
                "code": "laboratory"
              }
            ]
          }
        ],
        "code": {
          "coding": [
            {
              "code": "20454-5",
              "system": "http://loinc.org",
              "display": "Protein [Presence] in Urine by Test strip"
            }
          ],
          "text": "Protein [Presence] in Urine by Test strip"
        },
        "text": {
          "status": "generated",
          "div": "<div xmlns=\"http://www.w3.org/1999/xhtml\"><table class=\"hl7__eu__lab__report\"><tr><th>Test</th><th>09-Sep-2021</th><th>Reference&#xA0;Range</th><th>Unit</th></tr><tr><td>Protein [Presence] in Urine by Test strip</td></tr></table></div>"
        },
        "status": "final",
        "subject": {
          "reference": "urn:uuid:60a877f1-46fd-4447-8d48-c599e24e8c69",
          "display": "Molly Jenkins"
        },
        "effectiveDateTime": "2021-09-09T14:42:11Z",
        "specimen": {
          "reference": "urn:uuid:d1e92dcc-7f8c-468a-90fc-4f58a73ebb57"
        }
      }
    },
    {
      "fullUrl": "urn:uuid:8f51a761-0bb6-4636-a7db-9d0aad917450",
      "resource": {
        "resourceType": "Observation",
        "id": "8f51a761-0bb6-4636-a7db-9d0aad917450",
        "meta": {
          "profile": [
            "http://hl7.eu/fhir/laboratory/StructureDefinition/Observation-resultslab-eu-lab"
          ]
        },
        "performer": [
          {
            "display": "The Central European Lab"
          }
        ],
        "category": [
          {
            "coding": [
              {
                "system": "http://terminology.hl7.org/CodeSystem/observation-category",
                "code": "laboratory"
              }
            ]
          }
        ],
        "code": {
          "coding": [
            {
              "code": "5802-4",
              "system": "http://loinc.org",
              "display": "Nitrite [Presence] in Urine by Test strip"
            }
          ],
          "text": "Nitrite [Presence] in Urine by Test strip"
        },
        "text": {
          "status": "generated",
          "div": "<div xmlns=\"http://www.w3.org/1999/xhtml\"><table class=\"hl7__eu__lab__report\"><tr><th>Test</th><th>09-Sep-2021</th><th>Reference&#xA0;Range</th><th>Unit</th></tr><tr><td>Nitrite [Presence] in Urine by Test strip</td></tr></table></div>"
        },
        "status": "final",
        "subject": {
          "reference": "urn:uuid:60a877f1-46fd-4447-8d48-c599e24e8c69",
          "display": "Molly Jenkins"
        },
        "effectiveDateTime": "2021-09-09T14:42:11Z",
        "specimen": {
          "reference": "urn:uuid:d1e92dcc-7f8c-468a-90fc-4f58a73ebb57"
        }
      }
    },
    {
      "fullUrl": "urn:uuid:bbaa11d5-fb0e-43e9-9cb8-f40835de779a",
      "resource": {
        "resourceType": "Observation",
        "id": "bbaa11d5-fb0e-43e9-9cb8-f40835de779a",
        "meta": {
          "profile": [
            "http://hl7.eu/fhir/laboratory/StructureDefinition/Observation-resultslab-eu-lab"
          ]
        },
        "performer": [
          {
            "display": "The Central European Lab"
          }
        ],
        "category": [
          {
            "coding": [
              {
                "system": "http://terminology.hl7.org/CodeSystem/observation-category",
                "code": "laboratory"
              }
            ]
          }
        ],
        "code": {
          "coding": [
            {
              "code": "5794-3",
              "system": "http://loinc.org",
              "display": "Hemoglobin [Presence] in Urine by Test strip"
            }
          ],
          "text": "Hemoglobin [Presence] in Urine by Test strip"
        },
        "text": {
          "status": "generated",
          "div": "<div xmlns=\"http://www.w3.org/1999/xhtml\"><table class=\"hl7__eu__lab__report\"><tr><th>Test</th><th>09-Sep-2021</th><th>Reference&#xA0;Range</th><th>Unit</th></tr><tr><td>Hemoglobin [Presence] in Urine by Test strip</td></tr></table></div>"
        },
        "status": "final",
        "subject": {
          "reference": "urn:uuid:60a877f1-46fd-4447-8d48-c599e24e8c69",
          "display": "Molly Jenkins"
        },
        "effectiveDateTime": "2021-09-09T14:42:11Z",
        "specimen": {
          "reference": "urn:uuid:d1e92dcc-7f8c-468a-90fc-4f58a73ebb57"
        }
      }
    },
    {
      "fullUrl": "urn:uuid:d261d0ee-a8b8-4925-a684-4b16ace7153f",
      "resource": {
        "resourceType": "Observation",
        "id": "d261d0ee-a8b8-4925-a684-4b16ace7153f",
        "meta": {
          "profile": [
            "http://hl7.eu/fhir/laboratory/StructureDefinition/Observation-resultslab-eu-lab"
          ]
        },
        "performer": [
          {
            "display": "The Central European Lab"
          }
        ],
        "category": [
          {
            "coding": [
              {
                "system": "http://terminology.hl7.org/CodeSystem/observation-category",
                "code": "laboratory"
              }
            ]
          }
        ],
        "code": {
          "coding": [
            {
              "code": "5799-2",
              "system": "http://loinc.org",
              "display": "Leukocyte esterase [Presence] in Urine by Test strip"
            }
          ],
          "text": "Leukocyte esterase [Presence] in Urine by Test strip"
        },
        "text": {
          "status": "generated",
          "div": "<div xmlns=\"http://www.w3.org/1999/xhtml\"><table class=\"hl7__eu__lab__report\"><tr><th>Test</th><th>09-Sep-2021</th><th>Reference&#xA0;Range</th><th>Unit</th></tr><tr><td>Leukocyte esterase [Presence] in Urine by Test strip</td></tr></table></div>"
        },
        "status": "final",
        "subject": {
          "reference": "urn:uuid:60a877f1-46fd-4447-8d48-c599e24e8c69",
          "display": "Molly Jenkins"
        },
        "effectiveDateTime": "2021-09-09T14:42:11Z",
        "specimen": {
          "reference": "urn:uuid:d1e92dcc-7f8c-468a-90fc-4f58a73ebb57"
        }
      }
    },
    {
      "fullUrl": "urn:uuid:13759cad-c139-4cf0-af58-1994dea80dfa",
      "resource": {
        "resourceType": "Observation",
        "id": "13759cad-c139-4cf0-af58-1994dea80dfa",
        "meta": {
          "profile": [
            "http://hl7.eu/fhir/laboratory/StructureDefinition/Observation-resultslab-eu-lab"
          ]
        },
        "performer": [
          {
            "display": "The Central European Lab"
          }
        ],
        "category": [
          {
            "coding": [
              {
                "system": "http://terminology.hl7.org/CodeSystem/observation-category",
                "code": "laboratory"
              }
            ]
          }
        ],
        "code": {
          "coding": [
            {
              "code": "4548-4",
              "system": "http://loinc.org",
              "display": "Hemoglobin A1c/Hemoglobin.total in Blood"
            }
          ],
          "text": "Hemoglobin A1c/Hemoglobin.total in Blood"
        },
        "valueQuantity": {
          "system": "http://unitsofmeasure.org",
          "value": 3,
          "unit": "%",
          "code": "%"
        },
        "referenceRange": [
          {
            "low": {
              "value": 4,
              "code": "%",
              "system": "http://unitsofmeasure.org"
            }
          },
          {
            "high": {
              "value": 6,
              "code": "%",
              "system": "http://unitsofmeasure.org"
            }
          }
        ],
        "interpretation": [
          {
            "coding": [
              {
                "code": "L",
                "system": "http://terminology.hl7.org/CodeSystem/v3-ObservationInterpretation",
                "display": "Low"
              }
            ]
          }
        ],
        "text": {
          "status": "generated",
          "div": "<div xmlns=\"http://www.w3.org/1999/xhtml\"><table class=\"hl7__eu__lab__report\"><tr><th>Test</th><th>09-Sep-2021</th><th>Reference&#xA0;Range</th><th>Unit</th></tr><tr><td>Hemoglobin A1c/Hemoglobin.total in Blood</td><td>3.0</td><td>4 - 6</td><td>L</td><td>%</td></tr></table></div>"
        },
        "status": "final",
        "subject": {
          "reference": "urn:uuid:60a877f1-46fd-4447-8d48-c599e24e8c69",
          "display": "Molly Jenkins"
        },
        "effectiveDateTime": "2021-09-09T14:42:11Z",
        "specimen": {
          "reference": "urn:uuid:ea95850d-9e1c-49d9-9f86-bb9843e59338"
        }
      }
    },
    {
      "fullUrl": "urn:uuid:4d987397-1d38-4134-9e87-ba5231f9a386",
      "resource": {
        "resourceType": "Observation",
        "id": "4d987397-1d38-4134-9e87-ba5231f9a386",
        "meta": {
          "profile": [
            "http://hl7.eu/fhir/laboratory/StructureDefinition/Observation-resultslab-eu-lab"
          ]
        },
        "performer": [
          {
            "display": "The Central European Lab"
          }
        ],
        "category": [
          {
            "coding": [
              {
                "system": "http://terminology.hl7.org/CodeSystem/observation-category",
                "code": "laboratory"
              }
            ]
          }
        ],
        "code": {
          "coding": [
            {
              "code": "2339-0",
              "system": "http://loinc.org",
              "display": "Glucose [Mass/volume] in Blood"
            }
          ],
          "text": "Glucose [Mass/volume] in Blood"
        },
        "valueQuantity": {
          "system": "http://unitsofmeasure.org",
          "value": 76,
          "unit": "mg/dL",
          "code": "mg/dL"
        },
        "referenceRange": [
          {
            "low": {
              "value": 70,
              "code": "mg/dL",
              "system": "http://unitsofmeasure.org"
            }
          },
          {
            "high": {
              "value": 100,
              "code": "mg/dL",
              "system": "http://unitsofmeasure.org"
            }
          }
        ],
        "text": {
          "status": "generated",
          "div": "<div xmlns=\"http://www.w3.org/1999/xhtml\"><table class=\"hl7__eu__lab__report\"><tr><th>Test</th><th>09-Sep-2021</th><th>Reference&#xA0;Range</th><th>Unit</th></tr><tr><td>Glucose [Mass/volume] in Blood</td><td>76.0</td><td>70 - 100</td><td></td><td>mg/dL</td></tr></table></div>"
        },
        "status": "final",
        "subject": {
          "reference": "urn:uuid:60a877f1-46fd-4447-8d48-c599e24e8c69",
          "display": "Molly Jenkins"
        },
        "effectiveDateTime": "2021-09-09T14:42:11Z",
        "specimen": {
          "reference": "urn:uuid:ea95850d-9e1c-49d9-9f86-bb9843e59338"
        }
      }
    },
    {
      "fullUrl": "urn:uuid:a61249be-4516-4e1c-bf44-10f1074b8c8f",
      "resource": {
        "resourceType": "Observation",
        "id": "a61249be-4516-4e1c-bf44-10f1074b8c8f",
        "meta": {
          "profile": [
            "http://hl7.eu/fhir/laboratory/StructureDefinition/Observation-resultslab-eu-lab"
          ]
        },
        "performer": [
          {
            "display": "The Central European Lab"
          }
        ],
        "category": [
          {
            "coding": [
              {
                "system": "http://terminology.hl7.org/CodeSystem/observation-category",
                "code": "laboratory"
              }
            ]
          }
        ],
        "code": {
          "coding": [
            {
              "code": "6299-2",
              "system": "http://loinc.org",
              "display": "Urea nitrogen [Mass/volume] in Blood"
            }
          ],
          "text": "Urea nitrogen [Mass/volume] in Blood"
        },
        "valueQuantity": {
          "system": "http://unitsofmeasure.org",
          "value": 15.9,
          "unit": "mg/dL",
          "code": "mg/dL"
        },
        "referenceRange": [
          {
            "low": {
              "value": 7,
              "code": "mg/dL",
              "system": "http://unitsofmeasure.org"
            }
          },
          {
            "high": {
              "value": 20,
              "code": "mg/dL",
              "system": "http://unitsofmeasure.org"
            }
          }
        ],
        "text": {
          "status": "generated",
          "div": "<div xmlns=\"http://www.w3.org/1999/xhtml\"><table class=\"hl7__eu__lab__report\"><tr><th>Test</th><th>09-Sep-2021</th><th>Reference&#xA0;Range</th><th>Unit</th></tr><tr><td>Urea nitrogen [Mass/volume] in Blood</td><td>15.9</td><td>7 - 20</td><td></td><td>mg/dL</td></tr></table></div>"
        },
        "status": "final",
        "subject": {
          "reference": "urn:uuid:60a877f1-46fd-4447-8d48-c599e24e8c69",
          "display": "Molly Jenkins"
        },
        "effectiveDateTime": "2021-09-09T14:42:11Z",
        "specimen": {
          "reference": "urn:uuid:ea95850d-9e1c-49d9-9f86-bb9843e59338"
        }
      }
    },
    {
      "fullUrl": "urn:uuid:75bdb535-3c38-4906-8728-38c5e451fbd9",
      "resource": {
        "resourceType": "Observation",
        "id": "75bdb535-3c38-4906-8728-38c5e451fbd9",
        "meta": {
          "profile": [
            "http://hl7.eu/fhir/laboratory/StructureDefinition/Observation-resultslab-eu-lab"
          ]
        },
        "performer": [
          {
            "display": "The Central European Lab"
          }
        ],
        "category": [
          {
            "coding": [
              {
                "system": "http://terminology.hl7.org/CodeSystem/observation-category",
                "code": "laboratory"
              }
            ]
          }
        ],
        "code": {
          "coding": [
            {
              "code": "38483-4",
              "system": "http://loinc.org",
              "display": "Creatinine [Mass/volume] in Blood"
            }
          ],
          "text": "Creatinine [Mass/volume] in Blood"
        },
        "valueQuantity": {
          "system": "http://unitsofmeasure.org",
          "value": 1.6,
          "unit": "mg/dL",
          "code": "mg/dL"
        },
        "referenceRange": [
          {
            "low": {
              "value": 0.6,
              "code": "mg/dL",
              "system": "http://unitsofmeasure.org"
            }
          },
          {
            "high": {
              "value": 1.3,
              "code": "mg/dL",
              "system": "http://unitsofmeasure.org"
            }
          }
        ],
        "interpretation": [
          {
            "coding": [
              {
                "code": "H",
                "system": "http://terminology.hl7.org/CodeSystem/v3-ObservationInterpretation",
                "display": "High"
              }
            ]
          }
        ],
        "text": {
          "status": "generated",
          "div": "<div xmlns=\"http://www.w3.org/1999/xhtml\"><table class=\"hl7__eu__lab__report\"><tr><th>Test</th><th>09-Sep-2021</th><th>Reference&#xA0;Range</th><th>Unit</th></tr><tr><td>Creatinine [Mass/volume] in Blood</td><td>1.6</td><td>0.6 - 1.3</td><td>H</td><td>mg/dL</td></tr></table></div>"
        },
        "status": "final",
        "subject": {
          "reference": "urn:uuid:60a877f1-46fd-4447-8d48-c599e24e8c69",
          "display": "Molly Jenkins"
        },
        "effectiveDateTime": "2021-09-09T14:42:11Z",
        "specimen": {
          "reference": "urn:uuid:ea95850d-9e1c-49d9-9f86-bb9843e59338"
        }
      }
    },
    {
      "fullUrl": "urn:uuid:28204763-ca40-4e40-ac1f-b0fe7554bc77",
      "resource": {
        "resourceType": "Observation",
        "id": "28204763-ca40-4e40-ac1f-b0fe7554bc77",
        "meta": {
          "profile": [
            "http://hl7.eu/fhir/laboratory/StructureDefinition/Observation-resultslab-eu-lab"
          ]
        },
        "performer": [
          {
            "display": "The Central European Lab"
          }
        ],
        "category": [
          {
            "coding": [
              {
                "system": "http://terminology.hl7.org/CodeSystem/observation-category",
                "code": "laboratory"
              }
            ]
          }
        ],
        "code": {
          "coding": [
            {
              "code": "49765-1",
              "system": "http://loinc.org",
              "display": "Calcium [Mass/volume] in Blood"
            }
          ],
          "text": "Calcium [Mass/volume] in Blood"
        },
        "valueQuantity": {
          "system": "http://unitsofmeasure.org",
          "value": 9.8,
          "unit": "mg/dL",
          "code": "mg/dL"
        },
        "referenceRange": [
          {
            "low": {
              "value": 8.6,
              "code": "mg/dL",
              "system": "http://unitsofmeasure.org"
            }
          },
          {
            "high": {
              "value": 10.4,
              "code": "mg/dL",
              "system": "http://unitsofmeasure.org"
            }
          }
        ],
        "text": {
          "status": "generated",
          "div": "<div xmlns=\"http://www.w3.org/1999/xhtml\"><table class=\"hl7__eu__lab__report\"><tr><th>Test</th><th>09-Sep-2021</th><th>Reference&#xA0;Range</th><th>Unit</th></tr><tr><td>Calcium [Mass/volume] in Blood</td><td>9.8</td><td>8.6 - 10.4</td><td></td><td>mg/dL</td></tr></table></div>"
        },
        "status": "final",
        "subject": {
          "reference": "urn:uuid:60a877f1-46fd-4447-8d48-c599e24e8c69",
          "display": "Molly Jenkins"
        },
        "effectiveDateTime": "2021-09-09T14:42:11Z",
        "specimen": {
          "reference": "urn:uuid:ea95850d-9e1c-49d9-9f86-bb9843e59338"
        }
      }
    },
    {
      "fullUrl": "urn:uuid:83c32f2b-b33c-4b54-b22b-0f50ac586f4e",
      "resource": {
        "resourceType": "Observation",
        "id": "83c32f2b-b33c-4b54-b22b-0f50ac586f4e",
        "meta": {
          "profile": [
            "http://hl7.eu/fhir/laboratory/StructureDefinition/Observation-resultslab-eu-lab"
          ]
        },
        "performer": [
          {
            "display": "The Central European Lab"
          }
        ],
        "category": [
          {
            "coding": [
              {
                "system": "http://terminology.hl7.org/CodeSystem/observation-category",
                "code": "laboratory"
              }
            ]
          }
        ],
        "code": {
          "coding": [
            {
              "code": "2947-0",
              "system": "http://loinc.org",
              "display": "Sodium [Moles/volume] in Blood"
            }
          ],
          "text": "Sodium [Moles/volume] in Blood"
        },
        "valueQuantity": {
          "system": "http://unitsofmeasure.org",
          "value": 138.4,
          "unit": "mmol/L",
          "code": "mmol/L"
        },
        "referenceRange": [
          {
            "low": {
              "value": 135,
              "code": "mmol/L",
              "system": "http://unitsofmeasure.org"
            }
          },
          {
            "high": {
              "value": 145,
              "code": "mmol/L",
              "system": "http://unitsofmeasure.org"
            }
          }
        ],
        "text": {
          "status": "generated",
          "div": "<div xmlns=\"http://www.w3.org/1999/xhtml\"><table class=\"hl7__eu__lab__report\"><tr><th>Test</th><th>09-Sep-2021</th><th>Reference&#xA0;Range</th><th>Unit</th></tr><tr><td>Sodium [Moles/volume] in Blood</td><td>138.4</td><td>135 - 145</td><td></td><td>mmol/L</td></tr></table></div>"
        },
        "status": "final",
        "subject": {
          "reference": "urn:uuid:60a877f1-46fd-4447-8d48-c599e24e8c69",
          "display": "Molly Jenkins"
        },
        "effectiveDateTime": "2021-09-09T14:42:11Z",
        "specimen": {
          "reference": "urn:uuid:ea95850d-9e1c-49d9-9f86-bb9843e59338"
        }
      }
    },
    {
      "fullUrl": "urn:uuid:bf7ced31-64e3-4cd2-b8cc-77ccb1e25e99",
      "resource": {
        "resourceType": "Observation",
        "id": "bf7ced31-64e3-4cd2-b8cc-77ccb1e25e99",
        "meta": {
          "profile": [
            "http://hl7.eu/fhir/laboratory/StructureDefinition/Observation-resultslab-eu-lab"
          ]
        },
        "performer": [
          {
            "display": "The Central European Lab"
          }
        ],
        "category": [
          {
            "coding": [
              {
                "system": "http://terminology.hl7.org/CodeSystem/observation-category",
                "code": "laboratory"
              }
            ]
          }
        ],
        "code": {
          "coding": [
            {
              "code": "6298-4",
              "system": "http://loinc.org",
              "display": "Potassium [Moles/volume] in Blood"
            }
          ],
          "text": "Potassium [Moles/volume] in Blood"
        },
        "valueQuantity": {
          "system": "http://unitsofmeasure.org",
          "value": 4.6,
          "unit": "mmol/L",
          "code": "mmol/L"
        },
        "referenceRange": [
          {
            "low": {
              "value": 3.5,
              "code": "mmol/L",
              "system": "http://unitsofmeasure.org"
            }
          },
          {
            "high": {
              "value": 5.1,
              "code": "mmol/L",
              "system": "http://unitsofmeasure.org"
            }
          }
        ],
        "text": {
          "status": "generated",
          "div": "<div xmlns=\"http://www.w3.org/1999/xhtml\"><table class=\"hl7__eu__lab__report\"><tr><th>Test</th><th>09-Sep-2021</th><th>Reference&#xA0;Range</th><th>Unit</th></tr><tr><td>Potassium [Moles/volume] in Blood</td><td>4.6</td><td>3.5 - 5.1</td><td></td><td>mmol/L</td></tr></table></div>"
        },
        "status": "final",
        "subject": {
          "reference": "urn:uuid:60a877f1-46fd-4447-8d48-c599e24e8c69",
          "display": "Molly Jenkins"
        },
        "effectiveDateTime": "2021-09-09T14:42:11Z",
        "specimen": {
          "reference": "urn:uuid:ea95850d-9e1c-49d9-9f86-bb9843e59338"
        }
      }
    },
    {
      "fullUrl": "urn:uuid:2737840f-f487-4507-a5e2-a539147405a7",
      "resource": {
        "resourceType": "Observation",
        "id": "2737840f-f487-4507-a5e2-a539147405a7",
        "meta": {
          "profile": [
            "http://hl7.eu/fhir/laboratory/StructureDefinition/Observation-resultslab-eu-lab"
          ]
        },
        "performer": [
          {
            "display": "The Central European Lab"
          }
        ],
        "category": [
          {
            "coding": [
              {
                "system": "http://terminology.hl7.org/CodeSystem/observation-category",
                "code": "laboratory"
              }
            ]
          }
        ],
        "code": {
          "coding": [
            {
              "code": "2069-3",
              "system": "http://loinc.org",
              "display": "Chloride [Moles/volume] in Blood"
            }
          ],
          "text": "Chloride [Moles/volume] in Blood"
        },
        "valueQuantity": {
          "system": "http://unitsofmeasure.org",
          "value": 110.9,
          "unit": "mmol/L",
          "code": "mmol/L"
        },
        "referenceRange": [
          {
            "low": {
              "value": 98,
              "code": "mmol/L",
              "system": "http://unitsofmeasure.org"
            }
          },
          {
            "high": {
              "value": 110,
              "code": "mmol/L",
              "system": "http://unitsofmeasure.org"
            }
          }
        ],
        "interpretation": [
          {
            "coding": [
              {
                "code": "H",
                "system": "http://terminology.hl7.org/CodeSystem/v3-ObservationInterpretation",
                "display": "High"
              }
            ]
          }
        ],
        "text": {
          "status": "generated",
          "div": "<div xmlns=\"http://www.w3.org/1999/xhtml\"><table class=\"hl7__eu__lab__report\"><tr><th>Test</th><th>09-Sep-2021</th><th>Reference&#xA0;Range</th><th>Unit</th></tr><tr><td>Chloride [Moles/volume] in Blood</td><td>110.9</td><td>98 - 110</td><td>H</td><td>mmol/L</td></tr></table></div>"
        },
        "status": "final",
        "subject": {
          "reference": "urn:uuid:60a877f1-46fd-4447-8d48-c599e24e8c69",
          "display": "Molly Jenkins"
        },
        "effectiveDateTime": "2021-09-09T14:42:11Z",
        "specimen": {
          "reference": "urn:uuid:ea95850d-9e1c-49d9-9f86-bb9843e59338"
        }
      }
    },
    {
      "fullUrl": "urn:uuid:305de546-e408-4637-b347-27e975ae1903",
      "resource": {
        "resourceType": "Observation",
        "id": "305de546-e408-4637-b347-27e975ae1903",
        "meta": {
          "profile": [
            "http://hl7.eu/fhir/laboratory/StructureDefinition/Observation-resultslab-eu-lab"
          ]
        },
        "performer": [
          {
            "display": "The Central European Lab"
          }
        ],
        "category": [
          {
            "coding": [
              {
                "system": "http://terminology.hl7.org/CodeSystem/observation-category",
                "code": "laboratory"
              }
            ]
          }
        ],
        "code": {
          "coding": [
            {
              "code": "20565-8",
              "system": "http://loinc.org",
              "display": "Carbon dioxide, total [Moles/volume] in Blood"
            }
          ],
          "text": "Carbon dioxide, total [Moles/volume] in Blood"
        },
        "valueQuantity": {
          "system": "http://unitsofmeasure.org",
          "value": 22.9,
          "unit": "mmol/L",
          "code": "mmol/L"
        },
        "referenceRange": [
          {
            "low": {
              "value": 22,
              "code": "mmol/L",
              "system": "http://unitsofmeasure.org"
            }
          },
          {
            "high": {
              "value": 29,
              "code": "mmol/L",
              "system": "http://unitsofmeasure.org"
            }
          }
        ],
        "text": {
          "status": "generated",
          "div": "<div xmlns=\"http://www.w3.org/1999/xhtml\"><table class=\"hl7__eu__lab__report\"><tr><th>Test</th><th>09-Sep-2021</th><th>Reference&#xA0;Range</th><th>Unit</th></tr><tr><td>Carbon dioxide, total [Moles/volume] in Blood</td><td>22.9</td><td>22 - 29</td><td></td><td>mmol/L</td></tr></table></div>"
        },
        "status": "final",
        "subject": {
          "reference": "urn:uuid:60a877f1-46fd-4447-8d48-c599e24e8c69",
          "display": "Molly Jenkins"
        },
        "effectiveDateTime": "2021-09-09T14:42:11Z",
        "specimen": {
          "reference": "urn:uuid:ea95850d-9e1c-49d9-9f86-bb9843e59338"
        }
      }
    },
    {
      "fullUrl": "urn:uuid:61382a11-f7b0-4434-85b9-6188820ab192",
      "resource": {
        "resourceType": "Device",
        "id": "61382a11-f7b0-4434-85b9-6188820ab192",
        "deviceName": [
          {
            "name": "SYNDERAI Synthetic Generator",
            "type": "manufacturer-name"
          }
        ],
        "version": [
          {
            "value": "5.0"
          }
        ],
        "text": {
          "status": "generated",
          "div": "<div xmlns=\"http://www.w3.org/1999/xhtml\">SYNDERAI Synthetic Generator v5.0</div>"
        },
        "status": "active\"",
        "distinctIdentifier": "synderai-generator-50",
        "manufacturer": "SYNDERAI Project"
      }
    },
    {
      "fullUrl": "urn:uuid:9b69ac19-cfac-4dd1-b6d4-5cfc60e79b77",
      "resource": {
        "resourceType": "Provenance",
        "id": "9b69ac19-cfac-4dd1-b6d4-5cfc60e79b77",
        "target": [
          {
            "reference": "Patient/60a877f1-46fd-4447-8d48-c599e24e8c69"
          },
          {
            "reference": "Bundle/9350a1a0-bdab-4b84-a443-c46570899327"
          },
          {
            "reference": "Composition/f6d3f12b-3617-491e-81bc-4dbaab9a35d0"
          },
          {
            "reference": "PractitionerRole/9b080e67-06c0-4df6-a00a-7b2c96481de7"
          },
          {
            "reference": "Practitioner/804cb7bc-cd96-4053-9013-c3f7e578c973"
          },
          {
            "reference": "PractitionerRole/6d8f7d6c-4261-4561-9296-14de76440141"
          },
          {
            "reference": "Organization/25f5b95e-ca20-42f3-bdb6-8098d9a38727"
          }
        ],
        "activity": {
          "text": "Synthetic Example Data Generation"
        },
        "policy": [
          "https://synderai.net/synderai-synthetic-data-policy"
        ],
        "agent": [
          {
            "type": {
              "text": "author"
            },
            "who": {
              "reference": "Device/61382a11-f7b0-4434-85b9-6188820ab192"
            }
          }
        ],
        "reason": [
          {
            "text": "Interoperability Testing and Training (non-clinical use)"
          }
        ],
        "text": {
          "status": "generated",
          "div": "<div xmlns=\"http://www.w3.org/1999/xhtml\">Provenance for SYNDERAI Synthetic Example Data Resource</div>"
        },
        "recorded": "2021-09-09T16:42:11Z"
      }
    },
    {
      "fullUrl": "urn:uuid:9b080e67-06c0-4df6-a00a-7b2c96481de7",
      "resource": {
        "resourceType": "PractitionerRole",
        "id": "9b080e67-06c0-4df6-a00a-7b2c96481de7",
        "meta": {
          "profile": [
            "http://hl7.eu/fhir/base/StructureDefinition/practitionerRole-eu"
          ]
        },
        "text": {
          "status": "generated",
          "div": "<div xmlns=\"http://www.w3.org/1999/xhtml\">Laboratory Role Id: 9b080e67-06c0-4df6-a00a-7b2c96481de7</div>"
        },
        "practitioner": {
          "reference": "urn:uuid:804cb7bc-cd96-4053-9013-c3f7e578c973"
        }
      }
    },
    {
      "fullUrl": "urn:uuid:804cb7bc-cd96-4053-9013-c3f7e578c973",
      "resource": {
        "resourceType": "Practitioner",
        "id": "804cb7bc-cd96-4053-9013-c3f7e578c973",
        "meta": {
          "profile": [
            "http://hl7.eu/fhir/base/StructureDefinition/practitioner-eu"
          ]
        },
        "identifier": [
          {
            "assigner": {
              "display": "HL7 Europe"
            },
            "system": "urn:oid:2.16.840.1.113883.2.51.999",
            "value": "296a8e1b-7a39-4a46-8ab3-776b9c8e2158"
          }
        ],
        "name": [
          {
            "prefix": [
              "dr"
            ],
            "given": [
              "Ex"
            ],
            "family": "Ample"
          }
        ],
        "address": [
          {
            "line": [
              "Laboratoire Central Europenne",
              "Boulevard du Jardin Botanique 32"
            ],
            "postalCode": "1000",
            "city": "Brussels",
            "country": "Belgium"
          }
        ],
        "text": {
          "status": "generated",
          "div": "<div xmlns=\"http://www.w3.org/1999/xhtml\">Laboratory: Laboratoire Central Europenne, 1000 Brussels, Belgium</div>"
        }
      }
    }
  ],
  "type": "document",
  "timestamp": "2021-09-09T16:42:11Z"
}
