<Bundle xmlns="http://hl7.org/fhir">
   <id value="f134593a-5717-4ab8-ac63-10beb4e05914"/>
   <meta>
      <profile value="http://hl7.eu/fhir/laboratory/StructureDefinition/Bundle-eu-lab"/>
   </meta>
   <identifier>
      <system value="urn:oid:2.16.840.1.113883.2.51.999"/>
      <value value="5d9590b7-3fde-40d2-9f0f-c81dab90fe59"/>
      <assigner>
         <display value="HL7 Europe"/>
      </assigner>
   </identifier>
   <type value="document"/>
   <timestamp value="2020-12-10T11:32:47Z"/>
   <entry>
      <fullUrl value="urn:uuid:4af9900a-0997-4a26-8975-7d4f1c4723bb"/>
      <resource>
         <Composition>
            <id value="4af9900a-0997-4a26-8975-7d4f1c4723bb"/>
            <meta>
               <profile value="http://hl7.eu/fhir/laboratory/StructureDefinition/Composition-eu-lab"/>
            </meta>
            <identifier>
               <system value="urn:oid:2.16.840.1.113883.2.51.999"/>
               <value value="ea3d3044-aea5-418b-9d55-5b1348c637b8"/>
               <assigner>
                  <display value="HL7 Europe"/>
               </assigner>
            </identifier>
            <status value="final"/>
            <type>
               <coding>
                  <system value="http://loinc.org"/>
                  <code value="11502-2"/>
                  <display value="Laboratory report"/>
               </coding>
               <text value="Laboratory Report"/>
            </type>
            <category>
               <coding>
                  <system value="http://loinc.org"/>
                  <code value="26436-6"/>
                  <display value="Laboratory studies (set)"/>
               </coding>
            </category>
            <subject>
               <reference value="urn:uuid:78b0c784-3859-40c9-a18c-01818e60d2f9"/>
               <display value="Elias Höfig"/>
            </subject>
            <date value="2020-12-10T11:32:47Z"/>
            <author>
               <reference value="urn:uuid:ae53594b-0654-4720-a6a6-dc4d1b49bc40"/>
            </author>
            <title value="Laboratory Report"/>
            <confidentiality value="N"/>
            <section>
               <title value="Laboratory Report"/>
               <code>
                  <coding>
                     <system value="http://loinc.org"/>
                     <code value="26436-6"/>
                     <display value="Laboratory studies (set)"/>
                  </coding>
                  <text value="Laboratory studies"/>
               </code>
               <section>
                  <title value="Microbiology Panel"/>
                  <code>
                     <coding>
                        <system value="http://loinc.org"/>
                        <code value="$18725-2"/>
                        <display value="Microbiology studies"/>
                     </coding>
                     <text value="Microbiology Panel"/>
                  </code>
                  <text>
                     <status value="generated"/>
                     <div xmlns="http://www.w3.org/1999/xhtml">
                        <h3>Microbiology Panel</h3>
                        <table class="hl7__eu__lab__report">
                           <thead>
                              <tr>
                                 <th>Test</th>
                                 <th>10-DEC-2020</th>
                                 <th>Reference Range</th>
                                 <th>Unit</th>
                              </tr>
                           </thead>
                           <tbody>
                              <tr>
                                 <td>SARS-CoV-2 (COVID-19) RNA panel - Respiratory system specimen by NAA with probe detection</td>
                                 <td>Detected</td>
                                 <td/>
                                 <td/>
                              </tr>
                           </tbody>
                        </table>
                     </div>
                  </text>
                  <entry>
                     <reference value="urn:uuid:adbf6648-6b8e-4afa-b61b-e95f9d967f73"/>
                  </entry>
               </section>
            </section>
            <section>
               <title value="Annotation comment"/>
               <code>
                  <coding>
                     <system value="http://loinc.org"/>
                     <code value="48767-8"/>
                     <display value="Annotation comment"/>
                  </coding>
               </code>
               <text>
                  <status value="generated"/>
                  <div xmlns="http://www.w3.org/1999/xhtml">
                     <h3>Annotation</h3>
                     <table class="hl7__eu__lab__report">
                        <tr>
                           <th>Conclusion and Recommendations based on this report and previous findings known to us</th>
                        </tr>
                        <tr>
                           <td>SARS-CoV-2 RNA was detected in the respiratory specimen, indicating an active COVID-19 infection. Clinical correlation and appropriate infection control measures are recommended. No other laboratory parameters provided for further assessment.</td>
                        </tr>
                     </table>
                  </div>
               </text>
            </section>
         </Composition>
      </resource>
   </entry>
   <entry>
      <fullUrl value="urn:uuid:c1f55e70-6360-46f2-9f14-f9cdbd920140"/>
      <resource>
         <DiagnosticReport>
            <id value="c1f55e70-6360-46f2-9f14-f9cdbd920140"/>
            <meta>
               <profile value="http://hl7.eu/fhir/laboratory/StructureDefinition/DiagnosticReport-eu-lab"/>
            </meta>
            <extension url="http://hl7.org/fhir/5.0/StructureDefinition/extension-DiagnosticReport.composition">
               <valueReference>
                  <reference value="urn:uuid:ea3d3044-aea5-418b-9d55-5b1348c637b8"/>
               </valueReference>
            </extension>
            <identifier>
               <system value="urn:oid:2.16.840.1.113883.2.51.999"/>
               <value value="9e4bb2af-263d-42c3-b415-b7a93396cfa5"/>
               <assigner>
                  <display value="HL7 Europe"/>
               </assigner>
            </identifier>
            <status value="registered"/>
            <category>
               <coding>
                  <system value="http://loinc.org"/>
                  <code value="26436-6"/>
                  <display value="Laboratory studies (set)"/>
               </coding>
            </category>
            <code>
               <coding>
                  <system value="http://loinc.org"/>
                  <code value="11502-2"/>
                  <display value="Laboratory report"/>
               </coding>
            </code>
            <subject>
               <reference value="urn:uuid:78b0c784-3859-40c9-a18c-01818e60d2f9"/>
               <display value="Elias Höfig"/>
            </subject>
            <specimen>
               <reference value="urn:uuid:e046e3fa-edac-4626-98b6-1b9f57947770"/>
            </specimen>
            <result>
               <reference value="urn:uuid:adbf6648-6b8e-4afa-b61b-e95f9d967f73"/>
            </result>
         </DiagnosticReport>
      </resource>
   </entry>
   <entry>
      <fullUrl value="urn:uuid:78b0c784-3859-40c9-a18c-01818e60d2f9"/>
      <resource>
         <Patient>
            <id value="78b0c784-3859-40c9-a18c-01818e60d2f9"/>
            <meta>
               <profile value="http://hl7.eu/fhir/base/StructureDefinition/patient-eu-core"/>
               <security>
                  <system value="http://terminology.hl7.org/CodeSystem/v3-ActReason"/>
                  <code value="HTEST"/>
               </security>
               <security>
                  <system value="http://terminology.hl7.org/CodeSystem/v3-ActReason"/>
                  <code value="TRAIN"/>
               </security>
               <tag>
                  <system value="https://synderai.net/fhir/CodeSystem/tags"/>
                  <code value="synthetic"/>
                  <display value="SYNDERAI Synthetic data"/>
               </tag>
            </meta>
            <text>
               <status value="generated"/>
               <div xmlns="http://www.w3.org/1999/xhtml">
                  <table class="hl7__ips">
                     <tr>
                        <td>Elias Höfig</td>
                        <td>male</td>
                        <td>19-May-1974</td>
                     </tr>
                  </table>
               </div>
            </text>
            <extension url="http://hl7.org/fhir/StructureDefinition/patient-nationality">
               <valueCodeableConcept>
                  <coding>
                     <system value="http://hl7.org/fhir/ValueSet/country"/>
                     <code value="DE"/>
                  </coding>
               </valueCodeableConcept>
            </extension>
            <identifier>
               <type>
                  <coding>
                     <system value="http://terminology.hl7.org/CodeSystem/v2-0203"/>
                     <code value="PT"/>
                  </coding>
               </type>
               <system value="http://ec.europa.eu/identifier/eci"/>
               <value value="7833-401919-3"/>
            </identifier>
            <identifier>
               <type>
                  <coding>
                     <system value="http://terminology.hl7.org/CodeSystem/v2-0203"/>
                     <code value="MR"/>
                  </coding>
               </type>
               <system value="http://local.setting.eu/identifier"/>
               <value value="55b3d71c-a283-2178-4db6-d251ed0e1404"/>
            </identifier>
            <name>
               <family value="Höfig"/>
            </name>
            <name>
               <given value="Elias"/>
            </name>
            <name>
               <text value="Elias Höfig"/>
            </name>
            <telecom>
               <system value="phone"/>
               <value value="+49 (0) 4602 154908"/>
            </telecom>
            <gender value="male"/>
            <birthDate value="1974-05-19"/>
            <address>
               <use value="home"/>
               <type value="physical"/>
               <line value="Pauline-Schwital-Allee 6-2"/>
               <city value="Wolmirstedt"/>
               <postalCode value="39326"/>
               <country value="Germany"/>
            </address>
         </Patient>
      </resource>
   </entry>
   <entry>
      <fullUrl value="urn:uuid:7f05fbec-80b1-4fdd-a7d2-580610e26ea0"/>
      <resource>
         <ServiceRequest>
            <id value="7f05fbec-80b1-4fdd-a7d2-580610e26ea0"/>
            <meta>
               <profile value="http://hl7.eu/fhir/laboratory/StructureDefinition/ServiceRequest-eu-lab"/>
            </meta>
            <identifier>
               <system value="http://example.org"/>
               <value value="6533e5b5-8bae-4b4b-82e3-a41525b54cf8"/>
            </identifier>
            <status value="active"/>
            <intent value="order"/>
            <code>
               <coding>
                  <system value="http://snomed.info/sct"/>
                  <code value="108252007"/>
                  <display value="Laboratory procedure"/>
               </coding>
            </code>
            <subject>
               <reference value="urn:uuid:78b0c784-3859-40c9-a18c-01818e60d2f9"/>
               <display value="Elias Höfig"/>
            </subject>
            <requester>
               <reference value="urn:uuid:ae2ffea2-7b03-461f-8b07-f38eb97bb426"/>
            </requester>
            <specimen>
               <reference value="urn:uuid:e046e3fa-edac-4626-98b6-1b9f57947770"/>
            </specimen>
         </ServiceRequest>
      </resource>
   </entry>
   <entry>
      <fullUrl value="urn:uuid:ae2ffea2-7b03-461f-8b07-f38eb97bb426"/>
      <resource>
         <PractitionerRole>
            <id value="ae2ffea2-7b03-461f-8b07-f38eb97bb426"/>
            <meta>
               <profile value="http://hl7.eu/fhir/base/StructureDefinition/practitionerRole-eu"/>
            </meta>
            <text>
               <status value="generated"/>
               <div xmlns="http://www.w3.org/1999/xhtml">Provider Role Id: ae2ffea2-7b03-461f-8b07-f38eb97bb426</div>
            </text>
            <organization>
               <reference value="urn:uuid:e76d6bf1-ac3c-46c5-a1a7-051ed9d7eca4"/>
            </organization>
         </PractitionerRole>
      </resource>
   </entry>
   <entry>
      <fullUrl value="urn:uuid:e76d6bf1-ac3c-46c5-a1a7-051ed9d7eca4"/>
      <resource>
         <Organization>
            <id value="e76d6bf1-ac3c-46c5-a1a7-051ed9d7eca4"/>
            <meta>
               <profile value="http://hl7.eu/fhir/base/StructureDefinition/organization-eu"/>
            </meta>
            <text>
               <status value="generated"/>
               <div xmlns="http://www.w3.org/1999/xhtml">Provider Organization: Klinikum Magdeburg</div>
            </text>
            <identifier>
               <system value="urn:oid:2.16.840.1.113883.2.51.999"/>
               <value value="f77b11d5-23fa-4b5e-b4bc-410a8299d722"/>
               <assigner>
                  <display value="HL7 Europe"/>
               </assigner>
            </identifier>
            <name value="Klinikum Magdeburg"/>
            <address>
               <line value="Birkenallee 34"/>
               <city value="Magdeburg"/>
               <postalCode value="39130"/>
               <country value="Germany"/>
            </address>
         </Organization>
      </resource>
   </entry>
   <entry>
      <fullUrl value="urn:uuid:e046e3fa-edac-4626-98b6-1b9f57947770"/>
      <resource>
         <Specimen>
            <id value="e046e3fa-edac-4626-98b6-1b9f57947770"/>
            <meta>
               <profile value="http://hl7.eu/fhir/laboratory/StructureDefinition/Specimen-eu-lab"/>
            </meta>
            <text>
               <status value="generated"/>
               <div xmlns="http://www.w3.org/1999/xhtml">
                  <table class="hl7__eu__lab__report">
                     <tr>
                        <th>Specimen</th>
                        <th>Collection Date</th>
                     </tr>
                     <tr>
                        <td>Respiratory specimen (specimen)</td>
                        <td>
                           <span class="nb">10-Dec-2020</span>
                        </td>
                     </tr>
                  </table>
               </div>
            </text>
            <type>
               <coding>
                  <system value="http://snomed.info/sct"/>
                  <code value="258603007"/>
                  <display value="Respiratory specimen (specimen)"/>
               </coding>
            </type>
            <collection>
               <collectedDateTime value="2020-12-10"/>
            </collection>
         </Specimen>
      </resource>
   </entry>
   <entry>
      <fullUrl value="urn:uuid:adbf6648-6b8e-4afa-b61b-e95f9d967f73"/>
      <resource>
         <Observation>
            <id value="adbf6648-6b8e-4afa-b61b-e95f9d967f73"/>
            <meta>
               <profile value="http://hl7.eu/fhir/laboratory/StructureDefinition/Observation-resultslab-eu-lab"/>
            </meta>
            <text>
               <status value="generated"/>
               <div xmlns="http://www.w3.org/1999/xhtml">
                  <table class="hl7__eu__lab__report">
                     <tr>
                        <th>Test</th>
                        <th>10-Dec-2020</th>
                        <th>Reference Range</th>
                        <th>Unit</th>
                     </tr>
                     <tr>
                        <td>SARS-CoV-2 (COVID-19) RNA panel - Respiratory system specimen by NAA with probe detection</td>
                     </tr>
                  </table>
               </div>
            </text>
            <status value="final"/>
            <category>
               <coding>
                  <system value="http://terminology.hl7.org/CodeSystem/observation-category"/>
                  <code value="laboratory"/>
               </coding>
            </category>
            <code>
               <coding>
                  <system value="http://loinc.org"/>
                  <code value="94531-1"/>
                  <display value="SARS-CoV-2 (COVID-19) RNA panel - Respiratory system specimen by NAA with probe detection"/>
               </coding>
               <text value="SARS-CoV-2 (COVID-19) RNA panel - Respiratory system specimen by NAA with probe detection"/>
            </code>
            <subject>
               <reference value="urn:uuid:78b0c784-3859-40c9-a18c-01818e60d2f9"/>
               <display value="Elias Höfig"/>
            </subject>
            <effectiveDateTime value="2020-12-10T10:32:47Z"/>
            <performer>
               <display value="The Central European Lab"/>
            </performer>
            <specimen>
               <reference value="urn:uuid:e046e3fa-edac-4626-98b6-1b9f57947770"/>
            </specimen>
         </Observation>
      </resource>
   </entry>
   <entry>
      <fullUrl value="urn:uuid:ac1ab6f1-1680-4fc9-9dce-0269517e040e"/>
      <resource>
         <Device>
            <id value="ac1ab6f1-1680-4fc9-9dce-0269517e040e"/>
            <text>
               <status value="generated"/>
               <div xmlns="http://www.w3.org/1999/xhtml">SYNDERAI Synthetic Generator v5.0</div>
            </text>
            <status value="active&#34;"/>
            <distinctIdentifier value="synderai-generator-50"/>
            <manufacturer value="SYNDERAI Project"/>
            <deviceName>
               <name value="SYNDERAI Synthetic Generator"/>
               <type value="manufacturer-name"/>
            </deviceName>
            <version>
               <value value="5.0"/>
            </version>
         </Device>
      </resource>
   </entry>
   <entry>
      <fullUrl value="urn:uuid:aeac921c-ab6e-4168-9468-8070d19e3734"/>
      <resource>
         <Provenance>
            <id value="aeac921c-ab6e-4168-9468-8070d19e3734"/>
            <text>
               <status value="generated"/>
               <div xmlns="http://www.w3.org/1999/xhtml">Provenance for SYNDERAI Synthetic Example Data Resource</div>
            </text>
            <target>
               <reference value="Patient/78b0c784-3859-40c9-a18c-01818e60d2f9"/>
            </target>
            <target>
               <reference value="Bundle/f134593a-5717-4ab8-ac63-10beb4e05914"/>
            </target>
            <target>
               <reference value="Composition/4af9900a-0997-4a26-8975-7d4f1c4723bb"/>
            </target>
            <target>
               <reference value="PractitionerRole/ae53594b-0654-4720-a6a6-dc4d1b49bc40"/>
            </target>
            <target>
               <reference value="Practitioner/ec1bd493-ad66-4c1e-a009-0d6d3628cb00"/>
            </target>
            <target>
               <reference value="PractitionerRole/ae2ffea2-7b03-461f-8b07-f38eb97bb426"/>
            </target>
            <target>
               <reference value="Organization/e76d6bf1-ac3c-46c5-a1a7-051ed9d7eca4"/>
            </target>
            <recorded value="2020-12-10T11:32:47Z"/>
            <policy value="https://synderai.net/synderai-synthetic-data-policy"/>
            <reason>
               <text value="Interoperability Testing and Training (non-clinical use)"/>
            </reason>
            <activity>
               <text value="Synthetic Example Data Generation"/>
            </activity>
            <agent>
               <type>
                  <text value="author"/>
               </type>
               <who>
                  <reference value="Device/ac1ab6f1-1680-4fc9-9dce-0269517e040e"/>
               </who>
            </agent>
         </Provenance>
      </resource>
   </entry>
   <entry>
      <fullUrl value="urn:uuid:ae53594b-0654-4720-a6a6-dc4d1b49bc40"/>
      <resource>
         <PractitionerRole>
            <id value="ae53594b-0654-4720-a6a6-dc4d1b49bc40"/>
            <meta>
               <profile value="http://hl7.eu/fhir/base/StructureDefinition/practitionerRole-eu"/>
            </meta>
            <text>
               <status value="generated"/>
               <div xmlns="http://www.w3.org/1999/xhtml">Laboratory Role Id: ae53594b-0654-4720-a6a6-dc4d1b49bc40</div>
            </text>
            <practitioner>
               <reference value="urn:uuid:ec1bd493-ad66-4c1e-a009-0d6d3628cb00"/>
            </practitioner>
         </PractitionerRole>
      </resource>
   </entry>
   <entry>
      <fullUrl value="urn:uuid:ec1bd493-ad66-4c1e-a009-0d6d3628cb00"/>
      <resource>
         <Practitioner>
            <id value="ec1bd493-ad66-4c1e-a009-0d6d3628cb00"/>
            <meta>
               <profile value="http://hl7.eu/fhir/base/StructureDefinition/practitioner-eu"/>
            </meta>
            <text>
               <status value="generated"/>
               <div xmlns="http://www.w3.org/1999/xhtml">Laboratory: Laboratoire Central Européenne, 1000 Brussels, Belgium</div>
            </text>
            <identifier>
               <system value="urn:oid:2.16.840.1.113883.2.51.999"/>
               <value value="90ebeaf5-fd77-4072-8e29-bd50e5b02226"/>
               <assigner>
                  <display value="HL7 Europe"/>
               </assigner>
            </identifier>
            <name>
               <family value="Ample"/>
               <given value="Ex"/>
               <prefix value="dr"/>
            </name>
            <address>
               <line value="Laboratoire Central Européenne"/>
               <line value="Boulevard du Jardin Botanique 32"/>
               <city value="Brussels"/>
               <postalCode value="1000"/>
               <country value="Belgium"/>
            </address>
         </Practitioner>
      </resource>
   </entry>
</Bundle>