{
  "resourceType": "Bundle",
  "id": "a24f2f19-3afb-4ae4-bd1a-d7738eb0e149",
  "meta": {
    "profile": [
      "http://hl7.eu/fhir/laboratory/StructureDefinition/Bundle-eu-lab"
    ]
  },
  "identifier": {
    "assigner": {
      "display": "HL7 Europe"
    },
    "system": "urn:oid:2.16.840.1.113883.2.51.999",
    "value": "003ae8ef-d450-4a18-8744-1a2912337221"
  },
  "entry": [
    {
      "fullUrl": "urn:uuid:21db70d9-6ed3-46de-9b5d-936db5140940",
      "resource": {
        "resourceType": "Composition",
        "id": "21db70d9-6ed3-46de-9b5d-936db5140940",
        "meta": {
          "profile": [
            "http://hl7.eu/fhir/laboratory/StructureDefinition/Composition-eu-lab"
          ]
        },
        "identifier": {
          "assigner": {
            "display": "HL7 Europe"
          },
          "system": "urn:oid:2.16.840.1.113883.2.51.999",
          "value": "c1db21db-2a16-4621-9c83-19d10ef889ab"
        },
        "author": [
          {
            "reference": "urn:uuid:59daa311-4b52-4abf-8d46-8eb5a51be0b3"
          }
        ],
        "category": [
          {
            "coding": [
              {
                "code": "26436-6",
                "system": "http://loinc.org",
                "display": "Laboratory studies (set)"
              }
            ]
          }
        ],
        "type": {
          "coding": [
            {
              "code": "11502-2",
              "system": "http://loinc.org",
              "display": "Laboratory report"
            }
          ],
          "text": "Laboratory Report"
        },
        "section": [
          {
            "code": {
              "coding": [
                {
                  "code": "26436-6",
                  "system": "http://loinc.org",
                  "display": "Laboratory studies (set)"
                }
              ],
              "text": "Laboratory studies"
            },
            "section": [
              {
                "code": {
                  "coding": [
                    {
                      "code": "$18719-5",
                      "system": "http://loinc.org",
                      "display": "Chemistry studies (set)"
                    }
                  ],
                  "text": "Chemistry"
                },
                "entry": [
                  {
                    "reference": "urn:uuid:9d96031f-c81a-4a6b-b7fc-a886314b1799"
                  },
                  {
                    "reference": "urn:uuid:f05470bb-c029-44d5-b243-d4aca698f735"
                  },
                  {
                    "reference": "urn:uuid:388d4376-ebfa-4559-aa91-dc8973b5f3d8"
                  },
                  {
                    "reference": "urn:uuid:860a757c-5466-4a24-8986-ed434b522027"
                  },
                  {
                    "reference": "urn:uuid:a9435dbd-36a4-4f25-bcfd-6913d7f54651"
                  },
                  {
                    "reference": "urn:uuid:add70fa3-1a07-4a05-be89-60f35c614119"
                  },
                  {
                    "reference": "urn:uuid:a7d42891-6056-4d6e-944c-b6c0fb129ba7"
                  },
                  {
                    "reference": "urn:uuid:f5361ee7-68dd-41c1-bcbc-8515e411e1de"
                  },
                  {
                    "reference": "urn:uuid:40134e88-f196-483b-88fd-8758138b445d"
                  },
                  {
                    "reference": "urn:uuid:5f9376e5-b59a-417b-99c1-ceb9a1b82e79"
                  },
                  {
                    "reference": "urn:uuid:80f351a3-d221-4f51-8c8f-b3dc7461ee5d"
                  },
                  {
                    "reference": "urn:uuid:157abdbe-41f2-4b96-ab93-a90f1968a31e"
                  },
                  {
                    "reference": "urn:uuid:409f6d80-4236-417c-aa55-aa54ea8a6826"
                  },
                  {
                    "reference": "urn:uuid:6a6cc2f9-76e4-441a-8b42-40bb612fbfcb"
                  },
                  {
                    "reference": "urn:uuid:0b3d9f77-603b-420d-a0f4-5d8bb937f377"
                  },
                  {
                    "reference": "urn:uuid:fc2b1e04-a5e2-454e-bef2-f09b22ea76a0"
                  },
                  {
                    "reference": "urn:uuid:4e856196-d07c-4a2f-be00-9f029b89cf28"
                  },
                  {
                    "reference": "urn:uuid:dca8706c-3344-40a5-96c1-e0583aa2ba05"
                  }
                ],
                "text": {
                  "status": "generated",
                  "div": "<div xmlns=\"http://www.w3.org/1999/xhtml\"><h3>Chemistry</h3><table class=\"hl7__eu__lab__report\"><thead><tr><th>Test</th><th>29-JUL-2016</th><th>Reference&#xA0;Range</th><th>Unit</th></tr></thead><tbody><tr><td>Glucose [Mass/volume] in Serum or Plasma</td><td>100.0</td><td>70 - 140</td><td>mg/dL</td></tr><tr><td>Urea nitrogen [Mass/volume] in Serum or Plasma</td><td>7.5</td><td>7 - 20</td><td>mg/dL</td></tr><tr><td>Creatinine [Mass/volume] in Serum or Plasma</td><td><strong>1.8 H</strong></td><td>0.9 - 1.3</td><td>mg/dL</td></tr><tr><td>Calcium [Mass/volume] in Serum or Plasma</td><td>10.0</td><td>8.5 - 10.5</td><td>mg/dL</td></tr><tr><td>Sodium [Moles/volume] in Serum or Plasma</td><td>136.3</td><td>135 - 145</td><td>mmol/L</td></tr><tr><td>Potassium [Moles/volume] in Serum or Plasma</td><td>5.1</td><td>3.5 - 5.3</td><td>mmol/L</td></tr><tr><td>Chloride [Moles/volume] in Serum or Plasma</td><td>103.8</td><td>98 - 107</td><td>mmol/L</td></tr><tr><td>Carbon dioxide, total [Moles/volume] in Serum or Plasma</td><td>25.6</td><td>22 - 33</td><td>mmol/L</td></tr><tr><td>Ketones [Presence] in Urine by Test strip</td><td>Urine ketone test = +</td><td></td><td></td></tr><tr><td>Hemoglobin A1c/Hemoglobin.total in Blood</td><td><strong>3.3 L</strong></td><td>4.3 - 6</td><td>%</td></tr><tr><td>Glucose [Mass/volume] in Blood</td><td>100.0</td><td>70 - 140</td><td>mg/dL</td></tr><tr><td>Urea nitrogen [Mass/volume] in Blood</td><td>7.5</td><td>7 - 20</td><td>mg/dL</td></tr><tr><td>Creatinine [Mass/volume] in Blood</td><td><strong>1.5 H</strong></td><td>0.9 - 1.3</td><td>mg/dL</td></tr><tr><td>Calcium [Mass/volume] in Blood</td><td>10.0</td><td>8.5 - 10.5</td><td>mg/dL</td></tr><tr><td>Sodium [Moles/volume] in Blood</td><td>136.3</td><td>135 - 145</td><td>mmol/L</td></tr><tr><td>Potassium [Moles/volume] in Blood</td><td>5.1</td><td>3.5 - 5.1</td><td>mmol/L</td></tr><tr><td>Chloride [Moles/volume] in Blood</td><td>103.8</td><td>98 - 108</td><td>mmol/L</td></tr><tr><td>Carbon dioxide, total [Moles/volume] in Blood</td><td>25.6</td><td>22 - 29</td><td>mmol/L</td></tr></tbody></table></div>"
                },
                "title": "Chemistry"
              },
              {
                "code": {
                  "coding": [
                    {
                      "code": "$18729-4",
                      "system": "http://loinc.org",
                      "display": "Urinalysis studies (set)"
                    }
                  ],
                  "text": "Urinalysis"
                },
                "entry": [
                  {
                    "reference": "urn:uuid:1a1209d0-ef42-47ae-a9cf-c44ca157d5cc"
                  },
                  {
                    "reference": "urn:uuid:7c30015b-0afe-4b58-9faa-fa5c9de804ad"
                  },
                  {
                    "reference": "urn:uuid:6ea04236-d0d3-4b53-84ad-685003d2835d"
                  },
                  {
                    "reference": "urn:uuid:b1b25d9c-fa17-4ffc-aee7-d7adf928d5f3"
                  },
                  {
                    "reference": "urn:uuid:8b4a2271-6ec6-438a-95bf-b881a288cfc8"
                  },
                  {
                    "reference": "urn:uuid:4a5e2914-291f-466a-813a-8866ea698d25"
                  },
                  {
                    "reference": "urn:uuid:1e17825f-b95a-451e-9e36-c4914752378f"
                  },
                  {
                    "reference": "urn:uuid:21d51cd4-d78d-411e-9cfc-89382b068678"
                  },
                  {
                    "reference": "urn:uuid:95d6ef95-fd4f-4f9f-add3-c28c21bcad16"
                  },
                  {
                    "reference": "urn:uuid:6cf09c93-7761-4aff-b46a-5493a7345af2"
                  },
                  {
                    "reference": "urn:uuid:ada15759-54c9-4ba8-b7e6-222469e55b37"
                  },
                  {
                    "reference": "urn:uuid:71cc5486-6a38-4280-9691-b1ce7c937ae4"
                  }
                ],
                "text": {
                  "status": "generated",
                  "div": "<div xmlns=\"http://www.w3.org/1999/xhtml\"><h3>Urinalysis</h3><table class=\"hl7__eu__lab__report\"><thead><tr><th>Test</th><th>29-JUL-2016</th><th>Reference&#xA0;Range</th><th>Unit</th></tr></thead><tbody><tr><td>Glucose [Mass/volume] in Urine by Test strip</td><td><strong>2.4 H</strong></td><td>0 - 0.8</td><td>mg/dL</td></tr><tr><td>Glucose [Presence] in Urine by Test strip</td><td>++</td><td></td><td></td></tr><tr><td>Bilirubin.total [Mass/volume] in Urine by Test strip</td><td>0.8</td><td>0 - 1.9</td><td>mg/dL</td></tr><tr><td>Bilirubin.total [Presence] in Urine by Test strip</td><td>Finding of bilirubin in urine</td><td></td><td></td></tr><tr><td>Ketones [Mass/volume] in Urine by Test strip</td><td><strong>9.2 H</strong></td><td>0 - 3</td><td>mg/dL</td></tr><tr><td>Specific gravity of Urine by Test strip</td><td><strong>1.0 L</strong></td><td>1.01 - 1.03</td><td>{nominal}</td></tr><tr><td>pH of Urine by Test strip</td><td>5.1</td><td>4.5 - 7.5</td><td>pH</td></tr><tr><td>Protein [Mass/volume] in Urine by Test strip</td><td><strong>302.3 H</strong></td><td>0 - 149</td><td>mg/dL</td></tr><tr><td>Protein [Presence] in Urine by Test strip</td><td>Urine protein test = ++</td><td></td><td></td></tr><tr><td>Nitrite [Presence] in Urine by Test strip</td><td>Urine nitrite negative</td><td></td><td></td></tr><tr><td>Hemoglobin [Presence] in Urine by Test strip</td><td>Urine blood test = negative</td><td></td><td></td></tr><tr><td>Leukocyte esterase [Presence] in Urine by Test strip</td><td>Urine leukocyte test negative</td><td></td><td></td></tr></tbody></table></div>"
                },
                "title": "Urinalysis"
              },
              {
                "code": {
                  "coding": [
                    {
                      "code": "$LP7846-1",
                      "system": "http://loinc.org",
                      "display": "Specimen information"
                    }
                  ],
                  "text": "Specimen information"
                },
                "entry": [
                  {
                    "reference": "urn:uuid:ad8ea0c4-a423-4bc3-b3ec-5fb7420c893c"
                  },
                  {
                    "reference": "urn:uuid:45e51aeb-dba4-4c1a-9fb8-c4f43d7e3fb8"
                  },
                  {
                    "reference": "urn:uuid:ab903829-82f0-4c0a-be3f-c8402b9ab32f"
                  },
                  {
                    "reference": "urn:uuid:c9e6e8e6-4152-447e-89c1-cac69d6b40af"
                  }
                ],
                "text": {
                  "status": "generated",
                  "div": "<div xmlns=\"http://www.w3.org/1999/xhtml\"><h3>Specimen information</h3><table class=\"hl7__eu__lab__report\"><thead><tr><th>Test</th><th>29-JUL-2016</th><th>Specimen</th><th></th></tr></thead><tbody><tr><td>Appearance of Urine</td><td>Cloudy urine</td><td>Urine</td><td></td></tr><tr><td>Odor of Urine</td><td>Urine smell ammoniacal</td><td>Urine</td><td></td></tr><tr><td>Clarity of Urine</td><td>Translucent</td><td>Urine</td><td></td></tr><tr><td>Color of Urine</td><td>Brown color</td><td>Urine</td><td></td></tr></tbody></table></div>"
                },
                "title": "Specimen information"
              }
            ],
            "title": "Laboratory Report"
          },
          {
            "text": {
              "status": "generated",
              "div": "<div xmlns=\"http://www.w3.org/1999/xhtml\"><h3>Annotation</h3><table class=\"hl7__eu__lab__report\"><tr><th>Conclusion and Recommendations based on this report and previous findings known to us</th></tr><tr><td>The patient shows mildly elevated creatinine, suggesting possible renal impairment. Urinalysis reveals proteinuria, glycosuria, and ketonuria, with low specific gravity and abnormal urine appearance, indicating possible renal dysfunction and metabolic derangement (e.g., diabetes or dehydration). However, HbA1c is low, arguing against chronic hyperglycemia. No evidence of urinary infection. Recommend further evaluation of renal function, metabolic status, and possible acute or chronic kidney disease.</td></tr></table></div>"
            },
            "code": {
              "coding": [
                {
                  "system": "http://loinc.org",
                  "code": "48767-8",
                  "display": "Annotation comment"
                }
              ]
            },
            "title": "Annotation comment"
          }
        ],
        "status": "final",
        "subject": {
          "reference": "urn:uuid:79e6805a-9b23-4765-ad1e-e76af428a9d2",
          "display": "Victor Lagarde"
        },
        "date": "2016-07-29T06:48:18Z",
        "title": "Laboratory Report",
        "confidentiality": "N"
      }
    },
    {
      "fullUrl": "urn:uuid:85fa0dc7-e374-4de1-9d1f-264ba62a5dd0",
      "resource": {
        "resourceType": "DiagnosticReport",
        "id": "85fa0dc7-e374-4de1-9d1f-264ba62a5dd0",
        "meta": {
          "profile": [
            "http://hl7.eu/fhir/laboratory/StructureDefinition/DiagnosticReport-eu-lab"
          ]
        },
        "identifier": [
          {
            "assigner": {
              "display": "HL7 Europe"
            },
            "system": "urn:oid:2.16.840.1.113883.2.51.999",
            "value": "e9885389-b913-42c3-b082-0ec55b4b4d1a"
          }
        ],
        "extension": [
          {
            "url": "http://hl7.org/fhir/5.0/StructureDefinition/extension-DiagnosticReport.composition",
            "valueReference": {
              "reference": "urn:uuid:c1db21db-2a16-4621-9c83-19d10ef889ab"
            }
          }
        ],
        "category": [
          {
            "coding": [
              {
                "code": "26436-6",
                "system": "http://loinc.org",
                "display": "Laboratory studies (set)"
              }
            ]
          }
        ],
        "specimen": [
          {
            "reference": "urn:uuid:1640b117-5d0f-4c7b-b771-296139f328b9"
          },
          {
            "reference": "urn:uuid:b16e5abc-9333-4bf0-b126-551a251bf573"
          },
          {
            "reference": "urn:uuid:7a662cd9-d555-4780-a187-52d31f626517"
          }
        ],
        "result": [
          {
            "reference": "urn:uuid:9d96031f-c81a-4a6b-b7fc-a886314b1799"
          },
          {
            "reference": "urn:uuid:f05470bb-c029-44d5-b243-d4aca698f735"
          },
          {
            "reference": "urn:uuid:388d4376-ebfa-4559-aa91-dc8973b5f3d8"
          },
          {
            "reference": "urn:uuid:860a757c-5466-4a24-8986-ed434b522027"
          },
          {
            "reference": "urn:uuid:a9435dbd-36a4-4f25-bcfd-6913d7f54651"
          },
          {
            "reference": "urn:uuid:add70fa3-1a07-4a05-be89-60f35c614119"
          },
          {
            "reference": "urn:uuid:a7d42891-6056-4d6e-944c-b6c0fb129ba7"
          },
          {
            "reference": "urn:uuid:f5361ee7-68dd-41c1-bcbc-8515e411e1de"
          },
          {
            "reference": "urn:uuid:ad8ea0c4-a423-4bc3-b3ec-5fb7420c893c"
          },
          {
            "reference": "urn:uuid:45e51aeb-dba4-4c1a-9fb8-c4f43d7e3fb8"
          },
          {
            "reference": "urn:uuid:ab903829-82f0-4c0a-be3f-c8402b9ab32f"
          },
          {
            "reference": "urn:uuid:c9e6e8e6-4152-447e-89c1-cac69d6b40af"
          },
          {
            "reference": "urn:uuid:1a1209d0-ef42-47ae-a9cf-c44ca157d5cc"
          },
          {
            "reference": "urn:uuid:7c30015b-0afe-4b58-9faa-fa5c9de804ad"
          },
          {
            "reference": "urn:uuid:6ea04236-d0d3-4b53-84ad-685003d2835d"
          },
          {
            "reference": "urn:uuid:b1b25d9c-fa17-4ffc-aee7-d7adf928d5f3"
          },
          {
            "reference": "urn:uuid:8b4a2271-6ec6-438a-95bf-b881a288cfc8"
          },
          {
            "reference": "urn:uuid:40134e88-f196-483b-88fd-8758138b445d"
          },
          {
            "reference": "urn:uuid:4a5e2914-291f-466a-813a-8866ea698d25"
          },
          {
            "reference": "urn:uuid:1e17825f-b95a-451e-9e36-c4914752378f"
          },
          {
            "reference": "urn:uuid:21d51cd4-d78d-411e-9cfc-89382b068678"
          },
          {
            "reference": "urn:uuid:95d6ef95-fd4f-4f9f-add3-c28c21bcad16"
          },
          {
            "reference": "urn:uuid:6cf09c93-7761-4aff-b46a-5493a7345af2"
          },
          {
            "reference": "urn:uuid:ada15759-54c9-4ba8-b7e6-222469e55b37"
          },
          {
            "reference": "urn:uuid:71cc5486-6a38-4280-9691-b1ce7c937ae4"
          },
          {
            "reference": "urn:uuid:5f9376e5-b59a-417b-99c1-ceb9a1b82e79"
          },
          {
            "reference": "urn:uuid:80f351a3-d221-4f51-8c8f-b3dc7461ee5d"
          },
          {
            "reference": "urn:uuid:157abdbe-41f2-4b96-ab93-a90f1968a31e"
          },
          {
            "reference": "urn:uuid:409f6d80-4236-417c-aa55-aa54ea8a6826"
          },
          {
            "reference": "urn:uuid:6a6cc2f9-76e4-441a-8b42-40bb612fbfcb"
          },
          {
            "reference": "urn:uuid:0b3d9f77-603b-420d-a0f4-5d8bb937f377"
          },
          {
            "reference": "urn:uuid:fc2b1e04-a5e2-454e-bef2-f09b22ea76a0"
          },
          {
            "reference": "urn:uuid:4e856196-d07c-4a2f-be00-9f029b89cf28"
          },
          {
            "reference": "urn:uuid:dca8706c-3344-40a5-96c1-e0583aa2ba05"
          }
        ],
        "status": "registered",
        "code": {
          "coding": [
            {
              "code": "11502-2",
              "system": "http://loinc.org",
              "display": "Laboratory report"
            }
          ]
        },
        "subject": {
          "reference": "urn:uuid:79e6805a-9b23-4765-ad1e-e76af428a9d2",
          "display": "Victor Lagarde"
        }
      }
    },
    {
      "fullUrl": "urn:uuid:79e6805a-9b23-4765-ad1e-e76af428a9d2",
      "resource": {
        "resourceType": "Patient",
        "id": "79e6805a-9b23-4765-ad1e-e76af428a9d2",
        "meta": {
          "security": [
            {
              "system": "http://terminology.hl7.org/CodeSystem/v3-ActReason",
              "code": "HTEST"
            },
            {
              "system": "http://terminology.hl7.org/CodeSystem/v3-ActReason",
              "code": "TRAIN"
            }
          ],
          "tag": [
            {
              "system": "https://synderai.net/fhir/CodeSystem/tags",
              "code": "synthetic",
              "display": "SYNDERAI Synthetic data"
            }
          ],
          "profile": [
            "http://hl7.eu/fhir/base/StructureDefinition/patient-eu-core"
          ]
        },
        "identifier": [
          {
            "type": {
              "coding": [
                {
                  "code": "PT",
                  "system": "http://terminology.hl7.org/CodeSystem/v2-0203"
                }
              ]
            },
            "system": "http://ec.europa.eu/identifier/eci",
            "value": "9925-001801-9"
          },
          {
            "type": {
              "coding": [
                {
                  "code": "MR",
                  "system": "http://terminology.hl7.org/CodeSystem/v2-0203"
                }
              ]
            },
            "system": "http://local.setting.eu/identifier",
            "value": "22c2dfd0-ac57-8833-2532-848f180896a4"
          }
        ],
        "name": [
          {
            "family": "Lagarde"
          },
          {
            "given": [
              "Victor"
            ]
          },
          {
            "text": "Victor Lagarde"
          }
        ],
        "address": [
          {
            "line": [
              "avenue Robert"
            ],
            "use": "home",
            "type": "physical",
            "postalCode": "80300",
            "city": "Albert",
            "country": "France"
          }
        ],
        "telecom": [
          {
            "system": "phone",
            "value": "0177941801"
          }
        ],
        "extension": [
          {
            "url": "http://hl7.org/fhir/StructureDefinition/patient-nationality",
            "valueCodeableConcept": {
              "coding": [
                {
                  "code": "FR",
                  "system": "http://hl7.org/fhir/ValueSet/country"
                }
              ]
            }
          }
        ],
        "text": {
          "status": "generated",
          "div": "<div xmlns=\"http://www.w3.org/1999/xhtml\"><table class=\"hl7__ips\"><tr><td>Victor Lagarde</td><td>male</td><td>31-Aug-1939</td></tr></table></div>"
        },
        "gender": "male",
        "birthDate": "1939-08-31"
      }
    },
    {
      "fullUrl": "urn:uuid:9ca5fab4-2140-45f6-8c1f-5cedb42c5a1d",
      "resource": {
        "resourceType": "ServiceRequest",
        "id": "9ca5fab4-2140-45f6-8c1f-5cedb42c5a1d",
        "meta": {
          "profile": [
            "http://hl7.eu/fhir/laboratory/StructureDefinition/ServiceRequest-eu-lab"
          ]
        },
        "identifier": [
          {
            "system": "http://example.org",
            "value": "89ec2df9-2b7c-4473-af23-8444f13649f1"
          }
        ],
        "specimen": [
          {
            "reference": "urn:uuid:1640b117-5d0f-4c7b-b771-296139f328b9"
          },
          {
            "reference": "urn:uuid:b16e5abc-9333-4bf0-b126-551a251bf573"
          },
          {
            "reference": "urn:uuid:7a662cd9-d555-4780-a187-52d31f626517"
          }
        ],
        "reasonCode": [
          {
            "coding": [
              {
                "code": "433144002",
                "system": "http://snomed.info/sct",
                "display": "Chronic kidney disease stage 3"
              }
            ]
          },
          {
            "coding": [
              {
                "code": "157141000119108",
                "system": "http://snomed.info/sct",
                "display": "Proteinuria due to type 2 diabetes mellitus"
              }
            ]
          },
          {
            "coding": [
              {
                "code": "431856006",
                "system": "http://snomed.info/sct",
                "display": "Chronic kidney disease stage 2"
              }
            ]
          },
          {
            "coding": [
              {
                "code": "90781000119102",
                "system": "http://snomed.info/sct",
                "display": "Microalbuminuria due to type 2 diabetes mellitus"
              }
            ]
          },
          {
            "coding": [
              {
                "code": "127013003",
                "system": "http://snomed.info/sct",
                "display": "Disorder of kidney due to diabetes mellitus"
              }
            ]
          },
          {
            "coding": [
              {
                "code": "431855005",
                "system": "http://snomed.info/sct",
                "display": "Chronic kidney disease stage 1"
              }
            ]
          },
          {
            "coding": [
              {
                "code": "55822004",
                "system": "http://snomed.info/sct",
                "display": "Hyperlipidemia"
              }
            ]
          },
          {
            "coding": [
              {
                "code": "59621000",
                "system": "http://snomed.info/sct",
                "display": "Essential hypertension"
              }
            ]
          },
          {
            "coding": [
              {
                "code": "237602007",
                "system": "http://snomed.info/sct",
                "display": "Metabolic syndrome X"
              }
            ]
          },
          {
            "coding": [
              {
                "code": "414545008",
                "system": "http://snomed.info/sct",
                "display": "Ischemic heart disease"
              }
            ]
          },
          {
            "coding": [
              {
                "code": "40055000",
                "system": "http://snomed.info/sct",
                "display": "Chronic sinusitis"
              }
            ]
          },
          {
            "coding": [
              {
                "code": "15777000",
                "system": "http://snomed.info/sct",
                "display": "Prediabetes"
              }
            ]
          },
          {
            "coding": [
              {
                "code": "271737000",
                "system": "http://snomed.info/sct",
                "display": "Anemia"
              }
            ]
          }
        ],
        "status": "active",
        "intent": "order",
        "code": {
          "coding": [
            {
              "code": "108252007",
              "system": "http://snomed.info/sct",
              "display": "Laboratory procedure"
            }
          ]
        },
        "subject": {
          "reference": "urn:uuid:79e6805a-9b23-4765-ad1e-e76af428a9d2",
          "display": "Victor Lagarde"
        },
        "requester": {
          "reference": "urn:uuid:0d3c46c4-de7b-41e7-ad25-6142b063124b"
        }
      }
    },
    {
      "fullUrl": "urn:uuid:0d3c46c4-de7b-41e7-ad25-6142b063124b",
      "resource": {
        "resourceType": "PractitionerRole",
        "id": "0d3c46c4-de7b-41e7-ad25-6142b063124b",
        "meta": {
          "profile": [
            "http://hl7.eu/fhir/base/StructureDefinition/practitionerRole-eu"
          ]
        },
        "text": {
          "status": "generated",
          "div": "<div xmlns=\"http://www.w3.org/1999/xhtml\">Provider Role Id: 0d3c46c4-de7b-41e7-ad25-6142b063124b</div>"
        },
        "organization": {
          "reference": "urn:uuid:5d5dd2e5-6719-4cc7-8339-fa70d7f1002c"
        }
      }
    },
    {
      "fullUrl": "urn:uuid:5d5dd2e5-6719-4cc7-8339-fa70d7f1002c",
      "resource": {
        "resourceType": "Organization",
        "id": "5d5dd2e5-6719-4cc7-8339-fa70d7f1002c",
        "meta": {
          "profile": [
            "http://hl7.eu/fhir/base/StructureDefinition/organization-eu"
          ]
        },
        "identifier": [
          {
            "assigner": {
              "display": "HL7 Europe"
            },
            "system": "urn:oid:2.16.840.1.113883.2.51.999",
            "value": "1a430e79-40da-4a56-8b7f-9b78178c8cbc"
          }
        ],
        "address": [
          {
            "city": "Auxerre",
            "postalCode": "89000",
            "country": "France"
          }
        ],
        "text": {
          "status": "generated",
          "div": "<div xmlns=\"http://www.w3.org/1999/xhtml\">Provider Organization: Thiriot Didier (Cardiologie)</div>"
        },
        "name": "Thiriot Didier (Cardiologie)"
      }
    },
    {
      "fullUrl": "urn:uuid:1640b117-5d0f-4c7b-b771-296139f328b9",
      "resource": {
        "resourceType": "Specimen",
        "id": "1640b117-5d0f-4c7b-b771-296139f328b9",
        "meta": {
          "profile": [
            "http://hl7.eu/fhir/laboratory/StructureDefinition/Specimen-eu-lab"
          ]
        },
        "collection": {
          "collectedDateTime": "2016-07-29"
        },
        "text": {
          "status": "generated",
          "div": "<div xmlns=\"http://www.w3.org/1999/xhtml\"><table class=\"hl7__eu__lab__report\"><tr><th>Specimen</th><th>Collection Date</th></tr><tr><td>Acellular blood (serum or plasma) specimen</td><td><span class=\"nb\">29-Jul-2016</span></td></tr></table></div>"
        },
        "type": {
          "coding": [
            {
              "code": "122592007",
              "system": "http://snomed.info/sct",
              "display": "Acellular blood (serum or plasma) specimen"
            }
          ]
        }
      }
    },
    {
      "fullUrl": "urn:uuid:b16e5abc-9333-4bf0-b126-551a251bf573",
      "resource": {
        "resourceType": "Specimen",
        "id": "b16e5abc-9333-4bf0-b126-551a251bf573",
        "meta": {
          "profile": [
            "http://hl7.eu/fhir/laboratory/StructureDefinition/Specimen-eu-lab"
          ]
        },
        "collection": {
          "collectedDateTime": "2016-07-29"
        },
        "text": {
          "status": "generated",
          "div": "<div xmlns=\"http://www.w3.org/1999/xhtml\"><table class=\"hl7__eu__lab__report\"><tr><th>Specimen</th><th>Collection Date</th></tr><tr><td>Urine specimen</td><td><span class=\"nb\">29-Jul-2016</span></td></tr></table></div>"
        },
        "type": {
          "coding": [
            {
              "code": "122575003",
              "system": "http://snomed.info/sct",
              "display": "Urine specimen"
            }
          ]
        }
      }
    },
    {
      "fullUrl": "urn:uuid:7a662cd9-d555-4780-a187-52d31f626517",
      "resource": {
        "resourceType": "Specimen",
        "id": "7a662cd9-d555-4780-a187-52d31f626517",
        "meta": {
          "profile": [
            "http://hl7.eu/fhir/laboratory/StructureDefinition/Specimen-eu-lab"
          ]
        },
        "collection": {
          "collectedDateTime": "2016-07-29"
        },
        "text": {
          "status": "generated",
          "div": "<div xmlns=\"http://www.w3.org/1999/xhtml\"><table class=\"hl7__eu__lab__report\"><tr><th>Specimen</th><th>Collection Date</th></tr><tr><td>Whole blood specimen (specimen)</td><td><span class=\"nb\">29-Jul-2016</span></td></tr></table></div>"
        },
        "type": {
          "coding": [
            {
              "code": "258580003",
              "system": "http://snomed.info/sct",
              "display": "Whole blood specimen (specimen)"
            }
          ]
        }
      }
    },
    {
      "fullUrl": "urn:uuid:9d96031f-c81a-4a6b-b7fc-a886314b1799",
      "resource": {
        "resourceType": "Observation",
        "id": "9d96031f-c81a-4a6b-b7fc-a886314b1799",
        "meta": {
          "profile": [
            "http://hl7.eu/fhir/laboratory/StructureDefinition/Observation-resultslab-eu-lab"
          ]
        },
        "performer": [
          {
            "display": "The Central European Lab"
          }
        ],
        "category": [
          {
            "coding": [
              {
                "system": "http://terminology.hl7.org/CodeSystem/observation-category",
                "code": "laboratory"
              }
            ]
          }
        ],
        "code": {
          "coding": [
            {
              "code": "2345-7",
              "system": "http://loinc.org",
              "display": "Glucose [Mass/volume] in Serum or Plasma"
            }
          ],
          "text": "Glucose [Mass/volume] in Serum or Plasma"
        },
        "valueQuantity": {
          "system": "http://unitsofmeasure.org",
          "value": 100,
          "unit": "mg/dL",
          "code": "mg/dL"
        },
        "referenceRange": [
          {
            "low": {
              "value": 70,
              "code": "mg/dL",
              "system": "http://unitsofmeasure.org"
            }
          },
          {
            "high": {
              "value": 140,
              "code": "mg/dL",
              "system": "http://unitsofmeasure.org"
            }
          }
        ],
        "text": {
          "status": "generated",
          "div": "<div xmlns=\"http://www.w3.org/1999/xhtml\"><table class=\"hl7__eu__lab__report\"><tr><th>Test</th><th>29-Jul-2016</th><th>Reference&#xA0;Range</th><th>Unit</th></tr><tr><td>Glucose [Mass/volume] in Serum or Plasma</td><td>100.0</td><td>70 - 140</td><td></td><td>mg/dL</td></tr></table></div>"
        },
        "status": "final",
        "subject": {
          "reference": "urn:uuid:79e6805a-9b23-4765-ad1e-e76af428a9d2",
          "display": "Victor Lagarde"
        },
        "effectiveDateTime": "2016-07-29T04:48:18Z",
        "specimen": {
          "reference": "urn:uuid:1640b117-5d0f-4c7b-b771-296139f328b9"
        }
      }
    },
    {
      "fullUrl": "urn:uuid:f05470bb-c029-44d5-b243-d4aca698f735",
      "resource": {
        "resourceType": "Observation",
        "id": "f05470bb-c029-44d5-b243-d4aca698f735",
        "meta": {
          "profile": [
            "http://hl7.eu/fhir/laboratory/StructureDefinition/Observation-resultslab-eu-lab"
          ]
        },
        "performer": [
          {
            "display": "The Central European Lab"
          }
        ],
        "category": [
          {
            "coding": [
              {
                "system": "http://terminology.hl7.org/CodeSystem/observation-category",
                "code": "laboratory"
              }
            ]
          }
        ],
        "code": {
          "coding": [
            {
              "code": "3094-0",
              "system": "http://loinc.org",
              "display": "Urea nitrogen [Mass/volume] in Serum or Plasma"
            }
          ],
          "text": "Urea nitrogen [Mass/volume] in Serum or Plasma"
        },
        "valueQuantity": {
          "system": "http://unitsofmeasure.org",
          "value": 7.5,
          "unit": "mg/dL",
          "code": "mg/dL"
        },
        "referenceRange": [
          {
            "low": {
              "value": 7,
              "code": "mg/dL",
              "system": "http://unitsofmeasure.org"
            }
          },
          {
            "high": {
              "value": 20,
              "code": "mg/dL",
              "system": "http://unitsofmeasure.org"
            }
          }
        ],
        "text": {
          "status": "generated",
          "div": "<div xmlns=\"http://www.w3.org/1999/xhtml\"><table class=\"hl7__eu__lab__report\"><tr><th>Test</th><th>29-Jul-2016</th><th>Reference&#xA0;Range</th><th>Unit</th></tr><tr><td>Urea nitrogen [Mass/volume] in Serum or Plasma</td><td>7.5</td><td>7 - 20</td><td></td><td>mg/dL</td></tr></table></div>"
        },
        "status": "final",
        "subject": {
          "reference": "urn:uuid:79e6805a-9b23-4765-ad1e-e76af428a9d2",
          "display": "Victor Lagarde"
        },
        "effectiveDateTime": "2016-07-29T04:48:18Z",
        "specimen": {
          "reference": "urn:uuid:1640b117-5d0f-4c7b-b771-296139f328b9"
        }
      }
    },
    {
      "fullUrl": "urn:uuid:388d4376-ebfa-4559-aa91-dc8973b5f3d8",
      "resource": {
        "resourceType": "Observation",
        "id": "388d4376-ebfa-4559-aa91-dc8973b5f3d8",
        "meta": {
          "profile": [
            "http://hl7.eu/fhir/laboratory/StructureDefinition/Observation-resultslab-eu-lab"
          ]
        },
        "performer": [
          {
            "display": "The Central European Lab"
          }
        ],
        "category": [
          {
            "coding": [
              {
                "system": "http://terminology.hl7.org/CodeSystem/observation-category",
                "code": "laboratory"
              }
            ]
          }
        ],
        "code": {
          "coding": [
            {
              "code": "2160-0",
              "system": "http://loinc.org",
              "display": "Creatinine [Mass/volume] in Serum or Plasma"
            }
          ],
          "text": "Creatinine [Mass/volume] in Serum or Plasma"
        },
        "valueQuantity": {
          "system": "http://unitsofmeasure.org",
          "value": 1.8,
          "unit": "mg/dL",
          "code": "mg/dL"
        },
        "referenceRange": [
          {
            "low": {
              "value": 0.9,
              "code": "mg/dL",
              "system": "http://unitsofmeasure.org"
            }
          },
          {
            "high": {
              "value": 1.3,
              "code": "mg/dL",
              "system": "http://unitsofmeasure.org"
            }
          }
        ],
        "interpretation": [
          {
            "coding": [
              {
                "code": "H",
                "system": "http://terminology.hl7.org/CodeSystem/v3-ObservationInterpretation",
                "display": "High"
              }
            ]
          }
        ],
        "text": {
          "status": "generated",
          "div": "<div xmlns=\"http://www.w3.org/1999/xhtml\"><table class=\"hl7__eu__lab__report\"><tr><th>Test</th><th>29-Jul-2016</th><th>Reference&#xA0;Range</th><th>Unit</th></tr><tr><td>Creatinine [Mass/volume] in Serum or Plasma</td><td>1.8</td><td>0.9 - 1.3</td><td>H</td><td>mg/dL</td></tr></table></div>"
        },
        "status": "final",
        "subject": {
          "reference": "urn:uuid:79e6805a-9b23-4765-ad1e-e76af428a9d2",
          "display": "Victor Lagarde"
        },
        "effectiveDateTime": "2016-07-29T04:48:18Z",
        "specimen": {
          "reference": "urn:uuid:1640b117-5d0f-4c7b-b771-296139f328b9"
        }
      }
    },
    {
      "fullUrl": "urn:uuid:860a757c-5466-4a24-8986-ed434b522027",
      "resource": {
        "resourceType": "Observation",
        "id": "860a757c-5466-4a24-8986-ed434b522027",
        "meta": {
          "profile": [
            "http://hl7.eu/fhir/laboratory/StructureDefinition/Observation-resultslab-eu-lab"
          ]
        },
        "performer": [
          {
            "display": "The Central European Lab"
          }
        ],
        "category": [
          {
            "coding": [
              {
                "system": "http://terminology.hl7.org/CodeSystem/observation-category",
                "code": "laboratory"
              }
            ]
          }
        ],
        "code": {
          "coding": [
            {
              "code": "17861-6",
              "system": "http://loinc.org",
              "display": "Calcium [Mass/volume] in Serum or Plasma"
            }
          ],
          "text": "Calcium [Mass/volume] in Serum or Plasma"
        },
        "valueQuantity": {
          "system": "http://unitsofmeasure.org",
          "value": 10,
          "unit": "mg/dL",
          "code": "mg/dL"
        },
        "referenceRange": [
          {
            "low": {
              "value": 8.5,
              "code": "mg/dL",
              "system": "http://unitsofmeasure.org"
            }
          },
          {
            "high": {
              "value": 10.5,
              "code": "mg/dL",
              "system": "http://unitsofmeasure.org"
            }
          }
        ],
        "text": {
          "status": "generated",
          "div": "<div xmlns=\"http://www.w3.org/1999/xhtml\"><table class=\"hl7__eu__lab__report\"><tr><th>Test</th><th>29-Jul-2016</th><th>Reference&#xA0;Range</th><th>Unit</th></tr><tr><td>Calcium [Mass/volume] in Serum or Plasma</td><td>10.0</td><td>8.5 - 10.5</td><td></td><td>mg/dL</td></tr></table></div>"
        },
        "status": "final",
        "subject": {
          "reference": "urn:uuid:79e6805a-9b23-4765-ad1e-e76af428a9d2",
          "display": "Victor Lagarde"
        },
        "effectiveDateTime": "2016-07-29T04:48:18Z",
        "specimen": {
          "reference": "urn:uuid:1640b117-5d0f-4c7b-b771-296139f328b9"
        }
      }
    },
    {
      "fullUrl": "urn:uuid:a9435dbd-36a4-4f25-bcfd-6913d7f54651",
      "resource": {
        "resourceType": "Observation",
        "id": "a9435dbd-36a4-4f25-bcfd-6913d7f54651",
        "meta": {
          "profile": [
            "http://hl7.eu/fhir/laboratory/StructureDefinition/Observation-resultslab-eu-lab"
          ]
        },
        "performer": [
          {
            "display": "The Central European Lab"
          }
        ],
        "category": [
          {
            "coding": [
              {
                "system": "http://terminology.hl7.org/CodeSystem/observation-category",
                "code": "laboratory"
              }
            ]
          }
        ],
        "code": {
          "coding": [
            {
              "code": "2951-2",
              "system": "http://loinc.org",
              "display": "Sodium [Moles/volume] in Serum or Plasma"
            }
          ],
          "text": "Sodium [Moles/volume] in Serum or Plasma"
        },
        "valueQuantity": {
          "system": "http://unitsofmeasure.org",
          "value": 136.3,
          "unit": "mmol/L",
          "code": "mmol/L"
        },
        "referenceRange": [
          {
            "low": {
              "value": 135,
              "code": "mmol/L",
              "system": "http://unitsofmeasure.org"
            }
          },
          {
            "high": {
              "value": 145,
              "code": "mmol/L",
              "system": "http://unitsofmeasure.org"
            }
          }
        ],
        "text": {
          "status": "generated",
          "div": "<div xmlns=\"http://www.w3.org/1999/xhtml\"><table class=\"hl7__eu__lab__report\"><tr><th>Test</th><th>29-Jul-2016</th><th>Reference&#xA0;Range</th><th>Unit</th></tr><tr><td>Sodium [Moles/volume] in Serum or Plasma</td><td>136.3</td><td>135 - 145</td><td></td><td>mmol/L</td></tr></table></div>"
        },
        "status": "final",
        "subject": {
          "reference": "urn:uuid:79e6805a-9b23-4765-ad1e-e76af428a9d2",
          "display": "Victor Lagarde"
        },
        "effectiveDateTime": "2016-07-29T04:48:18Z",
        "specimen": {
          "reference": "urn:uuid:1640b117-5d0f-4c7b-b771-296139f328b9"
        }
      }
    },
    {
      "fullUrl": "urn:uuid:add70fa3-1a07-4a05-be89-60f35c614119",
      "resource": {
        "resourceType": "Observation",
        "id": "add70fa3-1a07-4a05-be89-60f35c614119",
        "meta": {
          "profile": [
            "http://hl7.eu/fhir/laboratory/StructureDefinition/Observation-resultslab-eu-lab"
          ]
        },
        "performer": [
          {
            "display": "The Central European Lab"
          }
        ],
        "category": [
          {
            "coding": [
              {
                "system": "http://terminology.hl7.org/CodeSystem/observation-category",
                "code": "laboratory"
              }
            ]
          }
        ],
        "code": {
          "coding": [
            {
              "code": "2823-3",
              "system": "http://loinc.org",
              "display": "Potassium [Moles/volume] in Serum or Plasma"
            }
          ],
          "text": "Potassium [Moles/volume] in Serum or Plasma"
        },
        "valueQuantity": {
          "system": "http://unitsofmeasure.org",
          "value": 5.1,
          "unit": "mmol/L",
          "code": "mmol/L"
        },
        "referenceRange": [
          {
            "low": {
              "value": 3.5,
              "code": "mmol/L",
              "system": "http://unitsofmeasure.org"
            }
          },
          {
            "high": {
              "value": 5.3,
              "code": "mmol/L",
              "system": "http://unitsofmeasure.org"
            }
          }
        ],
        "text": {
          "status": "generated",
          "div": "<div xmlns=\"http://www.w3.org/1999/xhtml\"><table class=\"hl7__eu__lab__report\"><tr><th>Test</th><th>29-Jul-2016</th><th>Reference&#xA0;Range</th><th>Unit</th></tr><tr><td>Potassium [Moles/volume] in Serum or Plasma</td><td>5.1</td><td>3.5 - 5.3</td><td></td><td>mmol/L</td></tr></table></div>"
        },
        "status": "final",
        "subject": {
          "reference": "urn:uuid:79e6805a-9b23-4765-ad1e-e76af428a9d2",
          "display": "Victor Lagarde"
        },
        "effectiveDateTime": "2016-07-29T04:48:18Z",
        "specimen": {
          "reference": "urn:uuid:1640b117-5d0f-4c7b-b771-296139f328b9"
        }
      }
    },
    {
      "fullUrl": "urn:uuid:a7d42891-6056-4d6e-944c-b6c0fb129ba7",
      "resource": {
        "resourceType": "Observation",
        "id": "a7d42891-6056-4d6e-944c-b6c0fb129ba7",
        "meta": {
          "profile": [
            "http://hl7.eu/fhir/laboratory/StructureDefinition/Observation-resultslab-eu-lab"
          ]
        },
        "performer": [
          {
            "display": "The Central European Lab"
          }
        ],
        "category": [
          {
            "coding": [
              {
                "system": "http://terminology.hl7.org/CodeSystem/observation-category",
                "code": "laboratory"
              }
            ]
          }
        ],
        "code": {
          "coding": [
            {
              "code": "2075-0",
              "system": "http://loinc.org",
              "display": "Chloride [Moles/volume] in Serum or Plasma"
            }
          ],
          "text": "Chloride [Moles/volume] in Serum or Plasma"
        },
        "valueQuantity": {
          "system": "http://unitsofmeasure.org",
          "value": 103.8,
          "unit": "mmol/L",
          "code": "mmol/L"
        },
        "referenceRange": [
          {
            "low": {
              "value": 98,
              "code": "mmol/L",
              "system": "http://unitsofmeasure.org"
            }
          },
          {
            "high": {
              "value": 107,
              "code": "mmol/L",
              "system": "http://unitsofmeasure.org"
            }
          }
        ],
        "text": {
          "status": "generated",
          "div": "<div xmlns=\"http://www.w3.org/1999/xhtml\"><table class=\"hl7__eu__lab__report\"><tr><th>Test</th><th>29-Jul-2016</th><th>Reference&#xA0;Range</th><th>Unit</th></tr><tr><td>Chloride [Moles/volume] in Serum or Plasma</td><td>103.8</td><td>98 - 107</td><td></td><td>mmol/L</td></tr></table></div>"
        },
        "status": "final",
        "subject": {
          "reference": "urn:uuid:79e6805a-9b23-4765-ad1e-e76af428a9d2",
          "display": "Victor Lagarde"
        },
        "effectiveDateTime": "2016-07-29T04:48:18Z",
        "specimen": {
          "reference": "urn:uuid:1640b117-5d0f-4c7b-b771-296139f328b9"
        }
      }
    },
    {
      "fullUrl": "urn:uuid:f5361ee7-68dd-41c1-bcbc-8515e411e1de",
      "resource": {
        "resourceType": "Observation",
        "id": "f5361ee7-68dd-41c1-bcbc-8515e411e1de",
        "meta": {
          "profile": [
            "http://hl7.eu/fhir/laboratory/StructureDefinition/Observation-resultslab-eu-lab"
          ]
        },
        "performer": [
          {
            "display": "The Central European Lab"
          }
        ],
        "category": [
          {
            "coding": [
              {
                "system": "http://terminology.hl7.org/CodeSystem/observation-category",
                "code": "laboratory"
              }
            ]
          }
        ],
        "code": {
          "coding": [
            {
              "code": "2028-9",
              "system": "http://loinc.org",
              "display": "Carbon dioxide, total [Moles/volume] in Serum or Plasma"
            }
          ],
          "text": "Carbon dioxide, total [Moles/volume] in Serum or Plasma"
        },
        "valueQuantity": {
          "system": "http://unitsofmeasure.org",
          "value": 25.6,
          "unit": "mmol/L",
          "code": "mmol/L"
        },
        "referenceRange": [
          {
            "low": {
              "value": 22,
              "code": "mmol/L",
              "system": "http://unitsofmeasure.org"
            }
          },
          {
            "high": {
              "value": 33,
              "code": "mmol/L",
              "system": "http://unitsofmeasure.org"
            }
          }
        ],
        "text": {
          "status": "generated",
          "div": "<div xmlns=\"http://www.w3.org/1999/xhtml\"><table class=\"hl7__eu__lab__report\"><tr><th>Test</th><th>29-Jul-2016</th><th>Reference&#xA0;Range</th><th>Unit</th></tr><tr><td>Carbon dioxide, total [Moles/volume] in Serum or Plasma</td><td>25.6</td><td>22 - 33</td><td></td><td>mmol/L</td></tr></table></div>"
        },
        "status": "final",
        "subject": {
          "reference": "urn:uuid:79e6805a-9b23-4765-ad1e-e76af428a9d2",
          "display": "Victor Lagarde"
        },
        "effectiveDateTime": "2016-07-29T04:48:18Z",
        "specimen": {
          "reference": "urn:uuid:1640b117-5d0f-4c7b-b771-296139f328b9"
        }
      }
    },
    {
      "fullUrl": "urn:uuid:ad8ea0c4-a423-4bc3-b3ec-5fb7420c893c",
      "resource": {
        "resourceType": "Observation",
        "id": "ad8ea0c4-a423-4bc3-b3ec-5fb7420c893c",
        "meta": {
          "profile": [
            "http://hl7.eu/fhir/laboratory/StructureDefinition/Observation-resultslab-eu-lab"
          ]
        },
        "performer": [
          {
            "display": "The Central European Lab"
          }
        ],
        "category": [
          {
            "coding": [
              {
                "system": "http://terminology.hl7.org/CodeSystem/observation-category",
                "code": "laboratory"
              }
            ]
          }
        ],
        "code": {
          "coding": [
            {
              "code": "5767-9",
              "system": "http://loinc.org",
              "display": "Appearance of Urine"
            }
          ],
          "text": "Appearance of Urine"
        },
        "text": {
          "status": "generated",
          "div": "<div xmlns=\"http://www.w3.org/1999/xhtml\"><table class=\"hl7__eu__lab__report\"><tr><th>Test</th><th>29-Jul-2016</th><th>Reference&#xA0;Range</th><th>Unit</th></tr><tr><td>Appearance of Urine</td></tr></table></div>"
        },
        "status": "final",
        "subject": {
          "reference": "urn:uuid:79e6805a-9b23-4765-ad1e-e76af428a9d2",
          "display": "Victor Lagarde"
        },
        "effectiveDateTime": "2016-07-29T04:48:18Z",
        "specimen": {
          "reference": "urn:uuid:b16e5abc-9333-4bf0-b126-551a251bf573"
        }
      }
    },
    {
      "fullUrl": "urn:uuid:45e51aeb-dba4-4c1a-9fb8-c4f43d7e3fb8",
      "resource": {
        "resourceType": "Observation",
        "id": "45e51aeb-dba4-4c1a-9fb8-c4f43d7e3fb8",
        "meta": {
          "profile": [
            "http://hl7.eu/fhir/laboratory/StructureDefinition/Observation-resultslab-eu-lab"
          ]
        },
        "performer": [
          {
            "display": "The Central European Lab"
          }
        ],
        "category": [
          {
            "coding": [
              {
                "system": "http://terminology.hl7.org/CodeSystem/observation-category",
                "code": "laboratory"
              }
            ]
          }
        ],
        "code": {
          "coding": [
            {
              "code": "34533-0",
              "system": "http://loinc.org",
              "display": "Odor of Urine"
            }
          ],
          "text": "Odor of Urine"
        },
        "text": {
          "status": "generated",
          "div": "<div xmlns=\"http://www.w3.org/1999/xhtml\"><table class=\"hl7__eu__lab__report\"><tr><th>Test</th><th>29-Jul-2016</th><th>Reference&#xA0;Range</th><th>Unit</th></tr><tr><td>Odor of Urine</td></tr></table></div>"
        },
        "status": "final",
        "subject": {
          "reference": "urn:uuid:79e6805a-9b23-4765-ad1e-e76af428a9d2",
          "display": "Victor Lagarde"
        },
        "effectiveDateTime": "2016-07-29T04:48:18Z",
        "specimen": {
          "reference": "urn:uuid:b16e5abc-9333-4bf0-b126-551a251bf573"
        }
      }
    },
    {
      "fullUrl": "urn:uuid:ab903829-82f0-4c0a-be3f-c8402b9ab32f",
      "resource": {
        "resourceType": "Observation",
        "id": "ab903829-82f0-4c0a-be3f-c8402b9ab32f",
        "meta": {
          "profile": [
            "http://hl7.eu/fhir/laboratory/StructureDefinition/Observation-resultslab-eu-lab"
          ]
        },
        "performer": [
          {
            "display": "The Central European Lab"
          }
        ],
        "category": [
          {
            "coding": [
              {
                "system": "http://terminology.hl7.org/CodeSystem/observation-category",
                "code": "laboratory"
              }
            ]
          }
        ],
        "code": {
          "coding": [
            {
              "code": "32167-9",
              "system": "http://loinc.org",
              "display": "Clarity of Urine"
            }
          ],
          "text": "Clarity of Urine"
        },
        "text": {
          "status": "generated",
          "div": "<div xmlns=\"http://www.w3.org/1999/xhtml\"><table class=\"hl7__eu__lab__report\"><tr><th>Test</th><th>29-Jul-2016</th><th>Reference&#xA0;Range</th><th>Unit</th></tr><tr><td>Clarity of Urine</td></tr></table></div>"
        },
        "status": "final",
        "subject": {
          "reference": "urn:uuid:79e6805a-9b23-4765-ad1e-e76af428a9d2",
          "display": "Victor Lagarde"
        },
        "effectiveDateTime": "2016-07-29T04:48:18Z",
        "specimen": {
          "reference": "urn:uuid:b16e5abc-9333-4bf0-b126-551a251bf573"
        }
      }
    },
    {
      "fullUrl": "urn:uuid:c9e6e8e6-4152-447e-89c1-cac69d6b40af",
      "resource": {
        "resourceType": "Observation",
        "id": "c9e6e8e6-4152-447e-89c1-cac69d6b40af",
        "meta": {
          "profile": [
            "http://hl7.eu/fhir/laboratory/StructureDefinition/Observation-resultslab-eu-lab"
          ]
        },
        "performer": [
          {
            "display": "The Central European Lab"
          }
        ],
        "category": [
          {
            "coding": [
              {
                "system": "http://terminology.hl7.org/CodeSystem/observation-category",
                "code": "laboratory"
              }
            ]
          }
        ],
        "code": {
          "coding": [
            {
              "code": "5778-6",
              "system": "http://loinc.org",
              "display": "Color of Urine"
            }
          ],
          "text": "Color of Urine"
        },
        "text": {
          "status": "generated",
          "div": "<div xmlns=\"http://www.w3.org/1999/xhtml\"><table class=\"hl7__eu__lab__report\"><tr><th>Test</th><th>29-Jul-2016</th><th>Reference&#xA0;Range</th><th>Unit</th></tr><tr><td>Color of Urine</td></tr></table></div>"
        },
        "status": "final",
        "subject": {
          "reference": "urn:uuid:79e6805a-9b23-4765-ad1e-e76af428a9d2",
          "display": "Victor Lagarde"
        },
        "effectiveDateTime": "2016-07-29T04:48:18Z",
        "specimen": {
          "reference": "urn:uuid:b16e5abc-9333-4bf0-b126-551a251bf573"
        }
      }
    },
    {
      "fullUrl": "urn:uuid:1a1209d0-ef42-47ae-a9cf-c44ca157d5cc",
      "resource": {
        "resourceType": "Observation",
        "id": "1a1209d0-ef42-47ae-a9cf-c44ca157d5cc",
        "meta": {
          "profile": [
            "http://hl7.eu/fhir/laboratory/StructureDefinition/Observation-resultslab-eu-lab"
          ]
        },
        "performer": [
          {
            "display": "The Central European Lab"
          }
        ],
        "category": [
          {
            "coding": [
              {
                "system": "http://terminology.hl7.org/CodeSystem/observation-category",
                "code": "laboratory"
              }
            ]
          }
        ],
        "code": {
          "coding": [
            {
              "code": "5792-7",
              "system": "http://loinc.org",
              "display": "Glucose [Mass/volume] in Urine by Test strip"
            }
          ],
          "text": "Glucose [Mass/volume] in Urine by Test strip"
        },
        "valueQuantity": {
          "system": "http://unitsofmeasure.org",
          "value": 2.4,
          "unit": "mg/dL",
          "code": "mg/dL"
        },
        "referenceRange": [
          {
            "low": {
              "value": 0,
              "code": "mg/dL",
              "system": "http://unitsofmeasure.org"
            }
          },
          {
            "high": {
              "value": 0.8,
              "code": "mg/dL",
              "system": "http://unitsofmeasure.org"
            }
          }
        ],
        "interpretation": [
          {
            "coding": [
              {
                "code": "H",
                "system": "http://terminology.hl7.org/CodeSystem/v3-ObservationInterpretation",
                "display": "High"
              }
            ]
          }
        ],
        "text": {
          "status": "generated",
          "div": "<div xmlns=\"http://www.w3.org/1999/xhtml\"><table class=\"hl7__eu__lab__report\"><tr><th>Test</th><th>29-Jul-2016</th><th>Reference&#xA0;Range</th><th>Unit</th></tr><tr><td>Glucose [Mass/volume] in Urine by Test strip</td><td>2.4</td><td>0 - 0.8</td><td>H</td><td>mg/dL</td></tr></table></div>"
        },
        "status": "final",
        "subject": {
          "reference": "urn:uuid:79e6805a-9b23-4765-ad1e-e76af428a9d2",
          "display": "Victor Lagarde"
        },
        "effectiveDateTime": "2016-07-29T04:48:18Z",
        "specimen": {
          "reference": "urn:uuid:b16e5abc-9333-4bf0-b126-551a251bf573"
        }
      }
    },
    {
      "fullUrl": "urn:uuid:7c30015b-0afe-4b58-9faa-fa5c9de804ad",
      "resource": {
        "resourceType": "Observation",
        "id": "7c30015b-0afe-4b58-9faa-fa5c9de804ad",
        "meta": {
          "profile": [
            "http://hl7.eu/fhir/laboratory/StructureDefinition/Observation-resultslab-eu-lab"
          ]
        },
        "performer": [
          {
            "display": "The Central European Lab"
          }
        ],
        "category": [
          {
            "coding": [
              {
                "system": "http://terminology.hl7.org/CodeSystem/observation-category",
                "code": "laboratory"
              }
            ]
          }
        ],
        "code": {
          "coding": [
            {
              "code": "25428-4",
              "system": "http://loinc.org",
              "display": "Glucose [Presence] in Urine by Test strip"
            }
          ],
          "text": "Glucose [Presence] in Urine by Test strip"
        },
        "text": {
          "status": "generated",
          "div": "<div xmlns=\"http://www.w3.org/1999/xhtml\"><table class=\"hl7__eu__lab__report\"><tr><th>Test</th><th>29-Jul-2016</th><th>Reference&#xA0;Range</th><th>Unit</th></tr><tr><td>Glucose [Presence] in Urine by Test strip</td></tr></table></div>"
        },
        "status": "final",
        "subject": {
          "reference": "urn:uuid:79e6805a-9b23-4765-ad1e-e76af428a9d2",
          "display": "Victor Lagarde"
        },
        "effectiveDateTime": "2016-07-29T04:48:18Z",
        "specimen": {
          "reference": "urn:uuid:b16e5abc-9333-4bf0-b126-551a251bf573"
        }
      }
    },
    {
      "fullUrl": "urn:uuid:6ea04236-d0d3-4b53-84ad-685003d2835d",
      "resource": {
        "resourceType": "Observation",
        "id": "6ea04236-d0d3-4b53-84ad-685003d2835d",
        "meta": {
          "profile": [
            "http://hl7.eu/fhir/laboratory/StructureDefinition/Observation-resultslab-eu-lab"
          ]
        },
        "performer": [
          {
            "display": "The Central European Lab"
          }
        ],
        "category": [
          {
            "coding": [
              {
                "system": "http://terminology.hl7.org/CodeSystem/observation-category",
                "code": "laboratory"
              }
            ]
          }
        ],
        "code": {
          "coding": [
            {
              "code": "20505-4",
              "system": "http://loinc.org",
              "display": "Bilirubin.total [Mass/volume] in Urine by Test strip"
            }
          ],
          "text": "Bilirubin.total [Mass/volume] in Urine by Test strip"
        },
        "valueQuantity": {
          "system": "http://unitsofmeasure.org",
          "value": 0.8,
          "unit": "mg/dL",
          "code": "mg/dL"
        },
        "referenceRange": [
          {
            "low": {
              "value": 0,
              "code": "mg/dL",
              "system": "http://unitsofmeasure.org"
            }
          },
          {
            "high": {
              "value": 1.9,
              "code": "mg/dL",
              "system": "http://unitsofmeasure.org"
            }
          }
        ],
        "text": {
          "status": "generated",
          "div": "<div xmlns=\"http://www.w3.org/1999/xhtml\"><table class=\"hl7__eu__lab__report\"><tr><th>Test</th><th>29-Jul-2016</th><th>Reference&#xA0;Range</th><th>Unit</th></tr><tr><td>Bilirubin.total [Mass/volume] in Urine by Test strip</td><td>0.8</td><td>0 - 1.9</td><td></td><td>mg/dL</td></tr></table></div>"
        },
        "status": "final",
        "subject": {
          "reference": "urn:uuid:79e6805a-9b23-4765-ad1e-e76af428a9d2",
          "display": "Victor Lagarde"
        },
        "effectiveDateTime": "2016-07-29T04:48:18Z",
        "specimen": {
          "reference": "urn:uuid:b16e5abc-9333-4bf0-b126-551a251bf573"
        }
      }
    },
    {
      "fullUrl": "urn:uuid:b1b25d9c-fa17-4ffc-aee7-d7adf928d5f3",
      "resource": {
        "resourceType": "Observation",
        "id": "b1b25d9c-fa17-4ffc-aee7-d7adf928d5f3",
        "meta": {
          "profile": [
            "http://hl7.eu/fhir/laboratory/StructureDefinition/Observation-resultslab-eu-lab"
          ]
        },
        "performer": [
          {
            "display": "The Central European Lab"
          }
        ],
        "category": [
          {
            "coding": [
              {
                "system": "http://terminology.hl7.org/CodeSystem/observation-category",
                "code": "laboratory"
              }
            ]
          }
        ],
        "code": {
          "coding": [
            {
              "code": "5770-3",
              "system": "http://loinc.org",
              "display": "Bilirubin.total [Presence] in Urine by Test strip"
            }
          ],
          "text": "Bilirubin.total [Presence] in Urine by Test strip"
        },
        "text": {
          "status": "generated",
          "div": "<div xmlns=\"http://www.w3.org/1999/xhtml\"><table class=\"hl7__eu__lab__report\"><tr><th>Test</th><th>29-Jul-2016</th><th>Reference&#xA0;Range</th><th>Unit</th></tr><tr><td>Bilirubin.total [Presence] in Urine by Test strip</td></tr></table></div>"
        },
        "status": "final",
        "subject": {
          "reference": "urn:uuid:79e6805a-9b23-4765-ad1e-e76af428a9d2",
          "display": "Victor Lagarde"
        },
        "effectiveDateTime": "2016-07-29T04:48:18Z",
        "specimen": {
          "reference": "urn:uuid:b16e5abc-9333-4bf0-b126-551a251bf573"
        }
      }
    },
    {
      "fullUrl": "urn:uuid:8b4a2271-6ec6-438a-95bf-b881a288cfc8",
      "resource": {
        "resourceType": "Observation",
        "id": "8b4a2271-6ec6-438a-95bf-b881a288cfc8",
        "meta": {
          "profile": [
            "http://hl7.eu/fhir/laboratory/StructureDefinition/Observation-resultslab-eu-lab"
          ]
        },
        "performer": [
          {
            "display": "The Central European Lab"
          }
        ],
        "category": [
          {
            "coding": [
              {
                "system": "http://terminology.hl7.org/CodeSystem/observation-category",
                "code": "laboratory"
              }
            ]
          }
        ],
        "code": {
          "coding": [
            {
              "code": "5797-6",
              "system": "http://loinc.org",
              "display": "Ketones [Mass/volume] in Urine by Test strip"
            }
          ],
          "text": "Ketones [Mass/volume] in Urine by Test strip"
        },
        "valueQuantity": {
          "system": "http://unitsofmeasure.org",
          "value": 9.2,
          "unit": "mg/dL",
          "code": "mg/dL"
        },
        "referenceRange": [
          {
            "low": {
              "value": 0,
              "code": "mg/dL",
              "system": "http://unitsofmeasure.org"
            }
          },
          {
            "high": {
              "value": 3,
              "code": "mg/dL",
              "system": "http://unitsofmeasure.org"
            }
          }
        ],
        "interpretation": [
          {
            "coding": [
              {
                "code": "H",
                "system": "http://terminology.hl7.org/CodeSystem/v3-ObservationInterpretation",
                "display": "High"
              }
            ]
          }
        ],
        "text": {
          "status": "generated",
          "div": "<div xmlns=\"http://www.w3.org/1999/xhtml\"><table class=\"hl7__eu__lab__report\"><tr><th>Test</th><th>29-Jul-2016</th><th>Reference&#xA0;Range</th><th>Unit</th></tr><tr><td>Ketones [Mass/volume] in Urine by Test strip</td><td>9.2</td><td>0 - 3</td><td>H</td><td>mg/dL</td></tr></table></div>"
        },
        "status": "final",
        "subject": {
          "reference": "urn:uuid:79e6805a-9b23-4765-ad1e-e76af428a9d2",
          "display": "Victor Lagarde"
        },
        "effectiveDateTime": "2016-07-29T04:48:18Z",
        "specimen": {
          "reference": "urn:uuid:b16e5abc-9333-4bf0-b126-551a251bf573"
        }
      }
    },
    {
      "fullUrl": "urn:uuid:40134e88-f196-483b-88fd-8758138b445d",
      "resource": {
        "resourceType": "Observation",
        "id": "40134e88-f196-483b-88fd-8758138b445d",
        "meta": {
          "profile": [
            "http://hl7.eu/fhir/laboratory/StructureDefinition/Observation-resultslab-eu-lab"
          ]
        },
        "performer": [
          {
            "display": "The Central European Lab"
          }
        ],
        "category": [
          {
            "coding": [
              {
                "system": "http://terminology.hl7.org/CodeSystem/observation-category",
                "code": "laboratory"
              }
            ]
          }
        ],
        "code": {
          "coding": [
            {
              "code": "2514-8",
              "system": "http://loinc.org",
              "display": "Ketones [Presence] in Urine by Test strip"
            }
          ],
          "text": "Ketones [Presence] in Urine by Test strip"
        },
        "text": {
          "status": "generated",
          "div": "<div xmlns=\"http://www.w3.org/1999/xhtml\"><table class=\"hl7__eu__lab__report\"><tr><th>Test</th><th>29-Jul-2016</th><th>Reference&#xA0;Range</th><th>Unit</th></tr><tr><td>Ketones [Presence] in Urine by Test strip</td></tr></table></div>"
        },
        "status": "final",
        "subject": {
          "reference": "urn:uuid:79e6805a-9b23-4765-ad1e-e76af428a9d2",
          "display": "Victor Lagarde"
        },
        "effectiveDateTime": "2016-07-29T04:48:18Z",
        "specimen": {
          "reference": "urn:uuid:b16e5abc-9333-4bf0-b126-551a251bf573"
        }
      }
    },
    {
      "fullUrl": "urn:uuid:4a5e2914-291f-466a-813a-8866ea698d25",
      "resource": {
        "resourceType": "Observation",
        "id": "4a5e2914-291f-466a-813a-8866ea698d25",
        "meta": {
          "profile": [
            "http://hl7.eu/fhir/laboratory/StructureDefinition/Observation-resultslab-eu-lab"
          ]
        },
        "performer": [
          {
            "display": "The Central European Lab"
          }
        ],
        "category": [
          {
            "coding": [
              {
                "system": "http://terminology.hl7.org/CodeSystem/observation-category",
                "code": "laboratory"
              }
            ]
          }
        ],
        "code": {
          "coding": [
            {
              "code": "5811-5",
              "system": "http://loinc.org",
              "display": "Specific gravity of Urine by Test strip"
            }
          ],
          "text": "Specific gravity of Urine by Test strip"
        },
        "valueQuantity": {
          "system": "http://unitsofmeasure.org",
          "value": 1,
          "unit": "{nominal}",
          "code": "{nominal}"
        },
        "referenceRange": [
          {
            "low": {
              "value": 1.01,
              "code": "g/mL",
              "system": "http://unitsofmeasure.org"
            }
          },
          {
            "high": {
              "value": 1.03,
              "code": "g/mL",
              "system": "http://unitsofmeasure.org"
            }
          }
        ],
        "interpretation": [
          {
            "coding": [
              {
                "code": "L",
                "system": "http://terminology.hl7.org/CodeSystem/v3-ObservationInterpretation",
                "display": "Low"
              }
            ]
          }
        ],
        "text": {
          "status": "generated",
          "div": "<div xmlns=\"http://www.w3.org/1999/xhtml\"><table class=\"hl7__eu__lab__report\"><tr><th>Test</th><th>29-Jul-2016</th><th>Reference&#xA0;Range</th><th>Unit</th></tr><tr><td>Specific gravity of Urine by Test strip</td><td>1.0</td><td>1.01 - 1.03</td><td>L</td><td>{nominal}</td></tr></table></div>"
        },
        "status": "final",
        "subject": {
          "reference": "urn:uuid:79e6805a-9b23-4765-ad1e-e76af428a9d2",
          "display": "Victor Lagarde"
        },
        "effectiveDateTime": "2016-07-29T04:48:18Z",
        "specimen": {
          "reference": "urn:uuid:b16e5abc-9333-4bf0-b126-551a251bf573"
        }
      }
    },
    {
      "fullUrl": "urn:uuid:1e17825f-b95a-451e-9e36-c4914752378f",
      "resource": {
        "resourceType": "Observation",
        "id": "1e17825f-b95a-451e-9e36-c4914752378f",
        "meta": {
          "profile": [
            "http://hl7.eu/fhir/laboratory/StructureDefinition/Observation-resultslab-eu-lab"
          ]
        },
        "performer": [
          {
            "display": "The Central European Lab"
          }
        ],
        "category": [
          {
            "coding": [
              {
                "system": "http://terminology.hl7.org/CodeSystem/observation-category",
                "code": "laboratory"
              }
            ]
          }
        ],
        "code": {
          "coding": [
            {
              "code": "5803-2",
              "system": "http://loinc.org",
              "display": "pH of Urine by Test strip"
            }
          ],
          "text": "pH of Urine by Test strip"
        },
        "valueQuantity": {
          "system": "http://unitsofmeasure.org",
          "value": 5.1,
          "unit": "pH",
          "code": "pH"
        },
        "referenceRange": [
          {
            "low": {
              "value": 4.5,
              "code": "pH",
              "system": "http://unitsofmeasure.org"
            }
          },
          {
            "high": {
              "value": 7.5,
              "code": "pH",
              "system": "http://unitsofmeasure.org"
            }
          }
        ],
        "text": {
          "status": "generated",
          "div": "<div xmlns=\"http://www.w3.org/1999/xhtml\"><table class=\"hl7__eu__lab__report\"><tr><th>Test</th><th>29-Jul-2016</th><th>Reference&#xA0;Range</th><th>Unit</th></tr><tr><td>pH of Urine by Test strip</td><td>5.1</td><td>4.5 - 7.5</td><td></td><td>pH</td></tr></table></div>"
        },
        "status": "final",
        "subject": {
          "reference": "urn:uuid:79e6805a-9b23-4765-ad1e-e76af428a9d2",
          "display": "Victor Lagarde"
        },
        "effectiveDateTime": "2016-07-29T04:48:18Z",
        "specimen": {
          "reference": "urn:uuid:b16e5abc-9333-4bf0-b126-551a251bf573"
        }
      }
    },
    {
      "fullUrl": "urn:uuid:21d51cd4-d78d-411e-9cfc-89382b068678",
      "resource": {
        "resourceType": "Observation",
        "id": "21d51cd4-d78d-411e-9cfc-89382b068678",
        "meta": {
          "profile": [
            "http://hl7.eu/fhir/laboratory/StructureDefinition/Observation-resultslab-eu-lab"
          ]
        },
        "performer": [
          {
            "display": "The Central European Lab"
          }
        ],
        "category": [
          {
            "coding": [
              {
                "system": "http://terminology.hl7.org/CodeSystem/observation-category",
                "code": "laboratory"
              }
            ]
          }
        ],
        "code": {
          "coding": [
            {
              "code": "5804-0",
              "system": "http://loinc.org",
              "display": "Protein [Mass/volume] in Urine by Test strip"
            }
          ],
          "text": "Protein [Mass/volume] in Urine by Test strip"
        },
        "valueQuantity": {
          "system": "http://unitsofmeasure.org",
          "value": 302.3,
          "unit": "mg/dL",
          "code": "mg/dL"
        },
        "referenceRange": [
          {
            "low": {
              "value": 0,
              "code": "mg/dL",
              "system": "http://unitsofmeasure.org"
            }
          },
          {
            "high": {
              "value": 149,
              "code": "mg/dL",
              "system": "http://unitsofmeasure.org"
            }
          }
        ],
        "interpretation": [
          {
            "coding": [
              {
                "code": "H",
                "system": "http://terminology.hl7.org/CodeSystem/v3-ObservationInterpretation",
                "display": "High"
              }
            ]
          }
        ],
        "text": {
          "status": "generated",
          "div": "<div xmlns=\"http://www.w3.org/1999/xhtml\"><table class=\"hl7__eu__lab__report\"><tr><th>Test</th><th>29-Jul-2016</th><th>Reference&#xA0;Range</th><th>Unit</th></tr><tr><td>Protein [Mass/volume] in Urine by Test strip</td><td>302.3</td><td>0 - 149</td><td>H</td><td>mg/dL</td></tr></table></div>"
        },
        "status": "final",
        "subject": {
          "reference": "urn:uuid:79e6805a-9b23-4765-ad1e-e76af428a9d2",
          "display": "Victor Lagarde"
        },
        "effectiveDateTime": "2016-07-29T04:48:18Z",
        "specimen": {
          "reference": "urn:uuid:b16e5abc-9333-4bf0-b126-551a251bf573"
        }
      }
    },
    {
      "fullUrl": "urn:uuid:95d6ef95-fd4f-4f9f-add3-c28c21bcad16",
      "resource": {
        "resourceType": "Observation",
        "id": "95d6ef95-fd4f-4f9f-add3-c28c21bcad16",
        "meta": {
          "profile": [
            "http://hl7.eu/fhir/laboratory/StructureDefinition/Observation-resultslab-eu-lab"
          ]
        },
        "performer": [
          {
            "display": "The Central European Lab"
          }
        ],
        "category": [
          {
            "coding": [
              {
                "system": "http://terminology.hl7.org/CodeSystem/observation-category",
                "code": "laboratory"
              }
            ]
          }
        ],
        "code": {
          "coding": [
            {
              "code": "20454-5",
              "system": "http://loinc.org",
              "display": "Protein [Presence] in Urine by Test strip"
            }
          ],
          "text": "Protein [Presence] in Urine by Test strip"
        },
        "text": {
          "status": "generated",
          "div": "<div xmlns=\"http://www.w3.org/1999/xhtml\"><table class=\"hl7__eu__lab__report\"><tr><th>Test</th><th>29-Jul-2016</th><th>Reference&#xA0;Range</th><th>Unit</th></tr><tr><td>Protein [Presence] in Urine by Test strip</td></tr></table></div>"
        },
        "status": "final",
        "subject": {
          "reference": "urn:uuid:79e6805a-9b23-4765-ad1e-e76af428a9d2",
          "display": "Victor Lagarde"
        },
        "effectiveDateTime": "2016-07-29T04:48:18Z",
        "specimen": {
          "reference": "urn:uuid:b16e5abc-9333-4bf0-b126-551a251bf573"
        }
      }
    },
    {
      "fullUrl": "urn:uuid:6cf09c93-7761-4aff-b46a-5493a7345af2",
      "resource": {
        "resourceType": "Observation",
        "id": "6cf09c93-7761-4aff-b46a-5493a7345af2",
        "meta": {
          "profile": [
            "http://hl7.eu/fhir/laboratory/StructureDefinition/Observation-resultslab-eu-lab"
          ]
        },
        "performer": [
          {
            "display": "The Central European Lab"
          }
        ],
        "category": [
          {
            "coding": [
              {
                "system": "http://terminology.hl7.org/CodeSystem/observation-category",
                "code": "laboratory"
              }
            ]
          }
        ],
        "code": {
          "coding": [
            {
              "code": "5802-4",
              "system": "http://loinc.org",
              "display": "Nitrite [Presence] in Urine by Test strip"
            }
          ],
          "text": "Nitrite [Presence] in Urine by Test strip"
        },
        "text": {
          "status": "generated",
          "div": "<div xmlns=\"http://www.w3.org/1999/xhtml\"><table class=\"hl7__eu__lab__report\"><tr><th>Test</th><th>29-Jul-2016</th><th>Reference&#xA0;Range</th><th>Unit</th></tr><tr><td>Nitrite [Presence] in Urine by Test strip</td></tr></table></div>"
        },
        "status": "final",
        "subject": {
          "reference": "urn:uuid:79e6805a-9b23-4765-ad1e-e76af428a9d2",
          "display": "Victor Lagarde"
        },
        "effectiveDateTime": "2016-07-29T04:48:18Z",
        "specimen": {
          "reference": "urn:uuid:b16e5abc-9333-4bf0-b126-551a251bf573"
        }
      }
    },
    {
      "fullUrl": "urn:uuid:ada15759-54c9-4ba8-b7e6-222469e55b37",
      "resource": {
        "resourceType": "Observation",
        "id": "ada15759-54c9-4ba8-b7e6-222469e55b37",
        "meta": {
          "profile": [
            "http://hl7.eu/fhir/laboratory/StructureDefinition/Observation-resultslab-eu-lab"
          ]
        },
        "performer": [
          {
            "display": "The Central European Lab"
          }
        ],
        "category": [
          {
            "coding": [
              {
                "system": "http://terminology.hl7.org/CodeSystem/observation-category",
                "code": "laboratory"
              }
            ]
          }
        ],
        "code": {
          "coding": [
            {
              "code": "5794-3",
              "system": "http://loinc.org",
              "display": "Hemoglobin [Presence] in Urine by Test strip"
            }
          ],
          "text": "Hemoglobin [Presence] in Urine by Test strip"
        },
        "text": {
          "status": "generated",
          "div": "<div xmlns=\"http://www.w3.org/1999/xhtml\"><table class=\"hl7__eu__lab__report\"><tr><th>Test</th><th>29-Jul-2016</th><th>Reference&#xA0;Range</th><th>Unit</th></tr><tr><td>Hemoglobin [Presence] in Urine by Test strip</td></tr></table></div>"
        },
        "status": "final",
        "subject": {
          "reference": "urn:uuid:79e6805a-9b23-4765-ad1e-e76af428a9d2",
          "display": "Victor Lagarde"
        },
        "effectiveDateTime": "2016-07-29T04:48:18Z",
        "specimen": {
          "reference": "urn:uuid:b16e5abc-9333-4bf0-b126-551a251bf573"
        }
      }
    },
    {
      "fullUrl": "urn:uuid:71cc5486-6a38-4280-9691-b1ce7c937ae4",
      "resource": {
        "resourceType": "Observation",
        "id": "71cc5486-6a38-4280-9691-b1ce7c937ae4",
        "meta": {
          "profile": [
            "http://hl7.eu/fhir/laboratory/StructureDefinition/Observation-resultslab-eu-lab"
          ]
        },
        "performer": [
          {
            "display": "The Central European Lab"
          }
        ],
        "category": [
          {
            "coding": [
              {
                "system": "http://terminology.hl7.org/CodeSystem/observation-category",
                "code": "laboratory"
              }
            ]
          }
        ],
        "code": {
          "coding": [
            {
              "code": "5799-2",
              "system": "http://loinc.org",
              "display": "Leukocyte esterase [Presence] in Urine by Test strip"
            }
          ],
          "text": "Leukocyte esterase [Presence] in Urine by Test strip"
        },
        "text": {
          "status": "generated",
          "div": "<div xmlns=\"http://www.w3.org/1999/xhtml\"><table class=\"hl7__eu__lab__report\"><tr><th>Test</th><th>29-Jul-2016</th><th>Reference&#xA0;Range</th><th>Unit</th></tr><tr><td>Leukocyte esterase [Presence] in Urine by Test strip</td></tr></table></div>"
        },
        "status": "final",
        "subject": {
          "reference": "urn:uuid:79e6805a-9b23-4765-ad1e-e76af428a9d2",
          "display": "Victor Lagarde"
        },
        "effectiveDateTime": "2016-07-29T04:48:18Z",
        "specimen": {
          "reference": "urn:uuid:b16e5abc-9333-4bf0-b126-551a251bf573"
        }
      }
    },
    {
      "fullUrl": "urn:uuid:5f9376e5-b59a-417b-99c1-ceb9a1b82e79",
      "resource": {
        "resourceType": "Observation",
        "id": "5f9376e5-b59a-417b-99c1-ceb9a1b82e79",
        "meta": {
          "profile": [
            "http://hl7.eu/fhir/laboratory/StructureDefinition/Observation-resultslab-eu-lab"
          ]
        },
        "performer": [
          {
            "display": "The Central European Lab"
          }
        ],
        "category": [
          {
            "coding": [
              {
                "system": "http://terminology.hl7.org/CodeSystem/observation-category",
                "code": "laboratory"
              }
            ]
          }
        ],
        "code": {
          "coding": [
            {
              "code": "4548-4",
              "system": "http://loinc.org",
              "display": "Hemoglobin A1c/Hemoglobin.total in Blood"
            }
          ],
          "text": "Hemoglobin A1c/Hemoglobin.total in Blood"
        },
        "valueQuantity": {
          "system": "http://unitsofmeasure.org",
          "value": 3.3,
          "unit": "%",
          "code": "%"
        },
        "referenceRange": [
          {
            "low": {
              "value": 4.3,
              "code": "%",
              "system": "http://unitsofmeasure.org"
            }
          },
          {
            "high": {
              "value": 6,
              "code": "%",
              "system": "http://unitsofmeasure.org"
            }
          }
        ],
        "interpretation": [
          {
            "coding": [
              {
                "code": "L",
                "system": "http://terminology.hl7.org/CodeSystem/v3-ObservationInterpretation",
                "display": "Low"
              }
            ]
          }
        ],
        "text": {
          "status": "generated",
          "div": "<div xmlns=\"http://www.w3.org/1999/xhtml\"><table class=\"hl7__eu__lab__report\"><tr><th>Test</th><th>29-Jul-2016</th><th>Reference&#xA0;Range</th><th>Unit</th></tr><tr><td>Hemoglobin A1c/Hemoglobin.total in Blood</td><td>3.3</td><td>4.3 - 6</td><td>L</td><td>%</td></tr></table></div>"
        },
        "status": "final",
        "subject": {
          "reference": "urn:uuid:79e6805a-9b23-4765-ad1e-e76af428a9d2",
          "display": "Victor Lagarde"
        },
        "effectiveDateTime": "2016-07-29T04:48:18Z",
        "specimen": {
          "reference": "urn:uuid:7a662cd9-d555-4780-a187-52d31f626517"
        }
      }
    },
    {
      "fullUrl": "urn:uuid:80f351a3-d221-4f51-8c8f-b3dc7461ee5d",
      "resource": {
        "resourceType": "Observation",
        "id": "80f351a3-d221-4f51-8c8f-b3dc7461ee5d",
        "meta": {
          "profile": [
            "http://hl7.eu/fhir/laboratory/StructureDefinition/Observation-resultslab-eu-lab"
          ]
        },
        "performer": [
          {
            "display": "The Central European Lab"
          }
        ],
        "category": [
          {
            "coding": [
              {
                "system": "http://terminology.hl7.org/CodeSystem/observation-category",
                "code": "laboratory"
              }
            ]
          }
        ],
        "code": {
          "coding": [
            {
              "code": "2339-0",
              "system": "http://loinc.org",
              "display": "Glucose [Mass/volume] in Blood"
            }
          ],
          "text": "Glucose [Mass/volume] in Blood"
        },
        "valueQuantity": {
          "system": "http://unitsofmeasure.org",
          "value": 100,
          "unit": "mg/dL",
          "code": "mg/dL"
        },
        "referenceRange": [
          {
            "low": {
              "value": 70,
              "code": "mg/dL",
              "system": "http://unitsofmeasure.org"
            }
          },
          {
            "high": {
              "value": 140,
              "code": "mg/dL",
              "system": "http://unitsofmeasure.org"
            }
          }
        ],
        "text": {
          "status": "generated",
          "div": "<div xmlns=\"http://www.w3.org/1999/xhtml\"><table class=\"hl7__eu__lab__report\"><tr><th>Test</th><th>29-Jul-2016</th><th>Reference&#xA0;Range</th><th>Unit</th></tr><tr><td>Glucose [Mass/volume] in Blood</td><td>100.0</td><td>70 - 140</td><td></td><td>mg/dL</td></tr></table></div>"
        },
        "status": "final",
        "subject": {
          "reference": "urn:uuid:79e6805a-9b23-4765-ad1e-e76af428a9d2",
          "display": "Victor Lagarde"
        },
        "effectiveDateTime": "2016-07-29T04:48:18Z",
        "specimen": {
          "reference": "urn:uuid:7a662cd9-d555-4780-a187-52d31f626517"
        }
      }
    },
    {
      "fullUrl": "urn:uuid:157abdbe-41f2-4b96-ab93-a90f1968a31e",
      "resource": {
        "resourceType": "Observation",
        "id": "157abdbe-41f2-4b96-ab93-a90f1968a31e",
        "meta": {
          "profile": [
            "http://hl7.eu/fhir/laboratory/StructureDefinition/Observation-resultslab-eu-lab"
          ]
        },
        "performer": [
          {
            "display": "The Central European Lab"
          }
        ],
        "category": [
          {
            "coding": [
              {
                "system": "http://terminology.hl7.org/CodeSystem/observation-category",
                "code": "laboratory"
              }
            ]
          }
        ],
        "code": {
          "coding": [
            {
              "code": "6299-2",
              "system": "http://loinc.org",
              "display": "Urea nitrogen [Mass/volume] in Blood"
            }
          ],
          "text": "Urea nitrogen [Mass/volume] in Blood"
        },
        "valueQuantity": {
          "system": "http://unitsofmeasure.org",
          "value": 7.5,
          "unit": "mg/dL",
          "code": "mg/dL"
        },
        "referenceRange": [
          {
            "low": {
              "value": 7,
              "code": "mg/dL",
              "system": "http://unitsofmeasure.org"
            }
          },
          {
            "high": {
              "value": 20,
              "code": "mg/dL",
              "system": "http://unitsofmeasure.org"
            }
          }
        ],
        "text": {
          "status": "generated",
          "div": "<div xmlns=\"http://www.w3.org/1999/xhtml\"><table class=\"hl7__eu__lab__report\"><tr><th>Test</th><th>29-Jul-2016</th><th>Reference&#xA0;Range</th><th>Unit</th></tr><tr><td>Urea nitrogen [Mass/volume] in Blood</td><td>7.5</td><td>7 - 20</td><td></td><td>mg/dL</td></tr></table></div>"
        },
        "status": "final",
        "subject": {
          "reference": "urn:uuid:79e6805a-9b23-4765-ad1e-e76af428a9d2",
          "display": "Victor Lagarde"
        },
        "effectiveDateTime": "2016-07-29T04:48:18Z",
        "specimen": {
          "reference": "urn:uuid:7a662cd9-d555-4780-a187-52d31f626517"
        }
      }
    },
    {
      "fullUrl": "urn:uuid:409f6d80-4236-417c-aa55-aa54ea8a6826",
      "resource": {
        "resourceType": "Observation",
        "id": "409f6d80-4236-417c-aa55-aa54ea8a6826",
        "meta": {
          "profile": [
            "http://hl7.eu/fhir/laboratory/StructureDefinition/Observation-resultslab-eu-lab"
          ]
        },
        "performer": [
          {
            "display": "The Central European Lab"
          }
        ],
        "category": [
          {
            "coding": [
              {
                "system": "http://terminology.hl7.org/CodeSystem/observation-category",
                "code": "laboratory"
              }
            ]
          }
        ],
        "code": {
          "coding": [
            {
              "code": "38483-4",
              "system": "http://loinc.org",
              "display": "Creatinine [Mass/volume] in Blood"
            }
          ],
          "text": "Creatinine [Mass/volume] in Blood"
        },
        "valueQuantity": {
          "system": "http://unitsofmeasure.org",
          "value": 1.5,
          "unit": "mg/dL",
          "code": "mg/dL"
        },
        "referenceRange": [
          {
            "low": {
              "value": 0.9,
              "code": "mg/dL",
              "system": "http://unitsofmeasure.org"
            }
          },
          {
            "high": {
              "value": 1.3,
              "code": "mg/dL",
              "system": "http://unitsofmeasure.org"
            }
          }
        ],
        "interpretation": [
          {
            "coding": [
              {
                "code": "H",
                "system": "http://terminology.hl7.org/CodeSystem/v3-ObservationInterpretation",
                "display": "High"
              }
            ]
          }
        ],
        "text": {
          "status": "generated",
          "div": "<div xmlns=\"http://www.w3.org/1999/xhtml\"><table class=\"hl7__eu__lab__report\"><tr><th>Test</th><th>29-Jul-2016</th><th>Reference&#xA0;Range</th><th>Unit</th></tr><tr><td>Creatinine [Mass/volume] in Blood</td><td>1.5</td><td>0.9 - 1.3</td><td>H</td><td>mg/dL</td></tr></table></div>"
        },
        "status": "final",
        "subject": {
          "reference": "urn:uuid:79e6805a-9b23-4765-ad1e-e76af428a9d2",
          "display": "Victor Lagarde"
        },
        "effectiveDateTime": "2016-07-29T04:48:18Z",
        "specimen": {
          "reference": "urn:uuid:7a662cd9-d555-4780-a187-52d31f626517"
        }
      }
    },
    {
      "fullUrl": "urn:uuid:6a6cc2f9-76e4-441a-8b42-40bb612fbfcb",
      "resource": {
        "resourceType": "Observation",
        "id": "6a6cc2f9-76e4-441a-8b42-40bb612fbfcb",
        "meta": {
          "profile": [
            "http://hl7.eu/fhir/laboratory/StructureDefinition/Observation-resultslab-eu-lab"
          ]
        },
        "performer": [
          {
            "display": "The Central European Lab"
          }
        ],
        "category": [
          {
            "coding": [
              {
                "system": "http://terminology.hl7.org/CodeSystem/observation-category",
                "code": "laboratory"
              }
            ]
          }
        ],
        "code": {
          "coding": [
            {
              "code": "49765-1",
              "system": "http://loinc.org",
              "display": "Calcium [Mass/volume] in Blood"
            }
          ],
          "text": "Calcium [Mass/volume] in Blood"
        },
        "valueQuantity": {
          "system": "http://unitsofmeasure.org",
          "value": 10,
          "unit": "mg/dL",
          "code": "mg/dL"
        },
        "referenceRange": [
          {
            "low": {
              "value": 8.5,
              "code": "mg/dL",
              "system": "http://unitsofmeasure.org"
            }
          },
          {
            "high": {
              "value": 10.5,
              "code": "mg/dL",
              "system": "http://unitsofmeasure.org"
            }
          }
        ],
        "text": {
          "status": "generated",
          "div": "<div xmlns=\"http://www.w3.org/1999/xhtml\"><table class=\"hl7__eu__lab__report\"><tr><th>Test</th><th>29-Jul-2016</th><th>Reference&#xA0;Range</th><th>Unit</th></tr><tr><td>Calcium [Mass/volume] in Blood</td><td>10.0</td><td>8.5 - 10.5</td><td></td><td>mg/dL</td></tr></table></div>"
        },
        "status": "final",
        "subject": {
          "reference": "urn:uuid:79e6805a-9b23-4765-ad1e-e76af428a9d2",
          "display": "Victor Lagarde"
        },
        "effectiveDateTime": "2016-07-29T04:48:18Z",
        "specimen": {
          "reference": "urn:uuid:7a662cd9-d555-4780-a187-52d31f626517"
        }
      }
    },
    {
      "fullUrl": "urn:uuid:0b3d9f77-603b-420d-a0f4-5d8bb937f377",
      "resource": {
        "resourceType": "Observation",
        "id": "0b3d9f77-603b-420d-a0f4-5d8bb937f377",
        "meta": {
          "profile": [
            "http://hl7.eu/fhir/laboratory/StructureDefinition/Observation-resultslab-eu-lab"
          ]
        },
        "performer": [
          {
            "display": "The Central European Lab"
          }
        ],
        "category": [
          {
            "coding": [
              {
                "system": "http://terminology.hl7.org/CodeSystem/observation-category",
                "code": "laboratory"
              }
            ]
          }
        ],
        "code": {
          "coding": [
            {
              "code": "2947-0",
              "system": "http://loinc.org",
              "display": "Sodium [Moles/volume] in Blood"
            }
          ],
          "text": "Sodium [Moles/volume] in Blood"
        },
        "valueQuantity": {
          "system": "http://unitsofmeasure.org",
          "value": 136.3,
          "unit": "mmol/L",
          "code": "mmol/L"
        },
        "referenceRange": [
          {
            "low": {
              "value": 135,
              "code": "mmol/L",
              "system": "http://unitsofmeasure.org"
            }
          },
          {
            "high": {
              "value": 145,
              "code": "mmol/L",
              "system": "http://unitsofmeasure.org"
            }
          }
        ],
        "text": {
          "status": "generated",
          "div": "<div xmlns=\"http://www.w3.org/1999/xhtml\"><table class=\"hl7__eu__lab__report\"><tr><th>Test</th><th>29-Jul-2016</th><th>Reference&#xA0;Range</th><th>Unit</th></tr><tr><td>Sodium [Moles/volume] in Blood</td><td>136.3</td><td>135 - 145</td><td></td><td>mmol/L</td></tr></table></div>"
        },
        "status": "final",
        "subject": {
          "reference": "urn:uuid:79e6805a-9b23-4765-ad1e-e76af428a9d2",
          "display": "Victor Lagarde"
        },
        "effectiveDateTime": "2016-07-29T04:48:18Z",
        "specimen": {
          "reference": "urn:uuid:7a662cd9-d555-4780-a187-52d31f626517"
        }
      }
    },
    {
      "fullUrl": "urn:uuid:fc2b1e04-a5e2-454e-bef2-f09b22ea76a0",
      "resource": {
        "resourceType": "Observation",
        "id": "fc2b1e04-a5e2-454e-bef2-f09b22ea76a0",
        "meta": {
          "profile": [
            "http://hl7.eu/fhir/laboratory/StructureDefinition/Observation-resultslab-eu-lab"
          ]
        },
        "performer": [
          {
            "display": "The Central European Lab"
          }
        ],
        "category": [
          {
            "coding": [
              {
                "system": "http://terminology.hl7.org/CodeSystem/observation-category",
                "code": "laboratory"
              }
            ]
          }
        ],
        "code": {
          "coding": [
            {
              "code": "6298-4",
              "system": "http://loinc.org",
              "display": "Potassium [Moles/volume] in Blood"
            }
          ],
          "text": "Potassium [Moles/volume] in Blood"
        },
        "valueQuantity": {
          "system": "http://unitsofmeasure.org",
          "value": 5.1,
          "unit": "mmol/L",
          "code": "mmol/L"
        },
        "referenceRange": [
          {
            "low": {
              "value": 3.5,
              "code": "mmol/L",
              "system": "http://unitsofmeasure.org"
            }
          },
          {
            "high": {
              "value": 5.1,
              "code": "mmol/L",
              "system": "http://unitsofmeasure.org"
            }
          }
        ],
        "text": {
          "status": "generated",
          "div": "<div xmlns=\"http://www.w3.org/1999/xhtml\"><table class=\"hl7__eu__lab__report\"><tr><th>Test</th><th>29-Jul-2016</th><th>Reference&#xA0;Range</th><th>Unit</th></tr><tr><td>Potassium [Moles/volume] in Blood</td><td>5.1</td><td>3.5 - 5.1</td><td></td><td>mmol/L</td></tr></table></div>"
        },
        "status": "final",
        "subject": {
          "reference": "urn:uuid:79e6805a-9b23-4765-ad1e-e76af428a9d2",
          "display": "Victor Lagarde"
        },
        "effectiveDateTime": "2016-07-29T04:48:18Z",
        "specimen": {
          "reference": "urn:uuid:7a662cd9-d555-4780-a187-52d31f626517"
        }
      }
    },
    {
      "fullUrl": "urn:uuid:4e856196-d07c-4a2f-be00-9f029b89cf28",
      "resource": {
        "resourceType": "Observation",
        "id": "4e856196-d07c-4a2f-be00-9f029b89cf28",
        "meta": {
          "profile": [
            "http://hl7.eu/fhir/laboratory/StructureDefinition/Observation-resultslab-eu-lab"
          ]
        },
        "performer": [
          {
            "display": "The Central European Lab"
          }
        ],
        "category": [
          {
            "coding": [
              {
                "system": "http://terminology.hl7.org/CodeSystem/observation-category",
                "code": "laboratory"
              }
            ]
          }
        ],
        "code": {
          "coding": [
            {
              "code": "2069-3",
              "system": "http://loinc.org",
              "display": "Chloride [Moles/volume] in Blood"
            }
          ],
          "text": "Chloride [Moles/volume] in Blood"
        },
        "valueQuantity": {
          "system": "http://unitsofmeasure.org",
          "value": 103.8,
          "unit": "mmol/L",
          "code": "mmol/L"
        },
        "referenceRange": [
          {
            "low": {
              "value": 98,
              "code": "mmol/L",
              "system": "http://unitsofmeasure.org"
            }
          },
          {
            "high": {
              "value": 108,
              "code": "mmol/L",
              "system": "http://unitsofmeasure.org"
            }
          }
        ],
        "text": {
          "status": "generated",
          "div": "<div xmlns=\"http://www.w3.org/1999/xhtml\"><table class=\"hl7__eu__lab__report\"><tr><th>Test</th><th>29-Jul-2016</th><th>Reference&#xA0;Range</th><th>Unit</th></tr><tr><td>Chloride [Moles/volume] in Blood</td><td>103.8</td><td>98 - 108</td><td></td><td>mmol/L</td></tr></table></div>"
        },
        "status": "final",
        "subject": {
          "reference": "urn:uuid:79e6805a-9b23-4765-ad1e-e76af428a9d2",
          "display": "Victor Lagarde"
        },
        "effectiveDateTime": "2016-07-29T04:48:18Z",
        "specimen": {
          "reference": "urn:uuid:7a662cd9-d555-4780-a187-52d31f626517"
        }
      }
    },
    {
      "fullUrl": "urn:uuid:dca8706c-3344-40a5-96c1-e0583aa2ba05",
      "resource": {
        "resourceType": "Observation",
        "id": "dca8706c-3344-40a5-96c1-e0583aa2ba05",
        "meta": {
          "profile": [
            "http://hl7.eu/fhir/laboratory/StructureDefinition/Observation-resultslab-eu-lab"
          ]
        },
        "performer": [
          {
            "display": "The Central European Lab"
          }
        ],
        "category": [
          {
            "coding": [
              {
                "system": "http://terminology.hl7.org/CodeSystem/observation-category",
                "code": "laboratory"
              }
            ]
          }
        ],
        "code": {
          "coding": [
            {
              "code": "20565-8",
              "system": "http://loinc.org",
              "display": "Carbon dioxide, total [Moles/volume] in Blood"
            }
          ],
          "text": "Carbon dioxide, total [Moles/volume] in Blood"
        },
        "valueQuantity": {
          "system": "http://unitsofmeasure.org",
          "value": 25.6,
          "unit": "mmol/L",
          "code": "mmol/L"
        },
        "referenceRange": [
          {
            "low": {
              "value": 22,
              "code": "mmol/L",
              "system": "http://unitsofmeasure.org"
            }
          },
          {
            "high": {
              "value": 29,
              "code": "mmol/L",
              "system": "http://unitsofmeasure.org"
            }
          }
        ],
        "text": {
          "status": "generated",
          "div": "<div xmlns=\"http://www.w3.org/1999/xhtml\"><table class=\"hl7__eu__lab__report\"><tr><th>Test</th><th>29-Jul-2016</th><th>Reference&#xA0;Range</th><th>Unit</th></tr><tr><td>Carbon dioxide, total [Moles/volume] in Blood</td><td>25.6</td><td>22 - 29</td><td></td><td>mmol/L</td></tr></table></div>"
        },
        "status": "final",
        "subject": {
          "reference": "urn:uuid:79e6805a-9b23-4765-ad1e-e76af428a9d2",
          "display": "Victor Lagarde"
        },
        "effectiveDateTime": "2016-07-29T04:48:18Z",
        "specimen": {
          "reference": "urn:uuid:7a662cd9-d555-4780-a187-52d31f626517"
        }
      }
    },
    {
      "fullUrl": "urn:uuid:00e81601-c192-4795-aa21-69c06dc48078",
      "resource": {
        "resourceType": "Device",
        "id": "00e81601-c192-4795-aa21-69c06dc48078",
        "deviceName": [
          {
            "name": "SYNDERAI Synthetic Generator",
            "type": "manufacturer-name"
          }
        ],
        "version": [
          {
            "value": "5.0"
          }
        ],
        "text": {
          "status": "generated",
          "div": "<div xmlns=\"http://www.w3.org/1999/xhtml\">SYNDERAI Synthetic Generator v5.0</div>"
        },
        "status": "active\"",
        "distinctIdentifier": "synderai-generator-50",
        "manufacturer": "SYNDERAI Project"
      }
    },
    {
      "fullUrl": "urn:uuid:0c6830d4-59ec-4920-8df5-9607b156d384",
      "resource": {
        "resourceType": "Provenance",
        "id": "0c6830d4-59ec-4920-8df5-9607b156d384",
        "target": [
          {
            "reference": "Patient/79e6805a-9b23-4765-ad1e-e76af428a9d2"
          },
          {
            "reference": "Bundle/a24f2f19-3afb-4ae4-bd1a-d7738eb0e149"
          },
          {
            "reference": "Composition/21db70d9-6ed3-46de-9b5d-936db5140940"
          },
          {
            "reference": "PractitionerRole/59daa311-4b52-4abf-8d46-8eb5a51be0b3"
          },
          {
            "reference": "Practitioner/978625a0-96d9-4c11-9876-52755178e453"
          },
          {
            "reference": "PractitionerRole/0d3c46c4-de7b-41e7-ad25-6142b063124b"
          },
          {
            "reference": "Organization/5d5dd2e5-6719-4cc7-8339-fa70d7f1002c"
          }
        ],
        "activity": {
          "text": "Synthetic Example Data Generation"
        },
        "policy": [
          "https://synderai.net/synderai-synthetic-data-policy"
        ],
        "agent": [
          {
            "type": {
              "text": "author"
            },
            "who": {
              "reference": "Device/00e81601-c192-4795-aa21-69c06dc48078"
            }
          }
        ],
        "reason": [
          {
            "text": "Interoperability Testing and Training (non-clinical use)"
          }
        ],
        "text": {
          "status": "generated",
          "div": "<div xmlns=\"http://www.w3.org/1999/xhtml\">Provenance for SYNDERAI Synthetic Example Data Resource</div>"
        },
        "recorded": "2016-07-29T06:48:18Z"
      }
    },
    {
      "fullUrl": "urn:uuid:59daa311-4b52-4abf-8d46-8eb5a51be0b3",
      "resource": {
        "resourceType": "PractitionerRole",
        "id": "59daa311-4b52-4abf-8d46-8eb5a51be0b3",
        "meta": {
          "profile": [
            "http://hl7.eu/fhir/base/StructureDefinition/practitionerRole-eu"
          ]
        },
        "text": {
          "status": "generated",
          "div": "<div xmlns=\"http://www.w3.org/1999/xhtml\">Laboratory Role Id: 59daa311-4b52-4abf-8d46-8eb5a51be0b3</div>"
        },
        "practitioner": {
          "reference": "urn:uuid:978625a0-96d9-4c11-9876-52755178e453"
        }
      }
    },
    {
      "fullUrl": "urn:uuid:978625a0-96d9-4c11-9876-52755178e453",
      "resource": {
        "resourceType": "Practitioner",
        "id": "978625a0-96d9-4c11-9876-52755178e453",
        "meta": {
          "profile": [
            "http://hl7.eu/fhir/base/StructureDefinition/practitioner-eu"
          ]
        },
        "identifier": [
          {
            "assigner": {
              "display": "HL7 Europe"
            },
            "system": "urn:oid:2.16.840.1.113883.2.51.999",
            "value": "2462fd29-27a3-46fb-a697-3c8bb595e6f4"
          }
        ],
        "name": [
          {
            "prefix": [
              "dr"
            ],
            "given": [
              "Ex"
            ],
            "family": "Ample"
          }
        ],
        "address": [
          {
            "line": [
              "Laboratoire Central Europenne",
              "Boulevard du Jardin Botanique 32"
            ],
            "postalCode": "1000",
            "city": "Brussels",
            "country": "Belgium"
          }
        ],
        "text": {
          "status": "generated",
          "div": "<div xmlns=\"http://www.w3.org/1999/xhtml\">Laboratory: Laboratoire Central Europenne, 1000 Brussels, Belgium</div>"
        }
      }
    }
  ],
  "type": "document",
  "timestamp": "2016-07-29T06:48:18Z"
}
