<Bundle xmlns="http://hl7.org/fhir">
   <id value="5044868c-3b3d-49d7-b89f-11aba075bbf4"/>
   <meta>
      <profile value="http://hl7.eu/fhir/laboratory/StructureDefinition/Bundle-eu-lab"/>
   </meta>
   <identifier>
      <system value="urn:oid:2.16.840.1.113883.2.51.999"/>
      <value value="ea1beaae-9248-49d6-869e-f954c578424d"/>
      <assigner>
         <display value="HL7 Europe"/>
      </assigner>
   </identifier>
   <type value="document"/>
   <timestamp value="2016-03-07T06:47:02Z"/>
   <entry>
      <fullUrl value="urn:uuid:718abb0f-a757-4f0d-be52-c464225ab387"/>
      <resource>
         <Composition>
            <id value="718abb0f-a757-4f0d-be52-c464225ab387"/>
            <meta>
               <profile value="http://hl7.eu/fhir/laboratory/StructureDefinition/Composition-eu-lab"/>
            </meta>
            <identifier>
               <system value="urn:oid:2.16.840.1.113883.2.51.999"/>
               <value value="a1ea8869-5d3a-4d97-a9d2-41c716fea60e"/>
               <assigner>
                  <display value="HL7 Europe"/>
               </assigner>
            </identifier>
            <status value="final"/>
            <type>
               <coding>
                  <system value="http://loinc.org"/>
                  <code value="11502-2"/>
                  <display value="Laboratory report"/>
               </coding>
               <text value="Laboratory Report"/>
            </type>
            <category>
               <coding>
                  <system value="http://loinc.org"/>
                  <code value="26436-6"/>
                  <display value="Laboratory studies (set)"/>
               </coding>
            </category>
            <subject>
               <reference value="urn:uuid:4739ccb3-ef13-4542-8f4f-a0710415b64b"/>
               <display value="Eileen Taylor"/>
            </subject>
            <date value="2016-03-07T06:47:02Z"/>
            <author>
               <reference value="urn:uuid:85c6e4fb-c54d-46a6-a865-48ef09f18327"/>
            </author>
            <title value="Laboratory Report"/>
            <confidentiality value="N"/>
            <section>
               <title value="Laboratory Report"/>
               <code>
                  <coding>
                     <system value="http://loinc.org"/>
                     <code value="26436-6"/>
                     <display value="Laboratory studies (set)"/>
                  </coding>
                  <text value="Laboratory studies"/>
               </code>
               <section>
                  <title value="Hematology"/>
                  <code>
                     <coding>
                        <system value="http://loinc.org"/>
                        <code value="$18723-7"/>
                        <display value="Hematology studies (set)"/>
                     </coding>
                     <text value="Hematology"/>
                  </code>
                  <text>
                     <status value="generated"/>
                     <div xmlns="http://www.w3.org/1999/xhtml">
                        <h3>Hematology</h3>
                        <table class="hl7__eu__lab__report">
                           <thead>
                              <tr>
                                 <th>Test</th>
                                 <th>07-MAR-2016</th>
                                 <th>Reference Range</th>
                                 <th>Unit</th>
                              </tr>
                           </thead>
                           <tbody>
                              <tr>
                                 <td>Leukocytes [#/volume] in Blood by Automated count</td>
                                 <td>8.6</td>
                                 <td>4 - 11</td>
                                 <td>10*3/uL</td>
                              </tr>
                              <tr>
                                 <td>Erythrocytes [#/volume] in Blood by Automated count</td>
                                 <td>5.2</td>
                                 <td>3.4 - 5.2</td>
                                 <td>10*6/uL</td>
                              </tr>
                              <tr>
                                 <td>Hemoglobin [Mass/volume] in Blood</td>
                                 <td>13.4</td>
                                 <td>12 - 16</td>
                                 <td>g/dL</td>
                              </tr>
                              <tr>
                                 <td>Hematocrit [Volume Fraction] of Blood by Automated count</td>
                                 <td>44.7</td>
                                 <td>38 - 54</td>
                                 <td>%</td>
                              </tr>
                              <tr>
                                 <td>MCV [Entitic volume] by Automated count</td>
                                 <td>92.8</td>
                                 <td>82 - 98</td>
                                 <td>fL</td>
                              </tr>
                              <tr>
                                 <td>MCH [Entitic mass] by Automated count</td>
                                 <td>30.1</td>
                                 <td>27 - 33</td>
                                 <td>pg</td>
                              </tr>
                              <tr>
                                 <td>MCHC [Mass/volume] by Automated count</td>
                                 <td>
                                    <strong>35.6 H</strong>
                                 </td>
                                 <td>31 - 35</td>
                                 <td>g/dL</td>
                              </tr>
                              <tr>
                                 <td>Erythrocyte distribution width [Entitic volume] by Automated count</td>
                                 <td>41.1</td>
                                 <td>36 - 56</td>
                                 <td>fL</td>
                              </tr>
                              <tr>
                                 <td>Platelets [#/volume] in Blood by Automated count</td>
                                 <td>400.4</td>
                                 <td>157 - 415</td>
                                 <td>10*3/uL</td>
                              </tr>
                              <tr>
                                 <td>Platelet distribution width [Entitic volume] in Blood by Automated count</td>
                                 <td>
                                    <strong>374.8 H</strong>
                                 </td>
                                 <td>13.4 - 17.4</td>
                                 <td>fL</td>
                              </tr>
                              <tr>
                                 <td>Platelet mean volume [Entitic volume] in Blood by Automated count</td>
                                 <td>12.1</td>
                                 <td>9.8 - 13.8</td>
                                 <td>fL</td>
                              </tr>
                           </tbody>
                        </table>
                     </div>
                  </text>
                  <entry>
                     <reference value="urn:uuid:e2e802fa-01a5-45f4-8f52-8cb9357d047c"/>
                  </entry>
                  <entry>
                     <reference value="urn:uuid:76ac902d-dfbd-4024-8ac9-43066da5ba5a"/>
                  </entry>
                  <entry>
                     <reference value="urn:uuid:4df23727-db06-40a4-a435-99f52d9f59ec"/>
                  </entry>
                  <entry>
                     <reference value="urn:uuid:5b9381b3-d342-4d2e-a365-28dd318eba0b"/>
                  </entry>
                  <entry>
                     <reference value="urn:uuid:57334794-e561-4889-9330-4d8e2767b5c3"/>
                  </entry>
                  <entry>
                     <reference value="urn:uuid:f88b1b3d-4348-4fdb-9d36-250b11a2b180"/>
                  </entry>
                  <entry>
                     <reference value="urn:uuid:5c619b05-3f0f-4c89-ad22-ed4812a64ade"/>
                  </entry>
                  <entry>
                     <reference value="urn:uuid:e6cc1b61-e0c2-434b-80d5-8de75f27e1e2"/>
                  </entry>
                  <entry>
                     <reference value="urn:uuid:5de053b1-048f-4b38-81b7-8c7fc9d905ac"/>
                  </entry>
                  <entry>
                     <reference value="urn:uuid:8d7a7851-d8fb-4036-8306-abfed1879e13"/>
                  </entry>
                  <entry>
                     <reference value="urn:uuid:f8f0644b-10f8-4b5b-9065-f6ef7c79b7ad"/>
                  </entry>
               </section>
               <section>
                  <title value="Chemistry"/>
                  <code>
                     <coding>
                        <system value="http://loinc.org"/>
                        <code value="$18719-5"/>
                        <display value="Chemistry studies (set)"/>
                     </coding>
                     <text value="Chemistry"/>
                  </code>
                  <text>
                     <status value="generated"/>
                     <div xmlns="http://www.w3.org/1999/xhtml">
                        <h3>Chemistry</h3>
                        <table class="hl7__eu__lab__report">
                           <thead>
                              <tr>
                                 <th>Test</th>
                                 <th>07-MAR-2016</th>
                                 <th>Reference Range</th>
                                 <th>Unit</th>
                              </tr>
                           </thead>
                           <tbody>
                              <tr>
                                 <td>Cholesterol [Mass/volume] in Serum or Plasma</td>
                                 <td>188.1</td>
                                 <td>130 - 200</td>
                                 <td>mg/dL</td>
                              </tr>
                              <tr>
                                 <td>Triglyceride [Mass/volume] in Serum or Plasma</td>
                                 <td>103.8</td>
                                 <td>35 - 175</td>
                                 <td>mg/dL</td>
                              </tr>
                              <tr>
                                 <td>Cholesterol in LDL [Mass/volume] in Serum or Plasma by Direct assay</td>
                                 <td>117.0</td>
                                 <td>0 - 190</td>
                                 <td>mg/dL</td>
                              </tr>
                              <tr>
                                 <td>Cholesterol in HDL [Mass/volume] in Serum or Plasma</td>
                                 <td>50.4</td>
                                 <td>50 - 100</td>
                                 <td>mg/dL</td>
                              </tr>
                           </tbody>
                        </table>
                     </div>
                  </text>
                  <entry>
                     <reference value="urn:uuid:e79d328b-379f-43e7-8163-bcb1c1a6873c"/>
                  </entry>
                  <entry>
                     <reference value="urn:uuid:8e27b8c3-e4f8-4273-b8b5-b0e8b1612e0a"/>
                  </entry>
                  <entry>
                     <reference value="urn:uuid:c59517f3-1c2e-4dc4-859e-f5f28b79ff11"/>
                  </entry>
                  <entry>
                     <reference value="urn:uuid:8669a69a-2f1f-4e64-bd7d-68430031a2f9"/>
                  </entry>
               </section>
            </section>
            <section>
               <title value="Annotation comment"/>
               <code>
                  <coding>
                     <system value="http://loinc.org"/>
                     <code value="48767-8"/>
                     <display value="Annotation comment"/>
                  </coding>
               </code>
               <text>
                  <status value="generated"/>
                  <div xmlns="http://www.w3.org/1999/xhtml">
                     <h3>Annotation</h3>
                     <table class="hl7__eu__lab__report">
                        <tr>
                           <th>Conclusion and Recommendations based on this report and previous findings known to us</th>
                        </tr>
                        <tr>
                           <td>All measured values are within or close to normal ranges, except for a mildly elevated MCHC and a markedly high platelet distribution width, which may indicate some variation in platelet size but is of unclear clinical significance in isolation. Lipid profile and blood counts are otherwise unremarkable. No acute laboratory abnormalities detected; clinical correlation is recommended.</td>
                        </tr>
                     </table>
                  </div>
               </text>
            </section>
         </Composition>
      </resource>
   </entry>
   <entry>
      <fullUrl value="urn:uuid:5ab9f7d0-7d30-4366-a4c8-bd9cd0d806a7"/>
      <resource>
         <DiagnosticReport>
            <id value="5ab9f7d0-7d30-4366-a4c8-bd9cd0d806a7"/>
            <meta>
               <profile value="http://hl7.eu/fhir/laboratory/StructureDefinition/DiagnosticReport-eu-lab"/>
            </meta>
            <extension url="http://hl7.org/fhir/5.0/StructureDefinition/extension-DiagnosticReport.composition">
               <valueReference>
                  <reference value="urn:uuid:a1ea8869-5d3a-4d97-a9d2-41c716fea60e"/>
               </valueReference>
            </extension>
            <identifier>
               <system value="urn:oid:2.16.840.1.113883.2.51.999"/>
               <value value="8221f189-064a-4412-8533-055516521acb"/>
               <assigner>
                  <display value="HL7 Europe"/>
               </assigner>
            </identifier>
            <status value="registered"/>
            <category>
               <coding>
                  <system value="http://loinc.org"/>
                  <code value="26436-6"/>
                  <display value="Laboratory studies (set)"/>
               </coding>
            </category>
            <code>
               <coding>
                  <system value="http://loinc.org"/>
                  <code value="11502-2"/>
                  <display value="Laboratory report"/>
               </coding>
            </code>
            <subject>
               <reference value="urn:uuid:4739ccb3-ef13-4542-8f4f-a0710415b64b"/>
               <display value="Eileen Taylor"/>
            </subject>
            <specimen>
               <reference value="urn:uuid:05b67091-b433-4292-ae7c-335595222790"/>
            </specimen>
            <specimen>
               <reference value="urn:uuid:0b3c4e97-b104-4964-92ab-2f6545520752"/>
            </specimen>
            <specimen>
               <reference value="urn:uuid:0b3c4e97-b104-4964-92ab-2f6545520752"/>
            </specimen>
            <result>
               <reference value="urn:uuid:e79d328b-379f-43e7-8163-bcb1c1a6873c"/>
            </result>
            <result>
               <reference value="urn:uuid:8e27b8c3-e4f8-4273-b8b5-b0e8b1612e0a"/>
            </result>
            <result>
               <reference value="urn:uuid:c59517f3-1c2e-4dc4-859e-f5f28b79ff11"/>
            </result>
            <result>
               <reference value="urn:uuid:8669a69a-2f1f-4e64-bd7d-68430031a2f9"/>
            </result>
            <result>
               <reference value="urn:uuid:e2e802fa-01a5-45f4-8f52-8cb9357d047c"/>
            </result>
            <result>
               <reference value="urn:uuid:76ac902d-dfbd-4024-8ac9-43066da5ba5a"/>
            </result>
            <result>
               <reference value="urn:uuid:4df23727-db06-40a4-a435-99f52d9f59ec"/>
            </result>
            <result>
               <reference value="urn:uuid:5b9381b3-d342-4d2e-a365-28dd318eba0b"/>
            </result>
            <result>
               <reference value="urn:uuid:57334794-e561-4889-9330-4d8e2767b5c3"/>
            </result>
            <result>
               <reference value="urn:uuid:f88b1b3d-4348-4fdb-9d36-250b11a2b180"/>
            </result>
            <result>
               <reference value="urn:uuid:5c619b05-3f0f-4c89-ad22-ed4812a64ade"/>
            </result>
            <result>
               <reference value="urn:uuid:e6cc1b61-e0c2-434b-80d5-8de75f27e1e2"/>
            </result>
            <result>
               <reference value="urn:uuid:5de053b1-048f-4b38-81b7-8c7fc9d905ac"/>
            </result>
            <result>
               <reference value="urn:uuid:8d7a7851-d8fb-4036-8306-abfed1879e13"/>
            </result>
            <result>
               <reference value="urn:uuid:f8f0644b-10f8-4b5b-9065-f6ef7c79b7ad"/>
            </result>
         </DiagnosticReport>
      </resource>
   </entry>
   <entry>
      <fullUrl value="urn:uuid:4739ccb3-ef13-4542-8f4f-a0710415b64b"/>
      <resource>
         <Patient>
            <id value="4739ccb3-ef13-4542-8f4f-a0710415b64b"/>
            <meta>
               <profile value="http://hl7.eu/fhir/base/StructureDefinition/patient-eu-core"/>
               <security>
                  <system value="http://terminology.hl7.org/CodeSystem/v3-ActReason"/>
                  <code value="HTEST"/>
               </security>
               <security>
                  <system value="http://terminology.hl7.org/CodeSystem/v3-ActReason"/>
                  <code value="TRAIN"/>
               </security>
               <tag>
                  <system value="https://synderai.net/fhir/CodeSystem/tags"/>
                  <code value="synthetic"/>
                  <display value="SYNDERAI Synthetic data"/>
               </tag>
            </meta>
            <text>
               <status value="generated"/>
               <div xmlns="http://www.w3.org/1999/xhtml">
                  <table class="hl7__ips">
                     <tr>
                        <td>Eileen Taylor</td>
                        <td>female</td>
                        <td>11-Dec-1951</td>
                     </tr>
                  </table>
               </div>
            </text>
            <extension url="http://hl7.org/fhir/StructureDefinition/patient-nationality">
               <valueCodeableConcept>
                  <coding>
                     <system value="http://hl7.org/fhir/ValueSet/country"/>
                     <code value="GB"/>
                  </coding>
               </valueCodeableConcept>
            </extension>
            <identifier>
               <type>
                  <coding>
                     <system value="http://terminology.hl7.org/CodeSystem/v2-0203"/>
                     <code value="PT"/>
                  </coding>
               </type>
               <system value="http://ec.europa.eu/identifier/eci"/>
               <value value="6172-576075-7"/>
            </identifier>
            <identifier>
               <type>
                  <coding>
                     <system value="http://terminology.hl7.org/CodeSystem/v2-0203"/>
                     <code value="MR"/>
                  </coding>
               </type>
               <system value="http://local.setting.eu/identifier"/>
               <value value="f7f175da-cf0d-5686-8800-840d9ab7b47b"/>
            </identifier>
            <name>
               <family value="Taylor"/>
            </name>
            <name>
               <given value="Eileen"/>
            </name>
            <name>
               <text value="Eileen Taylor"/>
            </name>
            <telecom>
               <system value="phone"/>
               <value value="+44(0)1614960460"/>
            </telecom>
            <gender value="female"/>
            <birthDate value="1951-12-11"/>
            <address>
               <use value="home"/>
               <type value="physical"/>
               <line value="39 Slater harbors"/>
               <city value="Smithtown"/>
               <postalCode value="LE17"/>
               <country value="United Kingdom"/>
            </address>
         </Patient>
      </resource>
   </entry>
   <entry>
      <fullUrl value="urn:uuid:dab37464-34bd-4087-b9dd-7fe71d8637d9"/>
      <resource>
         <ServiceRequest>
            <id value="dab37464-34bd-4087-b9dd-7fe71d8637d9"/>
            <meta>
               <profile value="http://hl7.eu/fhir/laboratory/StructureDefinition/ServiceRequest-eu-lab"/>
            </meta>
            <identifier>
               <system value="http://example.org"/>
               <value value="2e8a049f-6b97-4279-8470-f7d96b639cb7"/>
            </identifier>
            <status value="active"/>
            <intent value="order"/>
            <code>
               <coding>
                  <system value="http://snomed.info/sct"/>
                  <code value="108252007"/>
                  <display value="Laboratory procedure"/>
               </coding>
            </code>
            <subject>
               <reference value="urn:uuid:4739ccb3-ef13-4542-8f4f-a0710415b64b"/>
               <display value="Eileen Taylor"/>
            </subject>
            <requester>
               <reference value="urn:uuid:43952b38-1bd8-49da-a960-9b2735ee5aa2"/>
            </requester>
            <reasonCode>
               <coding>
                  <system value="http://snomed.info/sct"/>
                  <code value="203082005"/>
                  <display value="Fibromyalgia"/>
               </coding>
            </reasonCode>
            <reasonCode>
               <coding>
                  <system value="http://snomed.info/sct"/>
                  <code value="239873007"/>
                  <display value="Osteoarthritis of knee"/>
               </coding>
            </reasonCode>
            <reasonCode>
               <coding>
                  <system value="http://snomed.info/sct"/>
                  <code value="55822004"/>
                  <display value="Hyperlipidemia"/>
               </coding>
            </reasonCode>
            <reasonCode>
               <coding>
                  <system value="http://snomed.info/sct"/>
                  <code value="254837009"/>
                  <display value="Malignant neoplasm of breast"/>
               </coding>
            </reasonCode>
            <reasonCode>
               <coding>
                  <system value="http://snomed.info/sct"/>
                  <code value="197927001"/>
                  <display value="Recurrent urinary tract infection"/>
               </coding>
            </reasonCode>
            <specimen>
               <reference value="urn:uuid:05b67091-b433-4292-ae7c-335595222790"/>
            </specimen>
            <specimen>
               <reference value="urn:uuid:0b3c4e97-b104-4964-92ab-2f6545520752"/>
            </specimen>
         </ServiceRequest>
      </resource>
   </entry>
   <entry>
      <fullUrl value="urn:uuid:43952b38-1bd8-49da-a960-9b2735ee5aa2"/>
      <resource>
         <PractitionerRole>
            <id value="43952b38-1bd8-49da-a960-9b2735ee5aa2"/>
            <meta>
               <profile value="http://hl7.eu/fhir/base/StructureDefinition/practitionerRole-eu"/>
            </meta>
            <text>
               <status value="generated"/>
               <div xmlns="http://www.w3.org/1999/xhtml">Provider Role Id: 43952b38-1bd8-49da-a960-9b2735ee5aa2</div>
            </text>
            <organization>
               <reference value="urn:uuid:44cf0138-f2a5-4bca-950f-dba532414337"/>
            </organization>
         </PractitionerRole>
      </resource>
   </entry>
   <entry>
      <fullUrl value="urn:uuid:44cf0138-f2a5-4bca-950f-dba532414337"/>
      <resource>
         <Organization>
            <id value="44cf0138-f2a5-4bca-950f-dba532414337"/>
            <meta>
               <profile value="http://hl7.eu/fhir/base/StructureDefinition/organization-eu"/>
            </meta>
            <text>
               <status value="generated"/>
               <div xmlns="http://www.w3.org/1999/xhtml">Provider Organization: Leicester Royal Infirmary</div>
            </text>
            <identifier>
               <system value="urn:oid:2.16.840.1.113883.2.51.999"/>
               <value value="41ebc3f3-6fc8-4094-bbac-f6742f82a9b6"/>
               <assigner>
                  <display value="HL7 Europe"/>
               </assigner>
            </identifier>
            <name value="Leicester Royal Infirmary"/>
            <address>
               <city value="Leicester"/>
               <postalCode value="LE2 7"/>
               <country value="United Kingdom"/>
            </address>
         </Organization>
      </resource>
   </entry>
   <entry>
      <fullUrl value="urn:uuid:05b67091-b433-4292-ae7c-335595222790"/>
      <resource>
         <Specimen>
            <id value="05b67091-b433-4292-ae7c-335595222790"/>
            <meta>
               <profile value="http://hl7.eu/fhir/laboratory/StructureDefinition/Specimen-eu-lab"/>
            </meta>
            <text>
               <status value="generated"/>
               <div xmlns="http://www.w3.org/1999/xhtml">
                  <table class="hl7__eu__lab__report">
                     <tr>
                        <th>Specimen</th>
                        <th>Collection Date</th>
                     </tr>
                     <tr>
                        <td>Acellular blood (serum or plasma) specimen</td>
                        <td>
                           <span class="nb">07-Mar-2016</span>
                        </td>
                     </tr>
                  </table>
               </div>
            </text>
            <type>
               <coding>
                  <system value="http://snomed.info/sct"/>
                  <code value="122592007"/>
                  <display value="Acellular blood (serum or plasma) specimen"/>
               </coding>
            </type>
            <collection>
               <collectedDateTime value="2016-03-07"/>
            </collection>
         </Specimen>
      </resource>
   </entry>
   <entry>
      <fullUrl value="urn:uuid:0b3c4e97-b104-4964-92ab-2f6545520752"/>
      <resource>
         <Specimen>
            <id value="0b3c4e97-b104-4964-92ab-2f6545520752"/>
            <meta>
               <profile value="http://hl7.eu/fhir/laboratory/StructureDefinition/Specimen-eu-lab"/>
            </meta>
            <text>
               <status value="generated"/>
               <div xmlns="http://www.w3.org/1999/xhtml">
                  <table class="hl7__eu__lab__report">
                     <tr>
                        <th>Specimen</th>
                        <th>Collection Date</th>
                     </tr>
                     <tr>
                        <td>Whole blood specimen (specimen)</td>
                        <td>
                           <span class="nb">07-Mar-2016</span>
                        </td>
                     </tr>
                  </table>
               </div>
            </text>
            <type>
               <coding>
                  <system value="http://snomed.info/sct"/>
                  <code value="258580003"/>
                  <display value="Whole blood specimen (specimen)"/>
               </coding>
            </type>
            <collection>
               <collectedDateTime value="2016-03-07"/>
            </collection>
         </Specimen>
      </resource>
   </entry>
   <entry>
      <fullUrl value="urn:uuid:0b3c4e97-b104-4964-92ab-2f6545520752"/>
      <resource>
         <Specimen>
            <id value="0b3c4e97-b104-4964-92ab-2f6545520752"/>
            <meta>
               <profile value="http://hl7.eu/fhir/laboratory/StructureDefinition/Specimen-eu-lab"/>
            </meta>
            <text>
               <status value="generated"/>
               <div xmlns="http://www.w3.org/1999/xhtml">
                  <table class="hl7__eu__lab__report">
                     <tr>
                        <th>Specimen</th>
                        <th>Collection Date</th>
                     </tr>
                     <tr>
                        <td>Whole blood specimen (specimen)</td>
                        <td>
                           <span class="nb">07-Mar-2016</span>
                        </td>
                     </tr>
                  </table>
               </div>
            </text>
            <type>
               <coding>
                  <system value="http://snomed.info/sct"/>
                  <code value="258580003"/>
                  <display value="Whole blood specimen (specimen)"/>
               </coding>
            </type>
            <collection>
               <collectedDateTime value="2016-03-07"/>
            </collection>
         </Specimen>
      </resource>
   </entry>
   <entry>
      <fullUrl value="urn:uuid:e79d328b-379f-43e7-8163-bcb1c1a6873c"/>
      <resource>
         <Observation>
            <id value="e79d328b-379f-43e7-8163-bcb1c1a6873c"/>
            <meta>
               <profile value="http://hl7.eu/fhir/laboratory/StructureDefinition/Observation-resultslab-eu-lab"/>
            </meta>
            <text>
               <status value="generated"/>
               <div xmlns="http://www.w3.org/1999/xhtml">
                  <table class="hl7__eu__lab__report">
                     <tr>
                        <th>Test</th>
                        <th>07-Mar-2016</th>
                        <th>Reference Range</th>
                        <th>Unit</th>
                     </tr>
                     <tr>
                        <td>Cholesterol [Mass/volume] in Serum or Plasma</td>
                        <td>188.1</td>
                        <td>130 - 200</td>
                        <td/>
                        <td>mg/dL</td>
                     </tr>
                  </table>
               </div>
            </text>
            <status value="final"/>
            <category>
               <coding>
                  <system value="http://terminology.hl7.org/CodeSystem/observation-category"/>
                  <code value="laboratory"/>
               </coding>
            </category>
            <code>
               <coding>
                  <system value="http://loinc.org"/>
                  <code value="2093-3"/>
                  <display value="Cholesterol [Mass/volume] in Serum or Plasma"/>
               </coding>
               <text value="Cholesterol [Mass/volume] in Serum or Plasma"/>
            </code>
            <subject>
               <reference value="urn:uuid:4739ccb3-ef13-4542-8f4f-a0710415b64b"/>
               <display value="Eileen Taylor"/>
            </subject>
            <effectiveDateTime value="2016-03-07T05:47:02Z"/>
            <performer>
               <display value="The Central European Lab"/>
            </performer>
            <valueQuantity>
               <value value="188.1"/>
               <unit value="mg/dL"/>
               <system value="http://unitsofmeasure.org"/>
               <code value="mg/dL"/>
            </valueQuantity>
            <specimen>
               <reference value="urn:uuid:05b67091-b433-4292-ae7c-335595222790"/>
            </specimen>
            <referenceRange>
               <low>
                  <value value="130"/>
                  <system value="http://unitsofmeasure.org"/>
                  <code value="mg/dL"/>
               </low>
            </referenceRange>
            <referenceRange>
               <high>
                  <value value="200"/>
                  <system value="http://unitsofmeasure.org"/>
                  <code value="mg/dL"/>
               </high>
            </referenceRange>
         </Observation>
      </resource>
   </entry>
   <entry>
      <fullUrl value="urn:uuid:8e27b8c3-e4f8-4273-b8b5-b0e8b1612e0a"/>
      <resource>
         <Observation>
            <id value="8e27b8c3-e4f8-4273-b8b5-b0e8b1612e0a"/>
            <meta>
               <profile value="http://hl7.eu/fhir/laboratory/StructureDefinition/Observation-resultslab-eu-lab"/>
            </meta>
            <text>
               <status value="generated"/>
               <div xmlns="http://www.w3.org/1999/xhtml">
                  <table class="hl7__eu__lab__report">
                     <tr>
                        <th>Test</th>
                        <th>07-Mar-2016</th>
                        <th>Reference Range</th>
                        <th>Unit</th>
                     </tr>
                     <tr>
                        <td>Triglyceride [Mass/volume] in Serum or Plasma</td>
                        <td>103.8</td>
                        <td>35 - 175</td>
                        <td/>
                        <td>mg/dL</td>
                     </tr>
                  </table>
               </div>
            </text>
            <status value="final"/>
            <category>
               <coding>
                  <system value="http://terminology.hl7.org/CodeSystem/observation-category"/>
                  <code value="laboratory"/>
               </coding>
            </category>
            <code>
               <coding>
                  <system value="http://loinc.org"/>
                  <code value="2571-8"/>
                  <display value="Triglyceride [Mass/volume] in Serum or Plasma"/>
               </coding>
               <text value="Triglyceride [Mass/volume] in Serum or Plasma"/>
            </code>
            <subject>
               <reference value="urn:uuid:4739ccb3-ef13-4542-8f4f-a0710415b64b"/>
               <display value="Eileen Taylor"/>
            </subject>
            <effectiveDateTime value="2016-03-07T05:47:02Z"/>
            <performer>
               <display value="The Central European Lab"/>
            </performer>
            <valueQuantity>
               <value value="103.8"/>
               <unit value="mg/dL"/>
               <system value="http://unitsofmeasure.org"/>
               <code value="mg/dL"/>
            </valueQuantity>
            <specimen>
               <reference value="urn:uuid:05b67091-b433-4292-ae7c-335595222790"/>
            </specimen>
            <referenceRange>
               <low>
                  <value value="35"/>
                  <system value="http://unitsofmeasure.org"/>
                  <code value="mg/dL"/>
               </low>
            </referenceRange>
            <referenceRange>
               <high>
                  <value value="175"/>
                  <system value="http://unitsofmeasure.org"/>
                  <code value="mg/dL"/>
               </high>
            </referenceRange>
         </Observation>
      </resource>
   </entry>
   <entry>
      <fullUrl value="urn:uuid:c59517f3-1c2e-4dc4-859e-f5f28b79ff11"/>
      <resource>
         <Observation>
            <id value="c59517f3-1c2e-4dc4-859e-f5f28b79ff11"/>
            <meta>
               <profile value="http://hl7.eu/fhir/laboratory/StructureDefinition/Observation-resultslab-eu-lab"/>
            </meta>
            <text>
               <status value="generated"/>
               <div xmlns="http://www.w3.org/1999/xhtml">
                  <table class="hl7__eu__lab__report">
                     <tr>
                        <th>Test</th>
                        <th>07-Mar-2016</th>
                        <th>Reference Range</th>
                        <th>Unit</th>
                     </tr>
                     <tr>
                        <td>Cholesterol in LDL [Mass/volume] in Serum or Plasma by Direct assay</td>
                        <td>117.0</td>
                        <td>0 - 190</td>
                        <td/>
                        <td>mg/dL</td>
                     </tr>
                  </table>
               </div>
            </text>
            <status value="final"/>
            <category>
               <coding>
                  <system value="http://terminology.hl7.org/CodeSystem/observation-category"/>
                  <code value="laboratory"/>
               </coding>
            </category>
            <code>
               <coding>
                  <system value="http://loinc.org"/>
                  <code value="18262-6"/>
                  <display value="Cholesterol in LDL [Mass/volume] in Serum or Plasma by Direct assay"/>
               </coding>
               <text value="Cholesterol in LDL [Mass/volume] in Serum or Plasma by Direct assay"/>
            </code>
            <subject>
               <reference value="urn:uuid:4739ccb3-ef13-4542-8f4f-a0710415b64b"/>
               <display value="Eileen Taylor"/>
            </subject>
            <effectiveDateTime value="2016-03-07T05:47:02Z"/>
            <performer>
               <display value="The Central European Lab"/>
            </performer>
            <valueQuantity>
               <value value="117"/>
               <unit value="mg/dL"/>
               <system value="http://unitsofmeasure.org"/>
               <code value="mg/dL"/>
            </valueQuantity>
            <specimen>
               <reference value="urn:uuid:05b67091-b433-4292-ae7c-335595222790"/>
            </specimen>
            <referenceRange>
               <low>
                  <value value="0"/>
                  <system value="http://unitsofmeasure.org"/>
                  <code value="mg/dL"/>
               </low>
            </referenceRange>
            <referenceRange>
               <high>
                  <value value="190"/>
                  <system value="http://unitsofmeasure.org"/>
                  <code value="mg/dL"/>
               </high>
            </referenceRange>
         </Observation>
      </resource>
   </entry>
   <entry>
      <fullUrl value="urn:uuid:8669a69a-2f1f-4e64-bd7d-68430031a2f9"/>
      <resource>
         <Observation>
            <id value="8669a69a-2f1f-4e64-bd7d-68430031a2f9"/>
            <meta>
               <profile value="http://hl7.eu/fhir/laboratory/StructureDefinition/Observation-resultslab-eu-lab"/>
            </meta>
            <text>
               <status value="generated"/>
               <div xmlns="http://www.w3.org/1999/xhtml">
                  <table class="hl7__eu__lab__report">
                     <tr>
                        <th>Test</th>
                        <th>07-Mar-2016</th>
                        <th>Reference Range</th>
                        <th>Unit</th>
                     </tr>
                     <tr>
                        <td>Cholesterol in HDL [Mass/volume] in Serum or Plasma</td>
                        <td>50.4</td>
                        <td>50 - 100</td>
                        <td/>
                        <td>mg/dL</td>
                     </tr>
                  </table>
               </div>
            </text>
            <status value="final"/>
            <category>
               <coding>
                  <system value="http://terminology.hl7.org/CodeSystem/observation-category"/>
                  <code value="laboratory"/>
               </coding>
            </category>
            <code>
               <coding>
                  <system value="http://loinc.org"/>
                  <code value="2085-9"/>
                  <display value="Cholesterol in HDL [Mass/volume] in Serum or Plasma"/>
               </coding>
               <text value="Cholesterol in HDL [Mass/volume] in Serum or Plasma"/>
            </code>
            <subject>
               <reference value="urn:uuid:4739ccb3-ef13-4542-8f4f-a0710415b64b"/>
               <display value="Eileen Taylor"/>
            </subject>
            <effectiveDateTime value="2016-03-07T05:47:02Z"/>
            <performer>
               <display value="The Central European Lab"/>
            </performer>
            <valueQuantity>
               <value value="50.4"/>
               <unit value="mg/dL"/>
               <system value="http://unitsofmeasure.org"/>
               <code value="mg/dL"/>
            </valueQuantity>
            <specimen>
               <reference value="urn:uuid:05b67091-b433-4292-ae7c-335595222790"/>
            </specimen>
            <referenceRange>
               <low>
                  <value value="50"/>
                  <system value="http://unitsofmeasure.org"/>
                  <code value="mg/dL"/>
               </low>
            </referenceRange>
            <referenceRange>
               <high>
                  <value value="100"/>
                  <system value="http://unitsofmeasure.org"/>
                  <code value="mg/dL"/>
               </high>
            </referenceRange>
         </Observation>
      </resource>
   </entry>
   <entry>
      <fullUrl value="urn:uuid:e2e802fa-01a5-45f4-8f52-8cb9357d047c"/>
      <resource>
         <Observation>
            <id value="e2e802fa-01a5-45f4-8f52-8cb9357d047c"/>
            <meta>
               <profile value="http://hl7.eu/fhir/laboratory/StructureDefinition/Observation-resultslab-eu-lab"/>
            </meta>
            <text>
               <status value="generated"/>
               <div xmlns="http://www.w3.org/1999/xhtml">
                  <table class="hl7__eu__lab__report">
                     <tr>
                        <th>Test</th>
                        <th>07-Mar-2016</th>
                        <th>Reference Range</th>
                        <th>Unit</th>
                     </tr>
                     <tr>
                        <td>Leukocytes [#/volume] in Blood by Automated count</td>
                        <td>8.6</td>
                        <td>4 - 11</td>
                        <td/>
                        <td>10*3/uL</td>
                     </tr>
                  </table>
               </div>
            </text>
            <status value="final"/>
            <category>
               <coding>
                  <system value="http://terminology.hl7.org/CodeSystem/observation-category"/>
                  <code value="laboratory"/>
               </coding>
            </category>
            <code>
               <coding>
                  <system value="http://loinc.org"/>
                  <code value="6690-2"/>
                  <display value="Leukocytes [#/volume] in Blood by Automated count"/>
               </coding>
               <text value="Leukocytes [#/volume] in Blood by Automated count"/>
            </code>
            <subject>
               <reference value="urn:uuid:4739ccb3-ef13-4542-8f4f-a0710415b64b"/>
               <display value="Eileen Taylor"/>
            </subject>
            <effectiveDateTime value="2016-03-07T05:47:02Z"/>
            <performer>
               <display value="The Central European Lab"/>
            </performer>
            <valueQuantity>
               <value value="8.6"/>
               <unit value="10*3/uL"/>
               <system value="http://unitsofmeasure.org"/>
               <code value="10*3/uL"/>
            </valueQuantity>
            <specimen>
               <reference value="urn:uuid:0b3c4e97-b104-4964-92ab-2f6545520752"/>
            </specimen>
            <referenceRange>
               <low>
                  <value value="4"/>
                  <system value="http://unitsofmeasure.org"/>
                  <code value="10*3/uL"/>
               </low>
            </referenceRange>
            <referenceRange>
               <high>
                  <value value="11"/>
                  <system value="http://unitsofmeasure.org"/>
                  <code value="10*3/uL"/>
               </high>
            </referenceRange>
         </Observation>
      </resource>
   </entry>
   <entry>
      <fullUrl value="urn:uuid:76ac902d-dfbd-4024-8ac9-43066da5ba5a"/>
      <resource>
         <Observation>
            <id value="76ac902d-dfbd-4024-8ac9-43066da5ba5a"/>
            <meta>
               <profile value="http://hl7.eu/fhir/laboratory/StructureDefinition/Observation-resultslab-eu-lab"/>
            </meta>
            <text>
               <status value="generated"/>
               <div xmlns="http://www.w3.org/1999/xhtml">
                  <table class="hl7__eu__lab__report">
                     <tr>
                        <th>Test</th>
                        <th>07-Mar-2016</th>
                        <th>Reference Range</th>
                        <th>Unit</th>
                     </tr>
                     <tr>
                        <td>Erythrocytes [#/volume] in Blood by Automated count</td>
                        <td>5.2</td>
                        <td>3.4 - 5.2</td>
                        <td/>
                        <td>10*6/uL</td>
                     </tr>
                  </table>
               </div>
            </text>
            <status value="final"/>
            <category>
               <coding>
                  <system value="http://terminology.hl7.org/CodeSystem/observation-category"/>
                  <code value="laboratory"/>
               </coding>
            </category>
            <code>
               <coding>
                  <system value="http://loinc.org"/>
                  <code value="789-8"/>
                  <display value="Erythrocytes [#/volume] in Blood by Automated count"/>
               </coding>
               <text value="Erythrocytes [#/volume] in Blood by Automated count"/>
            </code>
            <subject>
               <reference value="urn:uuid:4739ccb3-ef13-4542-8f4f-a0710415b64b"/>
               <display value="Eileen Taylor"/>
            </subject>
            <effectiveDateTime value="2016-03-07T05:47:02Z"/>
            <performer>
               <display value="The Central European Lab"/>
            </performer>
            <valueQuantity>
               <value value="5.2"/>
               <unit value="10*6/uL"/>
               <system value="http://unitsofmeasure.org"/>
               <code value="10*6/uL"/>
            </valueQuantity>
            <specimen>
               <reference value="urn:uuid:0b3c4e97-b104-4964-92ab-2f6545520752"/>
            </specimen>
            <referenceRange>
               <low>
                  <value value="3.4"/>
                  <system value="http://unitsofmeasure.org"/>
                  <code value="10*6/uL"/>
               </low>
            </referenceRange>
            <referenceRange>
               <high>
                  <value value="5.2"/>
                  <system value="http://unitsofmeasure.org"/>
                  <code value="10*6/uL"/>
               </high>
            </referenceRange>
         </Observation>
      </resource>
   </entry>
   <entry>
      <fullUrl value="urn:uuid:4df23727-db06-40a4-a435-99f52d9f59ec"/>
      <resource>
         <Observation>
            <id value="4df23727-db06-40a4-a435-99f52d9f59ec"/>
            <meta>
               <profile value="http://hl7.eu/fhir/laboratory/StructureDefinition/Observation-resultslab-eu-lab"/>
            </meta>
            <text>
               <status value="generated"/>
               <div xmlns="http://www.w3.org/1999/xhtml">
                  <table class="hl7__eu__lab__report">
                     <tr>
                        <th>Test</th>
                        <th>07-Mar-2016</th>
                        <th>Reference Range</th>
                        <th>Unit</th>
                     </tr>
                     <tr>
                        <td>Hemoglobin [Mass/volume] in Blood</td>
                        <td>13.4</td>
                        <td>12 - 16</td>
                        <td/>
                        <td>g/dL</td>
                     </tr>
                  </table>
               </div>
            </text>
            <status value="final"/>
            <category>
               <coding>
                  <system value="http://terminology.hl7.org/CodeSystem/observation-category"/>
                  <code value="laboratory"/>
               </coding>
            </category>
            <code>
               <coding>
                  <system value="http://loinc.org"/>
                  <code value="718-7"/>
                  <display value="Hemoglobin [Mass/volume] in Blood"/>
               </coding>
               <text value="Hemoglobin [Mass/volume] in Blood"/>
            </code>
            <subject>
               <reference value="urn:uuid:4739ccb3-ef13-4542-8f4f-a0710415b64b"/>
               <display value="Eileen Taylor"/>
            </subject>
            <effectiveDateTime value="2016-03-07T05:47:02Z"/>
            <performer>
               <display value="The Central European Lab"/>
            </performer>
            <valueQuantity>
               <value value="13.4"/>
               <unit value="g/dL"/>
               <system value="http://unitsofmeasure.org"/>
               <code value="g/dL"/>
            </valueQuantity>
            <specimen>
               <reference value="urn:uuid:0b3c4e97-b104-4964-92ab-2f6545520752"/>
            </specimen>
            <referenceRange>
               <low>
                  <value value="12"/>
                  <system value="http://unitsofmeasure.org"/>
                  <code value="g/dL"/>
               </low>
            </referenceRange>
            <referenceRange>
               <high>
                  <value value="16"/>
                  <system value="http://unitsofmeasure.org"/>
                  <code value="g/dL"/>
               </high>
            </referenceRange>
         </Observation>
      </resource>
   </entry>
   <entry>
      <fullUrl value="urn:uuid:5b9381b3-d342-4d2e-a365-28dd318eba0b"/>
      <resource>
         <Observation>
            <id value="5b9381b3-d342-4d2e-a365-28dd318eba0b"/>
            <meta>
               <profile value="http://hl7.eu/fhir/laboratory/StructureDefinition/Observation-resultslab-eu-lab"/>
            </meta>
            <text>
               <status value="generated"/>
               <div xmlns="http://www.w3.org/1999/xhtml">
                  <table class="hl7__eu__lab__report">
                     <tr>
                        <th>Test</th>
                        <th>07-Mar-2016</th>
                        <th>Reference Range</th>
                        <th>Unit</th>
                     </tr>
                     <tr>
                        <td>Hematocrit [Volume Fraction] of Blood by Automated count</td>
                        <td>44.7</td>
                        <td>38 - 54</td>
                        <td/>
                        <td>%</td>
                     </tr>
                  </table>
               </div>
            </text>
            <status value="final"/>
            <category>
               <coding>
                  <system value="http://terminology.hl7.org/CodeSystem/observation-category"/>
                  <code value="laboratory"/>
               </coding>
            </category>
            <code>
               <coding>
                  <system value="http://loinc.org"/>
                  <code value="4544-3"/>
                  <display value="Hematocrit [Volume Fraction] of Blood by Automated count"/>
               </coding>
               <text value="Hematocrit [Volume Fraction] of Blood by Automated count"/>
            </code>
            <subject>
               <reference value="urn:uuid:4739ccb3-ef13-4542-8f4f-a0710415b64b"/>
               <display value="Eileen Taylor"/>
            </subject>
            <effectiveDateTime value="2016-03-07T05:47:02Z"/>
            <performer>
               <display value="The Central European Lab"/>
            </performer>
            <valueQuantity>
               <value value="44.7"/>
               <unit value="%"/>
               <system value="http://unitsofmeasure.org"/>
               <code value="%"/>
            </valueQuantity>
            <specimen>
               <reference value="urn:uuid:0b3c4e97-b104-4964-92ab-2f6545520752"/>
            </specimen>
            <referenceRange>
               <low>
                  <value value="38"/>
                  <system value="http://unitsofmeasure.org"/>
                  <code value="%"/>
               </low>
            </referenceRange>
            <referenceRange>
               <high>
                  <value value="54"/>
                  <system value="http://unitsofmeasure.org"/>
                  <code value="%"/>
               </high>
            </referenceRange>
         </Observation>
      </resource>
   </entry>
   <entry>
      <fullUrl value="urn:uuid:57334794-e561-4889-9330-4d8e2767b5c3"/>
      <resource>
         <Observation>
            <id value="57334794-e561-4889-9330-4d8e2767b5c3"/>
            <meta>
               <profile value="http://hl7.eu/fhir/laboratory/StructureDefinition/Observation-resultslab-eu-lab"/>
            </meta>
            <text>
               <status value="generated"/>
               <div xmlns="http://www.w3.org/1999/xhtml">
                  <table class="hl7__eu__lab__report">
                     <tr>
                        <th>Test</th>
                        <th>07-Mar-2016</th>
                        <th>Reference Range</th>
                        <th>Unit</th>
                     </tr>
                     <tr>
                        <td>MCV [Entitic volume] by Automated count</td>
                        <td>92.8</td>
                        <td>82 - 98</td>
                        <td/>
                        <td>fL</td>
                     </tr>
                  </table>
               </div>
            </text>
            <status value="final"/>
            <category>
               <coding>
                  <system value="http://terminology.hl7.org/CodeSystem/observation-category"/>
                  <code value="laboratory"/>
               </coding>
            </category>
            <code>
               <coding>
                  <system value="http://loinc.org"/>
                  <code value="787-2"/>
                  <display value="MCV [Entitic volume] by Automated count"/>
               </coding>
               <text value="MCV [Entitic volume] by Automated count"/>
            </code>
            <subject>
               <reference value="urn:uuid:4739ccb3-ef13-4542-8f4f-a0710415b64b"/>
               <display value="Eileen Taylor"/>
            </subject>
            <effectiveDateTime value="2016-03-07T05:47:02Z"/>
            <performer>
               <display value="The Central European Lab"/>
            </performer>
            <valueQuantity>
               <value value="92.8"/>
               <unit value="fL"/>
               <system value="http://unitsofmeasure.org"/>
               <code value="fL"/>
            </valueQuantity>
            <specimen>
               <reference value="urn:uuid:0b3c4e97-b104-4964-92ab-2f6545520752"/>
            </specimen>
            <referenceRange>
               <low>
                  <value value="82"/>
                  <system value="http://unitsofmeasure.org"/>
                  <code value="fL"/>
               </low>
            </referenceRange>
            <referenceRange>
               <high>
                  <value value="98"/>
                  <system value="http://unitsofmeasure.org"/>
                  <code value="fL"/>
               </high>
            </referenceRange>
         </Observation>
      </resource>
   </entry>
   <entry>
      <fullUrl value="urn:uuid:f88b1b3d-4348-4fdb-9d36-250b11a2b180"/>
      <resource>
         <Observation>
            <id value="f88b1b3d-4348-4fdb-9d36-250b11a2b180"/>
            <meta>
               <profile value="http://hl7.eu/fhir/laboratory/StructureDefinition/Observation-resultslab-eu-lab"/>
            </meta>
            <text>
               <status value="generated"/>
               <div xmlns="http://www.w3.org/1999/xhtml">
                  <table class="hl7__eu__lab__report">
                     <tr>
                        <th>Test</th>
                        <th>07-Mar-2016</th>
                        <th>Reference Range</th>
                        <th>Unit</th>
                     </tr>
                     <tr>
                        <td>MCH [Entitic mass] by Automated count</td>
                        <td>30.1</td>
                        <td>27 - 33</td>
                        <td/>
                        <td>pg</td>
                     </tr>
                  </table>
               </div>
            </text>
            <status value="final"/>
            <category>
               <coding>
                  <system value="http://terminology.hl7.org/CodeSystem/observation-category"/>
                  <code value="laboratory"/>
               </coding>
            </category>
            <code>
               <coding>
                  <system value="http://loinc.org"/>
                  <code value="785-6"/>
                  <display value="MCH [Entitic mass] by Automated count"/>
               </coding>
               <text value="MCH [Entitic mass] by Automated count"/>
            </code>
            <subject>
               <reference value="urn:uuid:4739ccb3-ef13-4542-8f4f-a0710415b64b"/>
               <display value="Eileen Taylor"/>
            </subject>
            <effectiveDateTime value="2016-03-07T05:47:02Z"/>
            <performer>
               <display value="The Central European Lab"/>
            </performer>
            <valueQuantity>
               <value value="30.1"/>
               <unit value="pg"/>
               <system value="http://unitsofmeasure.org"/>
               <code value="pg"/>
            </valueQuantity>
            <specimen>
               <reference value="urn:uuid:0b3c4e97-b104-4964-92ab-2f6545520752"/>
            </specimen>
            <referenceRange>
               <low>
                  <value value="27"/>
                  <system value="http://unitsofmeasure.org"/>
                  <code value="pg"/>
               </low>
            </referenceRange>
            <referenceRange>
               <high>
                  <value value="33"/>
                  <system value="http://unitsofmeasure.org"/>
                  <code value="pg"/>
               </high>
            </referenceRange>
         </Observation>
      </resource>
   </entry>
   <entry>
      <fullUrl value="urn:uuid:5c619b05-3f0f-4c89-ad22-ed4812a64ade"/>
      <resource>
         <Observation>
            <id value="5c619b05-3f0f-4c89-ad22-ed4812a64ade"/>
            <meta>
               <profile value="http://hl7.eu/fhir/laboratory/StructureDefinition/Observation-resultslab-eu-lab"/>
            </meta>
            <text>
               <status value="generated"/>
               <div xmlns="http://www.w3.org/1999/xhtml">
                  <table class="hl7__eu__lab__report">
                     <tr>
                        <th>Test</th>
                        <th>07-Mar-2016</th>
                        <th>Reference Range</th>
                        <th>Unit</th>
                     </tr>
                     <tr>
                        <td>MCHC [Mass/volume] by Automated count</td>
                        <td>35.6</td>
                        <td>31 - 35</td>
                        <td>H</td>
                        <td>g/dL</td>
                     </tr>
                  </table>
               </div>
            </text>
            <status value="final"/>
            <category>
               <coding>
                  <system value="http://terminology.hl7.org/CodeSystem/observation-category"/>
                  <code value="laboratory"/>
               </coding>
            </category>
            <code>
               <coding>
                  <system value="http://loinc.org"/>
                  <code value="786-4"/>
                  <display value="MCHC [Mass/volume] by Automated count"/>
               </coding>
               <text value="MCHC [Mass/volume] by Automated count"/>
            </code>
            <subject>
               <reference value="urn:uuid:4739ccb3-ef13-4542-8f4f-a0710415b64b"/>
               <display value="Eileen Taylor"/>
            </subject>
            <effectiveDateTime value="2016-03-07T05:47:02Z"/>
            <performer>
               <display value="The Central European Lab"/>
            </performer>
            <valueQuantity>
               <value value="35.6"/>
               <unit value="g/dL"/>
               <system value="http://unitsofmeasure.org"/>
               <code value="g/dL"/>
            </valueQuantity>
            <interpretation>
               <coding>
                  <system value="http://terminology.hl7.org/CodeSystem/v3-ObservationInterpretation"/>
                  <code value="H"/>
                  <display value="High"/>
               </coding>
            </interpretation>
            <specimen>
               <reference value="urn:uuid:0b3c4e97-b104-4964-92ab-2f6545520752"/>
            </specimen>
            <referenceRange>
               <low>
                  <value value="31"/>
                  <system value="http://unitsofmeasure.org"/>
                  <code value="g/dL"/>
               </low>
            </referenceRange>
            <referenceRange>
               <high>
                  <value value="35"/>
                  <system value="http://unitsofmeasure.org"/>
                  <code value="g/dL"/>
               </high>
            </referenceRange>
         </Observation>
      </resource>
   </entry>
   <entry>
      <fullUrl value="urn:uuid:e6cc1b61-e0c2-434b-80d5-8de75f27e1e2"/>
      <resource>
         <Observation>
            <id value="e6cc1b61-e0c2-434b-80d5-8de75f27e1e2"/>
            <meta>
               <profile value="http://hl7.eu/fhir/laboratory/StructureDefinition/Observation-resultslab-eu-lab"/>
            </meta>
            <text>
               <status value="generated"/>
               <div xmlns="http://www.w3.org/1999/xhtml">
                  <table class="hl7__eu__lab__report">
                     <tr>
                        <th>Test</th>
                        <th>07-Mar-2016</th>
                        <th>Reference Range</th>
                        <th>Unit</th>
                     </tr>
                     <tr>
                        <td>Erythrocyte distribution width [Entitic volume] by Automated count</td>
                        <td>41.1</td>
                        <td>36 - 56</td>
                        <td/>
                        <td>fL</td>
                     </tr>
                  </table>
               </div>
            </text>
            <status value="final"/>
            <category>
               <coding>
                  <system value="http://terminology.hl7.org/CodeSystem/observation-category"/>
                  <code value="laboratory"/>
               </coding>
            </category>
            <code>
               <coding>
                  <system value="http://loinc.org"/>
                  <code value="21000-5"/>
                  <display value="Erythrocyte distribution width [Entitic volume] by Automated count"/>
               </coding>
               <text value="Erythrocyte distribution width [Entitic volume] by Automated count"/>
            </code>
            <subject>
               <reference value="urn:uuid:4739ccb3-ef13-4542-8f4f-a0710415b64b"/>
               <display value="Eileen Taylor"/>
            </subject>
            <effectiveDateTime value="2016-03-07T05:47:02Z"/>
            <performer>
               <display value="The Central European Lab"/>
            </performer>
            <valueQuantity>
               <value value="41.1"/>
               <unit value="fL"/>
               <system value="http://unitsofmeasure.org"/>
               <code value="fL"/>
            </valueQuantity>
            <specimen>
               <reference value="urn:uuid:0b3c4e97-b104-4964-92ab-2f6545520752"/>
            </specimen>
            <referenceRange>
               <low>
                  <value value="36"/>
                  <system value="http://unitsofmeasure.org"/>
                  <code value="fL"/>
               </low>
            </referenceRange>
            <referenceRange>
               <high>
                  <value value="56"/>
                  <system value="http://unitsofmeasure.org"/>
                  <code value="fL"/>
               </high>
            </referenceRange>
         </Observation>
      </resource>
   </entry>
   <entry>
      <fullUrl value="urn:uuid:5de053b1-048f-4b38-81b7-8c7fc9d905ac"/>
      <resource>
         <Observation>
            <id value="5de053b1-048f-4b38-81b7-8c7fc9d905ac"/>
            <meta>
               <profile value="http://hl7.eu/fhir/laboratory/StructureDefinition/Observation-resultslab-eu-lab"/>
            </meta>
            <text>
               <status value="generated"/>
               <div xmlns="http://www.w3.org/1999/xhtml">
                  <table class="hl7__eu__lab__report">
                     <tr>
                        <th>Test</th>
                        <th>07-Mar-2016</th>
                        <th>Reference Range</th>
                        <th>Unit</th>
                     </tr>
                     <tr>
                        <td>Platelets [#/volume] in Blood by Automated count</td>
                        <td>400.4</td>
                        <td>157 - 415</td>
                        <td/>
                        <td>10*3/uL</td>
                     </tr>
                  </table>
               </div>
            </text>
            <status value="final"/>
            <category>
               <coding>
                  <system value="http://terminology.hl7.org/CodeSystem/observation-category"/>
                  <code value="laboratory"/>
               </coding>
            </category>
            <code>
               <coding>
                  <system value="http://loinc.org"/>
                  <code value="777-3"/>
                  <display value="Platelets [#/volume] in Blood by Automated count"/>
               </coding>
               <text value="Platelets [#/volume] in Blood by Automated count"/>
            </code>
            <subject>
               <reference value="urn:uuid:4739ccb3-ef13-4542-8f4f-a0710415b64b"/>
               <display value="Eileen Taylor"/>
            </subject>
            <effectiveDateTime value="2016-03-07T05:47:02Z"/>
            <performer>
               <display value="The Central European Lab"/>
            </performer>
            <valueQuantity>
               <value value="400.4"/>
               <unit value="10*3/uL"/>
               <system value="http://unitsofmeasure.org"/>
               <code value="10*3/uL"/>
            </valueQuantity>
            <specimen>
               <reference value="urn:uuid:0b3c4e97-b104-4964-92ab-2f6545520752"/>
            </specimen>
            <referenceRange>
               <low>
                  <value value="157"/>
                  <system value="http://unitsofmeasure.org"/>
                  <code value="10*3/uL"/>
               </low>
            </referenceRange>
            <referenceRange>
               <high>
                  <value value="415"/>
                  <system value="http://unitsofmeasure.org"/>
                  <code value="10*3/uL"/>
               </high>
            </referenceRange>
         </Observation>
      </resource>
   </entry>
   <entry>
      <fullUrl value="urn:uuid:8d7a7851-d8fb-4036-8306-abfed1879e13"/>
      <resource>
         <Observation>
            <id value="8d7a7851-d8fb-4036-8306-abfed1879e13"/>
            <meta>
               <profile value="http://hl7.eu/fhir/laboratory/StructureDefinition/Observation-resultslab-eu-lab"/>
            </meta>
            <text>
               <status value="generated"/>
               <div xmlns="http://www.w3.org/1999/xhtml">
                  <table class="hl7__eu__lab__report">
                     <tr>
                        <th>Test</th>
                        <th>07-Mar-2016</th>
                        <th>Reference Range</th>
                        <th>Unit</th>
                     </tr>
                     <tr>
                        <td>Platelet distribution width [Entitic volume] in Blood by Automated count</td>
                        <td>374.8</td>
                        <td>13.4 - 17.4</td>
                        <td>H</td>
                        <td>fL</td>
                     </tr>
                  </table>
               </div>
            </text>
            <status value="final"/>
            <category>
               <coding>
                  <system value="http://terminology.hl7.org/CodeSystem/observation-category"/>
                  <code value="laboratory"/>
               </coding>
            </category>
            <code>
               <coding>
                  <system value="http://loinc.org"/>
                  <code value="32207-3"/>
                  <display value="Platelet distribution width [Entitic volume] in Blood by Automated count"/>
               </coding>
               <text value="Platelet distribution width [Entitic volume] in Blood by Automated count"/>
            </code>
            <subject>
               <reference value="urn:uuid:4739ccb3-ef13-4542-8f4f-a0710415b64b"/>
               <display value="Eileen Taylor"/>
            </subject>
            <effectiveDateTime value="2016-03-07T05:47:02Z"/>
            <performer>
               <display value="The Central European Lab"/>
            </performer>
            <valueQuantity>
               <value value="374.8"/>
               <unit value="fL"/>
               <system value="http://unitsofmeasure.org"/>
               <code value="fL"/>
            </valueQuantity>
            <interpretation>
               <coding>
                  <system value="http://terminology.hl7.org/CodeSystem/v3-ObservationInterpretation"/>
                  <code value="H"/>
                  <display value="High"/>
               </coding>
            </interpretation>
            <specimen>
               <reference value="urn:uuid:0b3c4e97-b104-4964-92ab-2f6545520752"/>
            </specimen>
            <referenceRange>
               <low>
                  <value value="13.4"/>
                  <system value="http://unitsofmeasure.org"/>
                  <code value="fL"/>
               </low>
            </referenceRange>
            <referenceRange>
               <high>
                  <value value="17.4"/>
                  <system value="http://unitsofmeasure.org"/>
                  <code value="fL"/>
               </high>
            </referenceRange>
         </Observation>
      </resource>
   </entry>
   <entry>
      <fullUrl value="urn:uuid:f8f0644b-10f8-4b5b-9065-f6ef7c79b7ad"/>
      <resource>
         <Observation>
            <id value="f8f0644b-10f8-4b5b-9065-f6ef7c79b7ad"/>
            <meta>
               <profile value="http://hl7.eu/fhir/laboratory/StructureDefinition/Observation-resultslab-eu-lab"/>
            </meta>
            <text>
               <status value="generated"/>
               <div xmlns="http://www.w3.org/1999/xhtml">
                  <table class="hl7__eu__lab__report">
                     <tr>
                        <th>Test</th>
                        <th>07-Mar-2016</th>
                        <th>Reference Range</th>
                        <th>Unit</th>
                     </tr>
                     <tr>
                        <td>Platelet mean volume [Entitic volume] in Blood by Automated count</td>
                        <td>12.1</td>
                        <td>9.8 - 13.8</td>
                        <td/>
                        <td>fL</td>
                     </tr>
                  </table>
               </div>
            </text>
            <status value="final"/>
            <category>
               <coding>
                  <system value="http://terminology.hl7.org/CodeSystem/observation-category"/>
                  <code value="laboratory"/>
               </coding>
            </category>
            <code>
               <coding>
                  <system value="http://loinc.org"/>
                  <code value="32623-1"/>
                  <display value="Platelet mean volume [Entitic volume] in Blood by Automated count"/>
               </coding>
               <text value="Platelet mean volume [Entitic volume] in Blood by Automated count"/>
            </code>
            <subject>
               <reference value="urn:uuid:4739ccb3-ef13-4542-8f4f-a0710415b64b"/>
               <display value="Eileen Taylor"/>
            </subject>
            <effectiveDateTime value="2016-03-07T05:47:02Z"/>
            <performer>
               <display value="The Central European Lab"/>
            </performer>
            <valueQuantity>
               <value value="12.1"/>
               <unit value="fL"/>
               <system value="http://unitsofmeasure.org"/>
               <code value="fL"/>
            </valueQuantity>
            <specimen>
               <reference value="urn:uuid:0b3c4e97-b104-4964-92ab-2f6545520752"/>
            </specimen>
            <referenceRange>
               <low>
                  <value value="9.8"/>
                  <system value="http://unitsofmeasure.org"/>
                  <code value="fL"/>
               </low>
            </referenceRange>
            <referenceRange>
               <high>
                  <value value="13.8"/>
                  <system value="http://unitsofmeasure.org"/>
                  <code value="fL"/>
               </high>
            </referenceRange>
         </Observation>
      </resource>
   </entry>
   <entry>
      <fullUrl value="urn:uuid:63355d8e-5103-4e0e-aad2-93377be628ff"/>
      <resource>
         <Device>
            <id value="63355d8e-5103-4e0e-aad2-93377be628ff"/>
            <text>
               <status value="generated"/>
               <div xmlns="http://www.w3.org/1999/xhtml">SYNDERAI Synthetic Generator v5.0</div>
            </text>
            <status value="active&#34;"/>
            <distinctIdentifier value="synderai-generator-50"/>
            <manufacturer value="SYNDERAI Project"/>
            <deviceName>
               <name value="SYNDERAI Synthetic Generator"/>
               <type value="manufacturer-name"/>
            </deviceName>
            <version>
               <value value="5.0"/>
            </version>
         </Device>
      </resource>
   </entry>
   <entry>
      <fullUrl value="urn:uuid:a6fe6724-5595-4a95-8fc5-9abaf70b37c4"/>
      <resource>
         <Provenance>
            <id value="a6fe6724-5595-4a95-8fc5-9abaf70b37c4"/>
            <text>
               <status value="generated"/>
               <div xmlns="http://www.w3.org/1999/xhtml">Provenance for SYNDERAI Synthetic Example Data Resource</div>
            </text>
            <target>
               <reference value="Patient/4739ccb3-ef13-4542-8f4f-a0710415b64b"/>
            </target>
            <target>
               <reference value="Bundle/5044868c-3b3d-49d7-b89f-11aba075bbf4"/>
            </target>
            <target>
               <reference value="Composition/718abb0f-a757-4f0d-be52-c464225ab387"/>
            </target>
            <target>
               <reference value="PractitionerRole/85c6e4fb-c54d-46a6-a865-48ef09f18327"/>
            </target>
            <target>
               <reference value="Practitioner/aec0cceb-f256-41dc-8d24-6406a64badfa"/>
            </target>
            <target>
               <reference value="PractitionerRole/43952b38-1bd8-49da-a960-9b2735ee5aa2"/>
            </target>
            <target>
               <reference value="Organization/44cf0138-f2a5-4bca-950f-dba532414337"/>
            </target>
            <recorded value="2016-03-07T06:47:02Z"/>
            <policy value="https://synderai.net/synderai-synthetic-data-policy"/>
            <reason>
               <text value="Interoperability Testing and Training (non-clinical use)"/>
            </reason>
            <activity>
               <text value="Synthetic Example Data Generation"/>
            </activity>
            <agent>
               <type>
                  <text value="author"/>
               </type>
               <who>
                  <reference value="Device/63355d8e-5103-4e0e-aad2-93377be628ff"/>
               </who>
            </agent>
         </Provenance>
      </resource>
   </entry>
   <entry>
      <fullUrl value="urn:uuid:85c6e4fb-c54d-46a6-a865-48ef09f18327"/>
      <resource>
         <PractitionerRole>
            <id value="85c6e4fb-c54d-46a6-a865-48ef09f18327"/>
            <meta>
               <profile value="http://hl7.eu/fhir/base/StructureDefinition/practitionerRole-eu"/>
            </meta>
            <text>
               <status value="generated"/>
               <div xmlns="http://www.w3.org/1999/xhtml">Laboratory Role Id: 85c6e4fb-c54d-46a6-a865-48ef09f18327</div>
            </text>
            <practitioner>
               <reference value="urn:uuid:aec0cceb-f256-41dc-8d24-6406a64badfa"/>
            </practitioner>
         </PractitionerRole>
      </resource>
   </entry>
   <entry>
      <fullUrl value="urn:uuid:aec0cceb-f256-41dc-8d24-6406a64badfa"/>
      <resource>
         <Practitioner>
            <id value="aec0cceb-f256-41dc-8d24-6406a64badfa"/>
            <meta>
               <profile value="http://hl7.eu/fhir/base/StructureDefinition/practitioner-eu"/>
            </meta>
            <text>
               <status value="generated"/>
               <div xmlns="http://www.w3.org/1999/xhtml">Laboratory: Laboratoire Central Européenne, 1000 Brussels, Belgium</div>
            </text>
            <identifier>
               <system value="urn:oid:2.16.840.1.113883.2.51.999"/>
               <value value="18c21f01-f748-45c5-84f0-f804bc88d42e"/>
               <assigner>
                  <display value="HL7 Europe"/>
               </assigner>
            </identifier>
            <name>
               <family value="Ample"/>
               <given value="Ex"/>
               <prefix value="dr"/>
            </name>
            <address>
               <line value="Laboratoire Central Européenne"/>
               <line value="Boulevard du Jardin Botanique 32"/>
               <city value="Brussels"/>
               <postalCode value="1000"/>
               <country value="Belgium"/>
            </address>
         </Practitioner>
      </resource>
   </entry>
</Bundle>