{
  "resourceType": "Bundle",
  "id": "f33fec61-0d4d-496d-843d-6e4ebb8b498a",
  "meta": {
    "profile": [
      "http://hl7.eu/fhir/laboratory/StructureDefinition/Bundle-eu-lab"
    ]
  },
  "identifier": {
    "assigner": {
      "display": "HL7 Europe"
    },
    "system": "urn:oid:2.16.840.1.113883.2.51.999",
    "value": "703103e0-5df5-4685-8281-186cded3c440"
  },
  "entry": [
    {
      "fullUrl": "urn:uuid:2da060c0-c138-4b70-b7ca-9682a9b7161b",
      "resource": {
        "resourceType": "Composition",
        "id": "2da060c0-c138-4b70-b7ca-9682a9b7161b",
        "meta": {
          "profile": [
            "http://hl7.eu/fhir/laboratory/StructureDefinition/Composition-eu-lab"
          ]
        },
        "identifier": {
          "assigner": {
            "display": "HL7 Europe"
          },
          "system": "urn:oid:2.16.840.1.113883.2.51.999",
          "value": "6834873c-902c-44b2-aa3b-0240f00ce13a"
        },
        "author": [
          {
            "reference": "urn:uuid:e289cbb1-138a-45a0-a7c4-5589a6a001f2"
          }
        ],
        "category": [
          {
            "coding": [
              {
                "code": "26436-6",
                "system": "http://loinc.org",
                "display": "Laboratory studies (set)"
              }
            ]
          }
        ],
        "type": {
          "coding": [
            {
              "code": "11502-2",
              "system": "http://loinc.org",
              "display": "Laboratory report"
            }
          ],
          "text": "Laboratory Report"
        },
        "section": [
          {
            "code": {
              "coding": [
                {
                  "code": "26436-6",
                  "system": "http://loinc.org",
                  "display": "Laboratory studies (set)"
                }
              ],
              "text": "Laboratory studies"
            },
            "section": [
              {
                "code": {
                  "coding": [
                    {
                      "code": "$18719-5",
                      "system": "http://loinc.org",
                      "display": "Chemistry studies (set)"
                    }
                  ],
                  "text": "Chemistry"
                },
                "entry": [
                  {
                    "reference": "urn:uuid:f82159af-775b-4b64-9081-b9c7184b3b94"
                  },
                  {
                    "reference": "urn:uuid:94aff59b-0e09-4878-a840-3d23a65f2700"
                  },
                  {
                    "reference": "urn:uuid:8e75bd43-7d74-4b81-bce4-5b0f2b13f1f2"
                  },
                  {
                    "reference": "urn:uuid:fd5d66f1-2706-4964-9a7d-804704fb7b5b"
                  },
                  {
                    "reference": "urn:uuid:168c4a59-de36-428b-8631-578c3a5dc38f"
                  },
                  {
                    "reference": "urn:uuid:e53d2c98-6326-463b-bd26-9d0576d5be8b"
                  },
                  {
                    "reference": "urn:uuid:03143274-ddc8-4db3-964b-c984496f3b53"
                  },
                  {
                    "reference": "urn:uuid:bfb65460-cc3f-4998-a530-813971a40d09"
                  },
                  {
                    "reference": "urn:uuid:da8ada5c-cca7-4af3-977d-f0d56cd2c070"
                  }
                ],
                "text": {
                  "status": "generated",
                  "div": "<div xmlns=\"http://www.w3.org/1999/xhtml\"><h3>Chemistry</h3><table class=\"hl7__eu__lab__report\"><thead><tr><th>Test</th><th>01-APR-2022</th><th>Reference&#xA0;Range</th><th>Unit</th></tr></thead><tbody><tr><td>Hemoglobin A1c/Hemoglobin.total in Blood</td><td><strong>6.2 H</strong></td><td>4.8 - 5.7</td><td>%</td></tr><tr><td>Glucose [Mass/volume] in Blood</td><td><strong>68.0 L</strong></td><td>70 - 140</td><td>mg/dL</td></tr><tr><td>Urea nitrogen [Mass/volume] in Blood</td><td>18.7</td><td>7 - 25</td><td>mg/dL</td></tr><tr><td>Creatinine [Mass/volume] in Blood</td><td>0.7</td><td>0.6 - 1.3</td><td>mg/dL</td></tr><tr><td>Calcium [Mass/volume] in Blood</td><td>9.3</td><td>8.5 - 10.5</td><td>mg/dL</td></tr><tr><td>Sodium [Moles/volume] in Blood</td><td>140.1</td><td>135 - 145</td><td>mmol/L</td></tr><tr><td>Potassium [Moles/volume] in Blood</td><td>3.7</td><td>3.5 - 5.1</td><td>mmol/L</td></tr><tr><td>Chloride [Moles/volume] in Blood</td><td>101.4</td><td>98 - 108</td><td>mmol/L</td></tr><tr><td>Carbon dioxide, total [Moles/volume] in Blood</td><td>27.1</td><td>22 - 29</td><td>mmol/L</td></tr></tbody></table></div>"
                },
                "title": "Chemistry"
              }
            ],
            "title": "Laboratory Report"
          },
          {
            "text": {
              "status": "generated",
              "div": "<div xmlns=\"http://www.w3.org/1999/xhtml\"><h3>Annotation</h3><table class=\"hl7__eu__lab__report\"><tr><th>Conclusion and Recommendations based on this report and previous findings known to us</th></tr><tr><td>The patient shows mildly elevated HbA1c, indicating impaired glucose regulation or possible early diabetes, despite a low fasting glucose level. Renal function, electrolytes, and other parameters are within normal limits. Recommend further evaluation for glucose metabolism (e.g., repeat fasting glucose, oral glucose tolerance test) and clinical correlation for possible hypoglycemic episodes.</td></tr></table></div>"
            },
            "code": {
              "coding": [
                {
                  "system": "http://loinc.org",
                  "code": "48767-8",
                  "display": "Annotation comment"
                }
              ]
            },
            "title": "Annotation comment"
          }
        ],
        "status": "final",
        "subject": {
          "reference": "urn:uuid:c070168d-6a2e-48cb-9b52-fc30634e289a",
          "display": "Bethany Begum"
        },
        "date": "2022-04-01T13:40:40Z",
        "title": "Laboratory Report",
        "confidentiality": "N"
      }
    },
    {
      "fullUrl": "urn:uuid:e56a1235-d1ea-42fb-a393-7d12ab5fdab8",
      "resource": {
        "resourceType": "DiagnosticReport",
        "id": "e56a1235-d1ea-42fb-a393-7d12ab5fdab8",
        "meta": {
          "profile": [
            "http://hl7.eu/fhir/laboratory/StructureDefinition/DiagnosticReport-eu-lab"
          ]
        },
        "identifier": [
          {
            "assigner": {
              "display": "HL7 Europe"
            },
            "system": "urn:oid:2.16.840.1.113883.2.51.999",
            "value": "9868c1ca-937d-42ef-aa6b-d98de9660bd3"
          }
        ],
        "extension": [
          {
            "url": "http://hl7.org/fhir/5.0/StructureDefinition/extension-DiagnosticReport.composition",
            "valueReference": {
              "reference": "urn:uuid:6834873c-902c-44b2-aa3b-0240f00ce13a"
            }
          }
        ],
        "category": [
          {
            "coding": [
              {
                "code": "26436-6",
                "system": "http://loinc.org",
                "display": "Laboratory studies (set)"
              }
            ]
          }
        ],
        "specimen": [
          {
            "reference": "urn:uuid:4e3b4894-c9d8-4338-8862-64c93980a2f4"
          }
        ],
        "result": [
          {
            "reference": "urn:uuid:f82159af-775b-4b64-9081-b9c7184b3b94"
          },
          {
            "reference": "urn:uuid:94aff59b-0e09-4878-a840-3d23a65f2700"
          },
          {
            "reference": "urn:uuid:8e75bd43-7d74-4b81-bce4-5b0f2b13f1f2"
          },
          {
            "reference": "urn:uuid:fd5d66f1-2706-4964-9a7d-804704fb7b5b"
          },
          {
            "reference": "urn:uuid:168c4a59-de36-428b-8631-578c3a5dc38f"
          },
          {
            "reference": "urn:uuid:e53d2c98-6326-463b-bd26-9d0576d5be8b"
          },
          {
            "reference": "urn:uuid:03143274-ddc8-4db3-964b-c984496f3b53"
          },
          {
            "reference": "urn:uuid:bfb65460-cc3f-4998-a530-813971a40d09"
          },
          {
            "reference": "urn:uuid:da8ada5c-cca7-4af3-977d-f0d56cd2c070"
          }
        ],
        "status": "registered",
        "code": {
          "coding": [
            {
              "code": "11502-2",
              "system": "http://loinc.org",
              "display": "Laboratory report"
            }
          ]
        },
        "subject": {
          "reference": "urn:uuid:c070168d-6a2e-48cb-9b52-fc30634e289a",
          "display": "Bethany Begum"
        }
      }
    },
    {
      "fullUrl": "urn:uuid:c070168d-6a2e-48cb-9b52-fc30634e289a",
      "resource": {
        "resourceType": "Patient",
        "id": "c070168d-6a2e-48cb-9b52-fc30634e289a",
        "meta": {
          "security": [
            {
              "system": "http://terminology.hl7.org/CodeSystem/v3-ActReason",
              "code": "HTEST"
            },
            {
              "system": "http://terminology.hl7.org/CodeSystem/v3-ActReason",
              "code": "TRAIN"
            }
          ],
          "tag": [
            {
              "system": "https://synderai.net/fhir/CodeSystem/tags",
              "code": "synthetic",
              "display": "SYNDERAI Synthetic data"
            }
          ],
          "profile": [
            "http://hl7.eu/fhir/base/StructureDefinition/patient-eu-core"
          ]
        },
        "identifier": [
          {
            "type": {
              "coding": [
                {
                  "code": "PT",
                  "system": "http://terminology.hl7.org/CodeSystem/v2-0203"
                }
              ]
            },
            "system": "http://ec.europa.eu/identifier/eci",
            "value": "2365-936148-1"
          },
          {
            "type": {
              "coding": [
                {
                  "code": "MR",
                  "system": "http://terminology.hl7.org/CodeSystem/v2-0203"
                }
              ]
            },
            "system": "http://local.setting.eu/identifier",
            "value": "853b213b-8bf3-d90f-2018-79d547156fd7"
          }
        ],
        "name": [
          {
            "family": "Begum"
          },
          {
            "given": [
              "Bethany"
            ]
          },
          {
            "text": "Bethany Begum"
          }
        ],
        "address": [
          {
            "line": [
              "Studio 22e",
              "Joe unions"
            ],
            "use": "home",
            "type": "physical",
            "postalCode": "M1",
            "city": "Manchester",
            "country": "United Kingdom"
          }
        ],
        "telecom": [
          {
            "system": "phone",
            "value": "(029) 2018200"
          }
        ],
        "extension": [
          {
            "url": "http://hl7.org/fhir/StructureDefinition/patient-nationality",
            "valueCodeableConcept": {
              "coding": [
                {
                  "code": "GB",
                  "system": "http://hl7.org/fhir/ValueSet/country"
                }
              ]
            }
          }
        ],
        "text": {
          "status": "generated",
          "div": "<div xmlns=\"http://www.w3.org/1999/xhtml\"><table class=\"hl7__ips\"><tr><td>Bethany Begum</td><td>female</td><td>19-Jan-1976</td></tr></table></div>"
        },
        "gender": "female",
        "birthDate": "1976-01-19"
      }
    },
    {
      "fullUrl": "urn:uuid:48179910-e9eb-4844-b7d9-3db85b7cb72c",
      "resource": {
        "resourceType": "ServiceRequest",
        "id": "48179910-e9eb-4844-b7d9-3db85b7cb72c",
        "meta": {
          "profile": [
            "http://hl7.eu/fhir/laboratory/StructureDefinition/ServiceRequest-eu-lab"
          ]
        },
        "identifier": [
          {
            "system": "http://example.org",
            "value": "e889e1ed-28ff-47df-ab38-3b9430097a7a"
          }
        ],
        "specimen": [
          {
            "reference": "urn:uuid:4e3b4894-c9d8-4338-8862-64c93980a2f4"
          }
        ],
        "reasonCode": [
          {
            "coding": [
              {
                "code": "55822004",
                "system": "http://snomed.info/sct",
                "display": "Hyperlipidemia"
              }
            ]
          },
          {
            "coding": [
              {
                "code": "15777000",
                "system": "http://snomed.info/sct",
                "display": "Prediabetes"
              }
            ]
          },
          {
            "coding": [
              {
                "code": "40055000",
                "system": "http://snomed.info/sct",
                "display": "Chronic sinusitis"
              }
            ]
          }
        ],
        "status": "active",
        "intent": "order",
        "code": {
          "coding": [
            {
              "code": "108252007",
              "system": "http://snomed.info/sct",
              "display": "Laboratory procedure"
            }
          ]
        },
        "subject": {
          "reference": "urn:uuid:c070168d-6a2e-48cb-9b52-fc30634e289a",
          "display": "Bethany Begum"
        },
        "requester": {
          "reference": "urn:uuid:70dd2ab9-89f4-41c3-a329-5899c6435439"
        }
      }
    },
    {
      "fullUrl": "urn:uuid:70dd2ab9-89f4-41c3-a329-5899c6435439",
      "resource": {
        "resourceType": "PractitionerRole",
        "id": "70dd2ab9-89f4-41c3-a329-5899c6435439",
        "meta": {
          "profile": [
            "http://hl7.eu/fhir/base/StructureDefinition/practitionerRole-eu"
          ]
        },
        "text": {
          "status": "generated",
          "div": "<div xmlns=\"http://www.w3.org/1999/xhtml\">Provider Role Id: 70dd2ab9-89f4-41c3-a329-5899c6435439</div>"
        },
        "organization": {
          "reference": "urn:uuid:454c411c-bde3-433c-b92d-a4a1bf5a43d4"
        }
      }
    },
    {
      "fullUrl": "urn:uuid:454c411c-bde3-433c-b92d-a4a1bf5a43d4",
      "resource": {
        "resourceType": "Organization",
        "id": "454c411c-bde3-433c-b92d-a4a1bf5a43d4",
        "meta": {
          "profile": [
            "http://hl7.eu/fhir/base/StructureDefinition/organization-eu"
          ]
        },
        "identifier": [
          {
            "assigner": {
              "display": "HL7 Europe"
            },
            "system": "urn:oid:2.16.840.1.113883.2.51.999",
            "value": "9aa1496b-18ca-4ba6-b7ad-6cef3b958536"
          }
        ],
        "address": [
          {
            "line": [
              "City Road 204"
            ],
            "city": "Manchester",
            "postalCode": "M3 3",
            "country": "United Kingdom"
          }
        ],
        "text": {
          "status": "generated",
          "div": "<div xmlns=\"http://www.w3.org/1999/xhtml\">Provider Organization: Cornbrook Medical Practice</div>"
        },
        "name": "Cornbrook Medical Practice"
      }
    },
    {
      "fullUrl": "urn:uuid:4e3b4894-c9d8-4338-8862-64c93980a2f4",
      "resource": {
        "resourceType": "Specimen",
        "id": "4e3b4894-c9d8-4338-8862-64c93980a2f4",
        "meta": {
          "profile": [
            "http://hl7.eu/fhir/laboratory/StructureDefinition/Specimen-eu-lab"
          ]
        },
        "collection": {
          "collectedDateTime": "2022-04-01"
        },
        "text": {
          "status": "generated",
          "div": "<div xmlns=\"http://www.w3.org/1999/xhtml\"><table class=\"hl7__eu__lab__report\"><tr><th>Specimen</th><th>Collection Date</th></tr><tr><td>Whole blood specimen (specimen)</td><td><span class=\"nb\">01-Apr-2022</span></td></tr></table></div>"
        },
        "type": {
          "coding": [
            {
              "code": "258580003",
              "system": "http://snomed.info/sct",
              "display": "Whole blood specimen (specimen)"
            }
          ]
        }
      }
    },
    {
      "fullUrl": "urn:uuid:f82159af-775b-4b64-9081-b9c7184b3b94",
      "resource": {
        "resourceType": "Observation",
        "id": "f82159af-775b-4b64-9081-b9c7184b3b94",
        "meta": {
          "profile": [
            "http://hl7.eu/fhir/laboratory/StructureDefinition/Observation-resultslab-eu-lab"
          ]
        },
        "performer": [
          {
            "display": "The Central European Lab"
          }
        ],
        "category": [
          {
            "coding": [
              {
                "system": "http://terminology.hl7.org/CodeSystem/observation-category",
                "code": "laboratory"
              }
            ]
          }
        ],
        "code": {
          "coding": [
            {
              "code": "4548-4",
              "system": "http://loinc.org",
              "display": "Hemoglobin A1c/Hemoglobin.total in Blood"
            }
          ],
          "text": "Hemoglobin A1c/Hemoglobin.total in Blood"
        },
        "valueQuantity": {
          "system": "http://unitsofmeasure.org",
          "value": 6.2,
          "unit": "%",
          "code": "%"
        },
        "referenceRange": [
          {
            "low": {
              "value": 4.8,
              "code": "%",
              "system": "http://unitsofmeasure.org"
            }
          },
          {
            "high": {
              "value": 5.7,
              "code": "%",
              "system": "http://unitsofmeasure.org"
            }
          }
        ],
        "interpretation": [
          {
            "coding": [
              {
                "code": "H",
                "system": "http://terminology.hl7.org/CodeSystem/v3-ObservationInterpretation",
                "display": "High"
              }
            ]
          }
        ],
        "text": {
          "status": "generated",
          "div": "<div xmlns=\"http://www.w3.org/1999/xhtml\"><table class=\"hl7__eu__lab__report\"><tr><th>Test</th><th>01-Apr-2022</th><th>Reference&#xA0;Range</th><th>Unit</th></tr><tr><td>Hemoglobin A1c/Hemoglobin.total in Blood</td><td>6.2</td><td>4.8 - 5.7</td><td>H</td><td>%</td></tr></table></div>"
        },
        "status": "final",
        "subject": {
          "reference": "urn:uuid:c070168d-6a2e-48cb-9b52-fc30634e289a",
          "display": "Bethany Begum"
        },
        "effectiveDateTime": "2022-04-01T11:40:40Z",
        "specimen": {
          "reference": "urn:uuid:4e3b4894-c9d8-4338-8862-64c93980a2f4"
        }
      }
    },
    {
      "fullUrl": "urn:uuid:94aff59b-0e09-4878-a840-3d23a65f2700",
      "resource": {
        "resourceType": "Observation",
        "id": "94aff59b-0e09-4878-a840-3d23a65f2700",
        "meta": {
          "profile": [
            "http://hl7.eu/fhir/laboratory/StructureDefinition/Observation-resultslab-eu-lab"
          ]
        },
        "performer": [
          {
            "display": "The Central European Lab"
          }
        ],
        "category": [
          {
            "coding": [
              {
                "system": "http://terminology.hl7.org/CodeSystem/observation-category",
                "code": "laboratory"
              }
            ]
          }
        ],
        "code": {
          "coding": [
            {
              "code": "2339-0",
              "system": "http://loinc.org",
              "display": "Glucose [Mass/volume] in Blood"
            }
          ],
          "text": "Glucose [Mass/volume] in Blood"
        },
        "valueQuantity": {
          "system": "http://unitsofmeasure.org",
          "value": 68,
          "unit": "mg/dL",
          "code": "mg/dL"
        },
        "referenceRange": [
          {
            "low": {
              "value": 70,
              "code": "mg/dL",
              "system": "http://unitsofmeasure.org"
            }
          },
          {
            "high": {
              "value": 140,
              "code": "mg/dL",
              "system": "http://unitsofmeasure.org"
            }
          }
        ],
        "interpretation": [
          {
            "coding": [
              {
                "code": "L",
                "system": "http://terminology.hl7.org/CodeSystem/v3-ObservationInterpretation",
                "display": "Low"
              }
            ]
          }
        ],
        "text": {
          "status": "generated",
          "div": "<div xmlns=\"http://www.w3.org/1999/xhtml\"><table class=\"hl7__eu__lab__report\"><tr><th>Test</th><th>01-Apr-2022</th><th>Reference&#xA0;Range</th><th>Unit</th></tr><tr><td>Glucose [Mass/volume] in Blood</td><td>68.0</td><td>70 - 140</td><td>L</td><td>mg/dL</td></tr></table></div>"
        },
        "status": "final",
        "subject": {
          "reference": "urn:uuid:c070168d-6a2e-48cb-9b52-fc30634e289a",
          "display": "Bethany Begum"
        },
        "effectiveDateTime": "2022-04-01T11:40:40Z",
        "specimen": {
          "reference": "urn:uuid:4e3b4894-c9d8-4338-8862-64c93980a2f4"
        }
      }
    },
    {
      "fullUrl": "urn:uuid:8e75bd43-7d74-4b81-bce4-5b0f2b13f1f2",
      "resource": {
        "resourceType": "Observation",
        "id": "8e75bd43-7d74-4b81-bce4-5b0f2b13f1f2",
        "meta": {
          "profile": [
            "http://hl7.eu/fhir/laboratory/StructureDefinition/Observation-resultslab-eu-lab"
          ]
        },
        "performer": [
          {
            "display": "The Central European Lab"
          }
        ],
        "category": [
          {
            "coding": [
              {
                "system": "http://terminology.hl7.org/CodeSystem/observation-category",
                "code": "laboratory"
              }
            ]
          }
        ],
        "code": {
          "coding": [
            {
              "code": "6299-2",
              "system": "http://loinc.org",
              "display": "Urea nitrogen [Mass/volume] in Blood"
            }
          ],
          "text": "Urea nitrogen [Mass/volume] in Blood"
        },
        "valueQuantity": {
          "system": "http://unitsofmeasure.org",
          "value": 18.7,
          "unit": "mg/dL",
          "code": "mg/dL"
        },
        "referenceRange": [
          {
            "low": {
              "value": 7,
              "code": "mg/dL",
              "system": "http://unitsofmeasure.org"
            }
          },
          {
            "high": {
              "value": 25,
              "code": "mg/dL",
              "system": "http://unitsofmeasure.org"
            }
          }
        ],
        "text": {
          "status": "generated",
          "div": "<div xmlns=\"http://www.w3.org/1999/xhtml\"><table class=\"hl7__eu__lab__report\"><tr><th>Test</th><th>01-Apr-2022</th><th>Reference&#xA0;Range</th><th>Unit</th></tr><tr><td>Urea nitrogen [Mass/volume] in Blood</td><td>18.7</td><td>7 - 25</td><td></td><td>mg/dL</td></tr></table></div>"
        },
        "status": "final",
        "subject": {
          "reference": "urn:uuid:c070168d-6a2e-48cb-9b52-fc30634e289a",
          "display": "Bethany Begum"
        },
        "effectiveDateTime": "2022-04-01T11:40:40Z",
        "specimen": {
          "reference": "urn:uuid:4e3b4894-c9d8-4338-8862-64c93980a2f4"
        }
      }
    },
    {
      "fullUrl": "urn:uuid:fd5d66f1-2706-4964-9a7d-804704fb7b5b",
      "resource": {
        "resourceType": "Observation",
        "id": "fd5d66f1-2706-4964-9a7d-804704fb7b5b",
        "meta": {
          "profile": [
            "http://hl7.eu/fhir/laboratory/StructureDefinition/Observation-resultslab-eu-lab"
          ]
        },
        "performer": [
          {
            "display": "The Central European Lab"
          }
        ],
        "category": [
          {
            "coding": [
              {
                "system": "http://terminology.hl7.org/CodeSystem/observation-category",
                "code": "laboratory"
              }
            ]
          }
        ],
        "code": {
          "coding": [
            {
              "code": "38483-4",
              "system": "http://loinc.org",
              "display": "Creatinine [Mass/volume] in Blood"
            }
          ],
          "text": "Creatinine [Mass/volume] in Blood"
        },
        "valueQuantity": {
          "system": "http://unitsofmeasure.org",
          "value": 0.7,
          "unit": "mg/dL",
          "code": "mg/dL"
        },
        "referenceRange": [
          {
            "low": {
              "value": 0.6,
              "code": "mg/dL",
              "system": "http://unitsofmeasure.org"
            }
          },
          {
            "high": {
              "value": 1.3,
              "code": "mg/dL",
              "system": "http://unitsofmeasure.org"
            }
          }
        ],
        "text": {
          "status": "generated",
          "div": "<div xmlns=\"http://www.w3.org/1999/xhtml\"><table class=\"hl7__eu__lab__report\"><tr><th>Test</th><th>01-Apr-2022</th><th>Reference&#xA0;Range</th><th>Unit</th></tr><tr><td>Creatinine [Mass/volume] in Blood</td><td>0.7</td><td>0.6 - 1.3</td><td></td><td>mg/dL</td></tr></table></div>"
        },
        "status": "final",
        "subject": {
          "reference": "urn:uuid:c070168d-6a2e-48cb-9b52-fc30634e289a",
          "display": "Bethany Begum"
        },
        "effectiveDateTime": "2022-04-01T11:40:40Z",
        "specimen": {
          "reference": "urn:uuid:4e3b4894-c9d8-4338-8862-64c93980a2f4"
        }
      }
    },
    {
      "fullUrl": "urn:uuid:168c4a59-de36-428b-8631-578c3a5dc38f",
      "resource": {
        "resourceType": "Observation",
        "id": "168c4a59-de36-428b-8631-578c3a5dc38f",
        "meta": {
          "profile": [
            "http://hl7.eu/fhir/laboratory/StructureDefinition/Observation-resultslab-eu-lab"
          ]
        },
        "performer": [
          {
            "display": "The Central European Lab"
          }
        ],
        "category": [
          {
            "coding": [
              {
                "system": "http://terminology.hl7.org/CodeSystem/observation-category",
                "code": "laboratory"
              }
            ]
          }
        ],
        "code": {
          "coding": [
            {
              "code": "49765-1",
              "system": "http://loinc.org",
              "display": "Calcium [Mass/volume] in Blood"
            }
          ],
          "text": "Calcium [Mass/volume] in Blood"
        },
        "valueQuantity": {
          "system": "http://unitsofmeasure.org",
          "value": 9.3,
          "unit": "mg/dL",
          "code": "mg/dL"
        },
        "referenceRange": [
          {
            "low": {
              "value": 8.5,
              "code": "mg/dL",
              "system": "http://unitsofmeasure.org"
            }
          },
          {
            "high": {
              "value": 10.5,
              "code": "mg/dL",
              "system": "http://unitsofmeasure.org"
            }
          }
        ],
        "text": {
          "status": "generated",
          "div": "<div xmlns=\"http://www.w3.org/1999/xhtml\"><table class=\"hl7__eu__lab__report\"><tr><th>Test</th><th>01-Apr-2022</th><th>Reference&#xA0;Range</th><th>Unit</th></tr><tr><td>Calcium [Mass/volume] in Blood</td><td>9.3</td><td>8.5 - 10.5</td><td></td><td>mg/dL</td></tr></table></div>"
        },
        "status": "final",
        "subject": {
          "reference": "urn:uuid:c070168d-6a2e-48cb-9b52-fc30634e289a",
          "display": "Bethany Begum"
        },
        "effectiveDateTime": "2022-04-01T11:40:40Z",
        "specimen": {
          "reference": "urn:uuid:4e3b4894-c9d8-4338-8862-64c93980a2f4"
        }
      }
    },
    {
      "fullUrl": "urn:uuid:e53d2c98-6326-463b-bd26-9d0576d5be8b",
      "resource": {
        "resourceType": "Observation",
        "id": "e53d2c98-6326-463b-bd26-9d0576d5be8b",
        "meta": {
          "profile": [
            "http://hl7.eu/fhir/laboratory/StructureDefinition/Observation-resultslab-eu-lab"
          ]
        },
        "performer": [
          {
            "display": "The Central European Lab"
          }
        ],
        "category": [
          {
            "coding": [
              {
                "system": "http://terminology.hl7.org/CodeSystem/observation-category",
                "code": "laboratory"
              }
            ]
          }
        ],
        "code": {
          "coding": [
            {
              "code": "2947-0",
              "system": "http://loinc.org",
              "display": "Sodium [Moles/volume] in Blood"
            }
          ],
          "text": "Sodium [Moles/volume] in Blood"
        },
        "valueQuantity": {
          "system": "http://unitsofmeasure.org",
          "value": 140.1,
          "unit": "mmol/L",
          "code": "mmol/L"
        },
        "referenceRange": [
          {
            "low": {
              "value": 135,
              "code": "mmol/L",
              "system": "http://unitsofmeasure.org"
            }
          },
          {
            "high": {
              "value": 145,
              "code": "mmol/L",
              "system": "http://unitsofmeasure.org"
            }
          }
        ],
        "text": {
          "status": "generated",
          "div": "<div xmlns=\"http://www.w3.org/1999/xhtml\"><table class=\"hl7__eu__lab__report\"><tr><th>Test</th><th>01-Apr-2022</th><th>Reference&#xA0;Range</th><th>Unit</th></tr><tr><td>Sodium [Moles/volume] in Blood</td><td>140.1</td><td>135 - 145</td><td></td><td>mmol/L</td></tr></table></div>"
        },
        "status": "final",
        "subject": {
          "reference": "urn:uuid:c070168d-6a2e-48cb-9b52-fc30634e289a",
          "display": "Bethany Begum"
        },
        "effectiveDateTime": "2022-04-01T11:40:40Z",
        "specimen": {
          "reference": "urn:uuid:4e3b4894-c9d8-4338-8862-64c93980a2f4"
        }
      }
    },
    {
      "fullUrl": "urn:uuid:03143274-ddc8-4db3-964b-c984496f3b53",
      "resource": {
        "resourceType": "Observation",
        "id": "03143274-ddc8-4db3-964b-c984496f3b53",
        "meta": {
          "profile": [
            "http://hl7.eu/fhir/laboratory/StructureDefinition/Observation-resultslab-eu-lab"
          ]
        },
        "performer": [
          {
            "display": "The Central European Lab"
          }
        ],
        "category": [
          {
            "coding": [
              {
                "system": "http://terminology.hl7.org/CodeSystem/observation-category",
                "code": "laboratory"
              }
            ]
          }
        ],
        "code": {
          "coding": [
            {
              "code": "6298-4",
              "system": "http://loinc.org",
              "display": "Potassium [Moles/volume] in Blood"
            }
          ],
          "text": "Potassium [Moles/volume] in Blood"
        },
        "valueQuantity": {
          "system": "http://unitsofmeasure.org",
          "value": 3.7,
          "unit": "mmol/L",
          "code": "mmol/L"
        },
        "referenceRange": [
          {
            "low": {
              "value": 3.5,
              "code": "mmol/L",
              "system": "http://unitsofmeasure.org"
            }
          },
          {
            "high": {
              "value": 5.1,
              "code": "mmol/L",
              "system": "http://unitsofmeasure.org"
            }
          }
        ],
        "text": {
          "status": "generated",
          "div": "<div xmlns=\"http://www.w3.org/1999/xhtml\"><table class=\"hl7__eu__lab__report\"><tr><th>Test</th><th>01-Apr-2022</th><th>Reference&#xA0;Range</th><th>Unit</th></tr><tr><td>Potassium [Moles/volume] in Blood</td><td>3.7</td><td>3.5 - 5.1</td><td></td><td>mmol/L</td></tr></table></div>"
        },
        "status": "final",
        "subject": {
          "reference": "urn:uuid:c070168d-6a2e-48cb-9b52-fc30634e289a",
          "display": "Bethany Begum"
        },
        "effectiveDateTime": "2022-04-01T11:40:40Z",
        "specimen": {
          "reference": "urn:uuid:4e3b4894-c9d8-4338-8862-64c93980a2f4"
        }
      }
    },
    {
      "fullUrl": "urn:uuid:bfb65460-cc3f-4998-a530-813971a40d09",
      "resource": {
        "resourceType": "Observation",
        "id": "bfb65460-cc3f-4998-a530-813971a40d09",
        "meta": {
          "profile": [
            "http://hl7.eu/fhir/laboratory/StructureDefinition/Observation-resultslab-eu-lab"
          ]
        },
        "performer": [
          {
            "display": "The Central European Lab"
          }
        ],
        "category": [
          {
            "coding": [
              {
                "system": "http://terminology.hl7.org/CodeSystem/observation-category",
                "code": "laboratory"
              }
            ]
          }
        ],
        "code": {
          "coding": [
            {
              "code": "2069-3",
              "system": "http://loinc.org",
              "display": "Chloride [Moles/volume] in Blood"
            }
          ],
          "text": "Chloride [Moles/volume] in Blood"
        },
        "valueQuantity": {
          "system": "http://unitsofmeasure.org",
          "value": 101.4,
          "unit": "mmol/L",
          "code": "mmol/L"
        },
        "referenceRange": [
          {
            "low": {
              "value": 98,
              "code": "mmol/L",
              "system": "http://unitsofmeasure.org"
            }
          },
          {
            "high": {
              "value": 108,
              "code": "mmol/L",
              "system": "http://unitsofmeasure.org"
            }
          }
        ],
        "text": {
          "status": "generated",
          "div": "<div xmlns=\"http://www.w3.org/1999/xhtml\"><table class=\"hl7__eu__lab__report\"><tr><th>Test</th><th>01-Apr-2022</th><th>Reference&#xA0;Range</th><th>Unit</th></tr><tr><td>Chloride [Moles/volume] in Blood</td><td>101.4</td><td>98 - 108</td><td></td><td>mmol/L</td></tr></table></div>"
        },
        "status": "final",
        "subject": {
          "reference": "urn:uuid:c070168d-6a2e-48cb-9b52-fc30634e289a",
          "display": "Bethany Begum"
        },
        "effectiveDateTime": "2022-04-01T11:40:40Z",
        "specimen": {
          "reference": "urn:uuid:4e3b4894-c9d8-4338-8862-64c93980a2f4"
        }
      }
    },
    {
      "fullUrl": "urn:uuid:da8ada5c-cca7-4af3-977d-f0d56cd2c070",
      "resource": {
        "resourceType": "Observation",
        "id": "da8ada5c-cca7-4af3-977d-f0d56cd2c070",
        "meta": {
          "profile": [
            "http://hl7.eu/fhir/laboratory/StructureDefinition/Observation-resultslab-eu-lab"
          ]
        },
        "performer": [
          {
            "display": "The Central European Lab"
          }
        ],
        "category": [
          {
            "coding": [
              {
                "system": "http://terminology.hl7.org/CodeSystem/observation-category",
                "code": "laboratory"
              }
            ]
          }
        ],
        "code": {
          "coding": [
            {
              "code": "20565-8",
              "system": "http://loinc.org",
              "display": "Carbon dioxide, total [Moles/volume] in Blood"
            }
          ],
          "text": "Carbon dioxide, total [Moles/volume] in Blood"
        },
        "valueQuantity": {
          "system": "http://unitsofmeasure.org",
          "value": 27.1,
          "unit": "mmol/L",
          "code": "mmol/L"
        },
        "referenceRange": [
          {
            "low": {
              "value": 22,
              "code": "mmol/L",
              "system": "http://unitsofmeasure.org"
            }
          },
          {
            "high": {
              "value": 29,
              "code": "mmol/L",
              "system": "http://unitsofmeasure.org"
            }
          }
        ],
        "text": {
          "status": "generated",
          "div": "<div xmlns=\"http://www.w3.org/1999/xhtml\"><table class=\"hl7__eu__lab__report\"><tr><th>Test</th><th>01-Apr-2022</th><th>Reference&#xA0;Range</th><th>Unit</th></tr><tr><td>Carbon dioxide, total [Moles/volume] in Blood</td><td>27.1</td><td>22 - 29</td><td></td><td>mmol/L</td></tr></table></div>"
        },
        "status": "final",
        "subject": {
          "reference": "urn:uuid:c070168d-6a2e-48cb-9b52-fc30634e289a",
          "display": "Bethany Begum"
        },
        "effectiveDateTime": "2022-04-01T11:40:40Z",
        "specimen": {
          "reference": "urn:uuid:4e3b4894-c9d8-4338-8862-64c93980a2f4"
        }
      }
    },
    {
      "fullUrl": "urn:uuid:e7dd8b98-6de5-4540-a256-c8ac667f2421",
      "resource": {
        "resourceType": "Device",
        "id": "e7dd8b98-6de5-4540-a256-c8ac667f2421",
        "deviceName": [
          {
            "name": "SYNDERAI Synthetic Generator",
            "type": "manufacturer-name"
          }
        ],
        "version": [
          {
            "value": "5.0"
          }
        ],
        "text": {
          "status": "generated",
          "div": "<div xmlns=\"http://www.w3.org/1999/xhtml\">SYNDERAI Synthetic Generator v5.0</div>"
        },
        "status": "active\"",
        "distinctIdentifier": "synderai-generator-50",
        "manufacturer": "SYNDERAI Project"
      }
    },
    {
      "fullUrl": "urn:uuid:4c3a3537-73b0-457d-849c-bbac206b5723",
      "resource": {
        "resourceType": "Provenance",
        "id": "4c3a3537-73b0-457d-849c-bbac206b5723",
        "target": [
          {
            "reference": "Patient/c070168d-6a2e-48cb-9b52-fc30634e289a"
          },
          {
            "reference": "Bundle/f33fec61-0d4d-496d-843d-6e4ebb8b498a"
          },
          {
            "reference": "Composition/2da060c0-c138-4b70-b7ca-9682a9b7161b"
          },
          {
            "reference": "PractitionerRole/e289cbb1-138a-45a0-a7c4-5589a6a001f2"
          },
          {
            "reference": "Practitioner/043cb01b-9068-46bb-9963-0009d75841db"
          },
          {
            "reference": "PractitionerRole/70dd2ab9-89f4-41c3-a329-5899c6435439"
          },
          {
            "reference": "Organization/454c411c-bde3-433c-b92d-a4a1bf5a43d4"
          }
        ],
        "activity": {
          "text": "Synthetic Example Data Generation"
        },
        "policy": [
          "https://synderai.net/synderai-synthetic-data-policy"
        ],
        "agent": [
          {
            "type": {
              "text": "author"
            },
            "who": {
              "reference": "Device/e7dd8b98-6de5-4540-a256-c8ac667f2421"
            }
          }
        ],
        "reason": [
          {
            "text": "Interoperability Testing and Training (non-clinical use)"
          }
        ],
        "text": {
          "status": "generated",
          "div": "<div xmlns=\"http://www.w3.org/1999/xhtml\">Provenance for SYNDERAI Synthetic Example Data Resource</div>"
        },
        "recorded": "2022-04-01T13:40:40Z"
      }
    },
    {
      "fullUrl": "urn:uuid:e289cbb1-138a-45a0-a7c4-5589a6a001f2",
      "resource": {
        "resourceType": "PractitionerRole",
        "id": "e289cbb1-138a-45a0-a7c4-5589a6a001f2",
        "meta": {
          "profile": [
            "http://hl7.eu/fhir/base/StructureDefinition/practitionerRole-eu"
          ]
        },
        "text": {
          "status": "generated",
          "div": "<div xmlns=\"http://www.w3.org/1999/xhtml\">Laboratory Role Id: e289cbb1-138a-45a0-a7c4-5589a6a001f2</div>"
        },
        "practitioner": {
          "reference": "urn:uuid:043cb01b-9068-46bb-9963-0009d75841db"
        }
      }
    },
    {
      "fullUrl": "urn:uuid:043cb01b-9068-46bb-9963-0009d75841db",
      "resource": {
        "resourceType": "Practitioner",
        "id": "043cb01b-9068-46bb-9963-0009d75841db",
        "meta": {
          "profile": [
            "http://hl7.eu/fhir/base/StructureDefinition/practitioner-eu"
          ]
        },
        "identifier": [
          {
            "assigner": {
              "display": "HL7 Europe"
            },
            "system": "urn:oid:2.16.840.1.113883.2.51.999",
            "value": "d994458b-26b4-49a3-a9be-368b939fd4e5"
          }
        ],
        "name": [
          {
            "prefix": [
              "dr"
            ],
            "given": [
              "Ex"
            ],
            "family": "Ample"
          }
        ],
        "address": [
          {
            "line": [
              "Laboratoire Central Européenne",
              "Boulevard du Jardin Botanique 32"
            ],
            "postalCode": "1000",
            "city": "Brussels",
            "country": "Belgium"
          }
        ],
        "text": {
          "status": "generated",
          "div": "<div xmlns=\"http://www.w3.org/1999/xhtml\">Laboratory: Laboratoire Central Européenne, 1000 Brussels, Belgium</div>"
        }
      }
    }
  ],
  "type": "document",
  "timestamp": "2022-04-01T13:40:40Z"
}
