{
  "resourceType": "Bundle",
  "id": "c3cb41dc-53ef-437e-9028-f0ebe55a110e",
  "meta": {
    "profile": [
      "http://hl7.eu/fhir/laboratory/StructureDefinition/Bundle-eu-lab"
    ]
  },
  "identifier": {
    "assigner": {
      "display": "HL7 Europe"
    },
    "system": "urn:oid:2.16.840.1.113883.2.51.999",
    "value": "c2b49955-0e37-4a7b-9f1f-108baf765512"
  },
  "entry": [
    {
      "fullUrl": "urn:uuid:a5cc7c1e-96f4-4736-8e25-18446b79f1ce",
      "resource": {
        "resourceType": "Composition",
        "id": "a5cc7c1e-96f4-4736-8e25-18446b79f1ce",
        "meta": {
          "profile": [
            "http://hl7.eu/fhir/laboratory/StructureDefinition/Composition-eu-lab"
          ]
        },
        "identifier": {
          "assigner": {
            "display": "HL7 Europe"
          },
          "system": "urn:oid:2.16.840.1.113883.2.51.999",
          "value": "910b4471-b601-4fc6-babf-a43b464f69f2"
        },
        "author": [
          {
            "reference": "urn:uuid:c0a80312-95f8-4620-aaec-39454230aced"
          }
        ],
        "category": [
          {
            "coding": [
              {
                "code": "26436-6",
                "system": "http://loinc.org",
                "display": "Laboratory studies (set)"
              }
            ]
          }
        ],
        "type": {
          "coding": [
            {
              "code": "11502-2",
              "system": "http://loinc.org",
              "display": "Laboratory report"
            }
          ],
          "text": "Laboratory Report"
        },
        "section": [
          {
            "code": {
              "coding": [
                {
                  "code": "26436-6",
                  "system": "http://loinc.org",
                  "display": "Laboratory studies (set)"
                }
              ],
              "text": "Laboratory studies"
            },
            "section": [
              {
                "code": {
                  "coding": [
                    {
                      "code": "$18719-5",
                      "system": "http://loinc.org",
                      "display": "Chemistry studies (set)"
                    }
                  ],
                  "text": "Chemistry"
                },
                "entry": [
                  {
                    "reference": "urn:uuid:b0a998d8-228d-4626-b1e7-1f84402918a7"
                  },
                  {
                    "reference": "urn:uuid:7df0a5f5-2fa4-466d-a3f8-5da86b228d70"
                  },
                  {
                    "reference": "urn:uuid:ba6d2542-8296-4483-b2d0-547e161cd435"
                  },
                  {
                    "reference": "urn:uuid:729cb44a-ca10-4507-9e31-787c1992c532"
                  },
                  {
                    "reference": "urn:uuid:2e0344c3-f8aa-470f-8156-9192d0e0d5a5"
                  },
                  {
                    "reference": "urn:uuid:b3c5eeb9-4c60-49ec-b7c8-1ca4f7898e67"
                  },
                  {
                    "reference": "urn:uuid:0dfc41d8-416d-43df-bc9a-c465a6e252d5"
                  },
                  {
                    "reference": "urn:uuid:b1315390-2a1e-447c-b16d-6c6b65048bbd"
                  },
                  {
                    "reference": "urn:uuid:ac084011-34d5-450a-9cba-6ee655e4014d"
                  },
                  {
                    "reference": "urn:uuid:4308cbaa-5dd8-40f9-bebb-2199ee460b64"
                  },
                  {
                    "reference": "urn:uuid:19387f43-37bd-4b90-bd49-3de8987a8007"
                  },
                  {
                    "reference": "urn:uuid:ade2b45f-da42-49b7-94e9-239d592ceb4a"
                  },
                  {
                    "reference": "urn:uuid:0b1279a9-1d8e-4662-b16f-82da803beca3"
                  },
                  {
                    "reference": "urn:uuid:047bb2f0-c748-4c0a-97bc-9312e4ecf4f0"
                  },
                  {
                    "reference": "urn:uuid:40143c98-22e3-4faf-a47c-78b675335724"
                  },
                  {
                    "reference": "urn:uuid:db7be205-f36c-41b3-a2a5-4c93442ad891"
                  }
                ],
                "text": {
                  "status": "generated",
                  "div": "<div xmlns=\"http://www.w3.org/1999/xhtml\"><h3>Chemistry</h3><table class=\"hl7__eu__lab__report\"><thead><tr><th>Test</th><th>28-MAR-2018</th><th>Reference&#xA0;Range</th><th>Unit</th></tr></thead><tbody><tr><td>Glucose [Mass/volume] in Blood</td><td><strong>65.5 L</strong></td><td>70 - 140</td><td>mg/dL</td></tr><tr><td>Urea nitrogen [Mass/volume] in Blood</td><td>14.1</td><td>7 - 30</td><td>mg/dL</td></tr><tr><td>Creatinine [Mass/volume] in Blood</td><td><strong>3.1 H</strong></td><td>0.5 - 1.3</td><td>mg/dL</td></tr><tr><td>Calcium [Mass/volume] in Blood</td><td>9.1</td><td>8.6 - 10.2</td><td>mg/dL</td></tr><tr><td>Sodium [Moles/volume] in Blood</td><td>137.7</td><td>135 - 145</td><td>mmol/L</td></tr><tr><td>Potassium [Moles/volume] in Blood</td><td>4.4</td><td>3.5 - 5.1</td><td>mmol/L</td></tr><tr><td>Chloride [Moles/volume] in Blood</td><td>104.5</td><td>98 - 114</td><td>mmol/L</td></tr><tr><td>Carbon dioxide, total [Moles/volume] in Blood</td><td>25.2</td><td>22 - 32</td><td>mmol/L</td></tr><tr><td>Protein [Mass/volume] in Serum or Plasma</td><td>7.8</td><td>6 - 8.3</td><td>g/dL</td></tr><tr><td>Albumin [Mass/volume] in Serum or Plasma</td><td>4.0</td><td>3.5 - 5.5</td><td>g/dL</td></tr><tr><td>Globulin [Mass/volume] in Serum by calculation</td><td>2.9</td><td>2 - 3.5</td><td>g/L</td></tr><tr><td>Bilirubin.total [Mass/volume] in Serum or Plasma</td><td>0.3</td><td>0.3 - 1.2</td><td>mg/dL</td></tr><tr><td>Alkaline phosphatase [Enzymatic activity/volume] in Serum or Plasma</td><td>83.1</td><td>44 - 142</td><td>U/L</td></tr><tr><td>Alanine aminotransferase [Enzymatic activity/volume] in Serum or Plasma</td><td><strong>48.9 H</strong></td><td>7 - 40</td><td>U/L</td></tr><tr><td>Aspartate aminotransferase [Enzymatic activity/volume] in Serum or Plasma</td><td>37.2</td><td>10 - 40</td><td>U/L</td></tr><tr><td>Ketones [Presence] in Urine by Test strip</td><td>Urine ketone test = +++</td><td></td><td></td></tr></tbody></table></div>"
                },
                "title": "Chemistry"
              },
              {
                "code": {
                  "coding": [
                    {
                      "code": "$18729-4",
                      "system": "http://loinc.org",
                      "display": "Urinalysis studies (set)"
                    }
                  ],
                  "text": "Urinalysis"
                },
                "entry": [
                  {
                    "reference": "urn:uuid:1686ce35-9875-4e9a-a671-9e89cf041956"
                  },
                  {
                    "reference": "urn:uuid:fda6763d-ca5e-4a9b-9061-6b30c6eb9bbc"
                  },
                  {
                    "reference": "urn:uuid:725023c9-377a-4e27-b9b3-18726a3ca2a0"
                  },
                  {
                    "reference": "urn:uuid:bd995ca5-2878-4374-9c00-da2dbd9dfeb3"
                  },
                  {
                    "reference": "urn:uuid:2f5a1227-5574-4967-bbe9-02b4a509607d"
                  },
                  {
                    "reference": "urn:uuid:31e1f2cb-af5b-4622-8099-a8e5a5b50d68"
                  },
                  {
                    "reference": "urn:uuid:24d85bf5-663e-43a2-8ce9-68d1a90b1939"
                  },
                  {
                    "reference": "urn:uuid:0bd72dc9-08bf-47e8-a983-93c4a97ecaa9"
                  },
                  {
                    "reference": "urn:uuid:34f7cbb4-41fb-4e3a-93fe-36e8ed18b7a5"
                  },
                  {
                    "reference": "urn:uuid:75fd65f3-116b-4581-be9b-03613e76f9f7"
                  },
                  {
                    "reference": "urn:uuid:01918153-9b53-4493-9049-6492a0091bbc"
                  },
                  {
                    "reference": "urn:uuid:a18de7f8-f017-41b0-821d-2226689ab0e3"
                  }
                ],
                "text": {
                  "status": "generated",
                  "div": "<div xmlns=\"http://www.w3.org/1999/xhtml\"><h3>Urinalysis</h3><table class=\"hl7__eu__lab__report\"><thead><tr><th>Test</th><th>28-MAR-2018</th><th>Reference&#xA0;Range</th><th>Unit</th></tr></thead><tbody><tr><td>Glucose [Mass/volume] in Urine by Test strip</td><td><strong>1.4 H</strong></td><td>0.8 - 0</td><td>mg/dL</td></tr><tr><td>Glucose [Presence] in Urine by Test strip</td><td>++</td><td></td><td></td></tr><tr><td>Bilirubin.total [Mass/volume] in Urine by Test strip</td><td>0.7</td><td>0 - 1.5</td><td>mg/dL</td></tr><tr><td>Bilirubin.total [Presence] in Urine by Test strip</td><td>Finding of bilirubin in urine</td><td></td><td></td></tr><tr><td>Ketones [Mass/volume] in Urine by Test strip</td><td>2.7</td><td>0 - 8</td><td>mg/dL</td></tr><tr><td>Specific gravity of Urine by Test strip</td><td><strong>1.0 L</strong></td><td>1.01 - 1.03</td><td>{nominal}</td></tr><tr><td>pH of Urine by Test strip</td><td>5.4</td><td>4.6 - 7.5</td><td>pH</td></tr><tr><td>Protein [Mass/volume] in Urine by Test strip</td><td><strong>393.0 H</strong></td><td>0 - 14</td><td>mg/dL</td></tr><tr><td>Protein [Presence] in Urine by Test strip</td><td>Urine protein test = +++</td><td></td><td></td></tr><tr><td>Nitrite [Presence] in Urine by Test strip</td><td>Urine nitrite negative</td><td></td><td></td></tr><tr><td>Hemoglobin [Presence] in Urine by Test strip</td><td>Urine blood test = negative</td><td></td><td></td></tr><tr><td>Leukocyte esterase [Presence] in Urine by Test strip</td><td>Urine leukocyte test negative</td><td></td><td></td></tr></tbody></table></div>"
                },
                "title": "Urinalysis"
              },
              {
                "code": {
                  "coding": [
                    {
                      "code": "$LP7846-1",
                      "system": "http://loinc.org",
                      "display": "Specimen information"
                    }
                  ],
                  "text": "Specimen information"
                },
                "entry": [
                  {
                    "reference": "urn:uuid:64a03416-0c3a-4a80-8b8f-71fb9b166639"
                  },
                  {
                    "reference": "urn:uuid:72e275a8-9c15-47db-9eec-4213f891e94a"
                  },
                  {
                    "reference": "urn:uuid:53fa6b2f-2e80-40cf-afee-b2ec62905038"
                  },
                  {
                    "reference": "urn:uuid:54ac0895-8d88-4ce7-b4f6-9533390e60f7"
                  }
                ],
                "text": {
                  "status": "generated",
                  "div": "<div xmlns=\"http://www.w3.org/1999/xhtml\"><h3>Specimen information</h3><table class=\"hl7__eu__lab__report\"><thead><tr><th>Test</th><th>28-MAR-2018</th><th>Specimen</th><th></th></tr></thead><tbody><tr><td>Appearance of Urine</td><td>Cloudy urine</td><td>Urine</td><td></td></tr><tr><td>Odor of Urine</td><td>Urine smell ammoniacal</td><td>Urine</td><td></td></tr><tr><td>Clarity of Urine</td><td>Translucent</td><td>Urine</td><td></td></tr><tr><td>Color of Urine</td><td>Brown color</td><td>Urine</td><td></td></tr></tbody></table></div>"
                },
                "title": "Specimen information"
              }
            ],
            "title": "Laboratory Report"
          },
          {
            "text": {
              "status": "generated",
              "div": "<div xmlns=\"http://www.w3.org/1999/xhtml\"><h3>Annotation</h3><table class=\"hl7__eu__lab__report\"><tr><th>Conclusion and Recommendations based on this report and previous findings known to us</th></tr><tr><td>The patient shows significant renal impairment (elevated creatinine, marked proteinuria), mild hypoglycemia, and mildly elevated liver enzymes. Urinalysis reveals proteinuria, glycosuria, ketonuria, low specific gravity, and abnormal appearance, suggesting possible nephrotic syndrome or diabetic nephropathy, though blood glucose is low. No evidence of urinary tract infection. Recommend urgent clinical evaluation for acute or chronic kidney disease and further assessment of liver function and metabolic status.</td></tr></table></div>"
            },
            "code": {
              "coding": [
                {
                  "system": "http://loinc.org",
                  "code": "48767-8",
                  "display": "Annotation comment"
                }
              ]
            },
            "title": "Annotation comment"
          }
        ],
        "status": "final",
        "subject": {
          "reference": "urn:uuid:e041bdbf-86a6-4869-b75f-43dd4451c297",
          "display": "Maria Nohlmans"
        },
        "date": "2018-03-28T03:07:39Z",
        "title": "Laboratory Report",
        "confidentiality": "N"
      }
    },
    {
      "fullUrl": "urn:uuid:26ae1511-5323-4346-84dd-a6ca66ccbe8b",
      "resource": {
        "resourceType": "DiagnosticReport",
        "id": "26ae1511-5323-4346-84dd-a6ca66ccbe8b",
        "meta": {
          "profile": [
            "http://hl7.eu/fhir/laboratory/StructureDefinition/DiagnosticReport-eu-lab"
          ]
        },
        "identifier": [
          {
            "assigner": {
              "display": "HL7 Europe"
            },
            "system": "urn:oid:2.16.840.1.113883.2.51.999",
            "value": "67cccfa8-67a7-4b91-951b-d3124f8a8f6d"
          }
        ],
        "extension": [
          {
            "url": "http://hl7.org/fhir/5.0/StructureDefinition/extension-DiagnosticReport.composition",
            "valueReference": {
              "reference": "urn:uuid:910b4471-b601-4fc6-babf-a43b464f69f2"
            }
          }
        ],
        "category": [
          {
            "coding": [
              {
                "code": "26436-6",
                "system": "http://loinc.org",
                "display": "Laboratory studies (set)"
              }
            ]
          }
        ],
        "specimen": [
          {
            "reference": "urn:uuid:989feb8b-3bdb-4e13-8ed0-55cef9a41aec"
          },
          {
            "reference": "urn:uuid:a7ab7bb7-cfaa-4a34-8408-b07502416ffd"
          },
          {
            "reference": "urn:uuid:420abd75-ab4d-4573-8804-eb26d6206c84"
          },
          {
            "reference": "urn:uuid:ed028018-f786-4e5b-83ff-ce40a35dc632"
          }
        ],
        "result": [
          {
            "reference": "urn:uuid:b0a998d8-228d-4626-b1e7-1f84402918a7"
          },
          {
            "reference": "urn:uuid:7df0a5f5-2fa4-466d-a3f8-5da86b228d70"
          },
          {
            "reference": "urn:uuid:ba6d2542-8296-4483-b2d0-547e161cd435"
          },
          {
            "reference": "urn:uuid:729cb44a-ca10-4507-9e31-787c1992c532"
          },
          {
            "reference": "urn:uuid:2e0344c3-f8aa-470f-8156-9192d0e0d5a5"
          },
          {
            "reference": "urn:uuid:b3c5eeb9-4c60-49ec-b7c8-1ca4f7898e67"
          },
          {
            "reference": "urn:uuid:0dfc41d8-416d-43df-bc9a-c465a6e252d5"
          },
          {
            "reference": "urn:uuid:b1315390-2a1e-447c-b16d-6c6b65048bbd"
          },
          {
            "reference": "urn:uuid:ac084011-34d5-450a-9cba-6ee655e4014d"
          },
          {
            "reference": "urn:uuid:4308cbaa-5dd8-40f9-bebb-2199ee460b64"
          },
          {
            "reference": "urn:uuid:19387f43-37bd-4b90-bd49-3de8987a8007"
          },
          {
            "reference": "urn:uuid:ade2b45f-da42-49b7-94e9-239d592ceb4a"
          },
          {
            "reference": "urn:uuid:0b1279a9-1d8e-4662-b16f-82da803beca3"
          },
          {
            "reference": "urn:uuid:047bb2f0-c748-4c0a-97bc-9312e4ecf4f0"
          },
          {
            "reference": "urn:uuid:40143c98-22e3-4faf-a47c-78b675335724"
          },
          {
            "reference": "urn:uuid:64a03416-0c3a-4a80-8b8f-71fb9b166639"
          },
          {
            "reference": "urn:uuid:72e275a8-9c15-47db-9eec-4213f891e94a"
          },
          {
            "reference": "urn:uuid:53fa6b2f-2e80-40cf-afee-b2ec62905038"
          },
          {
            "reference": "urn:uuid:54ac0895-8d88-4ce7-b4f6-9533390e60f7"
          },
          {
            "reference": "urn:uuid:1686ce35-9875-4e9a-a671-9e89cf041956"
          },
          {
            "reference": "urn:uuid:fda6763d-ca5e-4a9b-9061-6b30c6eb9bbc"
          },
          {
            "reference": "urn:uuid:725023c9-377a-4e27-b9b3-18726a3ca2a0"
          },
          {
            "reference": "urn:uuid:bd995ca5-2878-4374-9c00-da2dbd9dfeb3"
          },
          {
            "reference": "urn:uuid:2f5a1227-5574-4967-bbe9-02b4a509607d"
          },
          {
            "reference": "urn:uuid:db7be205-f36c-41b3-a2a5-4c93442ad891"
          },
          {
            "reference": "urn:uuid:31e1f2cb-af5b-4622-8099-a8e5a5b50d68"
          },
          {
            "reference": "urn:uuid:24d85bf5-663e-43a2-8ce9-68d1a90b1939"
          },
          {
            "reference": "urn:uuid:0bd72dc9-08bf-47e8-a983-93c4a97ecaa9"
          },
          {
            "reference": "urn:uuid:34f7cbb4-41fb-4e3a-93fe-36e8ed18b7a5"
          },
          {
            "reference": "urn:uuid:75fd65f3-116b-4581-be9b-03613e76f9f7"
          },
          {
            "reference": "urn:uuid:01918153-9b53-4493-9049-6492a0091bbc"
          },
          {
            "reference": "urn:uuid:a18de7f8-f017-41b0-821d-2226689ab0e3"
          }
        ],
        "status": "registered",
        "code": {
          "coding": [
            {
              "code": "11502-2",
              "system": "http://loinc.org",
              "display": "Laboratory report"
            }
          ]
        },
        "subject": {
          "reference": "urn:uuid:e041bdbf-86a6-4869-b75f-43dd4451c297",
          "display": "Maria Nohlmans"
        }
      }
    },
    {
      "fullUrl": "urn:uuid:e041bdbf-86a6-4869-b75f-43dd4451c297",
      "resource": {
        "resourceType": "Patient",
        "id": "e041bdbf-86a6-4869-b75f-43dd4451c297",
        "meta": {
          "security": [
            {
              "system": "http://terminology.hl7.org/CodeSystem/v3-ActReason",
              "code": "HTEST"
            },
            {
              "system": "http://terminology.hl7.org/CodeSystem/v3-ActReason",
              "code": "TRAIN"
            }
          ],
          "tag": [
            {
              "system": "https://synderai.net/fhir/CodeSystem/tags",
              "code": "synthetic",
              "display": "SYNDERAI Synthetic data"
            }
          ],
          "profile": [
            "http://hl7.eu/fhir/base/StructureDefinition/patient-eu-core"
          ]
        },
        "identifier": [
          {
            "type": {
              "coding": [
                {
                  "code": "PT",
                  "system": "http://terminology.hl7.org/CodeSystem/v2-0203"
                }
              ]
            },
            "system": "http://ec.europa.eu/identifier/eci",
            "value": "6886-506417-1"
          },
          {
            "type": {
              "coding": [
                {
                  "code": "MR",
                  "system": "http://terminology.hl7.org/CodeSystem/v2-0203"
                }
              ]
            },
            "system": "http://local.setting.eu/identifier",
            "value": "2cb21ed6-b617-b1f3-2290-589a710de5ee"
          }
        ],
        "name": [
          {
            "family": "Nohlmans"
          },
          {
            "given": [
              "Maria"
            ]
          },
          {
            "text": "Maria Nohlmans"
          }
        ],
        "address": [
          {
            "line": [
              "Alfons-Wulff-Weg 1"
            ],
            "use": "home",
            "type": "physical",
            "postalCode": "25813",
            "city": "Husum",
            "country": "Germany"
          }
        ],
        "telecom": [
          {
            "system": "phone",
            "value": "+49(0)1911 105501"
          }
        ],
        "extension": [
          {
            "url": "http://hl7.org/fhir/StructureDefinition/patient-nationality",
            "valueCodeableConcept": {
              "coding": [
                {
                  "code": "DE",
                  "system": "http://hl7.org/fhir/ValueSet/country"
                }
              ]
            }
          }
        ],
        "text": {
          "status": "generated",
          "div": "<div xmlns=\"http://www.w3.org/1999/xhtml\"><table class=\"hl7__ips\"><tr><td>Maria Nohlmans</td><td>female</td><td>11-Jun-1947</td></tr></table></div>"
        },
        "gender": "female",
        "birthDate": "1947-06-11"
      }
    },
    {
      "fullUrl": "urn:uuid:15f9ccc1-4448-47bd-a525-33e2cee993a7",
      "resource": {
        "resourceType": "ServiceRequest",
        "id": "15f9ccc1-4448-47bd-a525-33e2cee993a7",
        "meta": {
          "profile": [
            "http://hl7.eu/fhir/laboratory/StructureDefinition/ServiceRequest-eu-lab"
          ]
        },
        "identifier": [
          {
            "system": "http://example.org",
            "value": "d2326361-12f3-4987-9834-e4cd4b80ff81"
          }
        ],
        "specimen": [
          {
            "reference": "urn:uuid:989feb8b-3bdb-4e13-8ed0-55cef9a41aec"
          },
          {
            "reference": "urn:uuid:a7ab7bb7-cfaa-4a34-8408-b07502416ffd"
          },
          {
            "reference": "urn:uuid:420abd75-ab4d-4573-8804-eb26d6206c84"
          },
          {
            "reference": "urn:uuid:ed028018-f786-4e5b-83ff-ce40a35dc632"
          }
        ],
        "reasonCode": [
          {
            "coding": [
              {
                "code": "401314000",
                "system": "http://snomed.info/sct",
                "display": "Acute non-ST segment elevation myocardial infarction"
              }
            ]
          },
          {
            "coding": [
              {
                "code": "157141000119108",
                "system": "http://snomed.info/sct",
                "display": "Proteinuria due to type 2 diabetes mellitus"
              }
            ]
          },
          {
            "coding": [
              {
                "code": "237602007",
                "system": "http://snomed.info/sct",
                "display": "Metabolic syndrome X"
              }
            ]
          },
          {
            "coding": [
              {
                "code": "90781000119102",
                "system": "http://snomed.info/sct",
                "display": "Microalbuminuria due to type 2 diabetes mellitus"
              }
            ]
          },
          {
            "coding": [
              {
                "code": "127013003",
                "system": "http://snomed.info/sct",
                "display": "Disorder of kidney due to diabetes mellitus"
              }
            ]
          },
          {
            "coding": [
              {
                "code": "59621000",
                "system": "http://snomed.info/sct",
                "display": "Essential hypertension"
              }
            ]
          },
          {
            "coding": [
              {
                "code": "271737000",
                "system": "http://snomed.info/sct",
                "display": "Anemia"
              }
            ]
          },
          {
            "coding": [
              {
                "code": "15777000",
                "system": "http://snomed.info/sct",
                "display": "Prediabetes"
              }
            ]
          }
        ],
        "status": "active",
        "intent": "order",
        "code": {
          "coding": [
            {
              "code": "108252007",
              "system": "http://snomed.info/sct",
              "display": "Laboratory procedure"
            }
          ]
        },
        "subject": {
          "reference": "urn:uuid:e041bdbf-86a6-4869-b75f-43dd4451c297",
          "display": "Maria Nohlmans"
        },
        "requester": {
          "reference": "urn:uuid:159f9475-ed4e-429d-9615-469ac663ef83"
        }
      }
    },
    {
      "fullUrl": "urn:uuid:159f9475-ed4e-429d-9615-469ac663ef83",
      "resource": {
        "resourceType": "PractitionerRole",
        "id": "159f9475-ed4e-429d-9615-469ac663ef83",
        "meta": {
          "profile": [
            "http://hl7.eu/fhir/base/StructureDefinition/practitionerRole-eu"
          ]
        },
        "text": {
          "status": "generated",
          "div": "<div xmlns=\"http://www.w3.org/1999/xhtml\">Provider Role Id: 159f9475-ed4e-429d-9615-469ac663ef83</div>"
        },
        "organization": {
          "reference": "urn:uuid:89a17e68-125d-49b8-80b8-847aba300c7c"
        }
      }
    },
    {
      "fullUrl": "urn:uuid:89a17e68-125d-49b8-80b8-847aba300c7c",
      "resource": {
        "resourceType": "Organization",
        "id": "89a17e68-125d-49b8-80b8-847aba300c7c",
        "meta": {
          "profile": [
            "http://hl7.eu/fhir/base/StructureDefinition/organization-eu"
          ]
        },
        "identifier": [
          {
            "assigner": {
              "display": "HL7 Europe"
            },
            "system": "urn:oid:2.16.840.1.113883.2.51.999",
            "value": "5bcd88fc-eb77-4e43-bf69-8285dea7af4d"
          }
        ],
        "address": [
          {
            "line": [
              "Brinckmannstraße 35"
            ],
            "city": "Husum",
            "postalCode": "25813",
            "country": "Germany"
          }
        ],
        "text": {
          "status": "generated",
          "div": "<div xmlns=\"http://www.w3.org/1999/xhtml\">Provider Organization: Dr. Wolfram Hussels Kieferorthopäde</div>"
        },
        "name": "Dr. Wolfram Hussels Kieferorthopäde"
      }
    },
    {
      "fullUrl": "urn:uuid:989feb8b-3bdb-4e13-8ed0-55cef9a41aec",
      "resource": {
        "resourceType": "Specimen",
        "id": "989feb8b-3bdb-4e13-8ed0-55cef9a41aec",
        "meta": {
          "profile": [
            "http://hl7.eu/fhir/laboratory/StructureDefinition/Specimen-eu-lab"
          ]
        },
        "collection": {
          "collectedDateTime": "2018-03-28"
        },
        "text": {
          "status": "generated",
          "div": "<div xmlns=\"http://www.w3.org/1999/xhtml\"><table class=\"hl7__eu__lab__report\"><tr><th>Specimen</th><th>Collection Date</th></tr><tr><td>Whole blood specimen (specimen)</td><td><span class=\"nb\">28-Mar-2018</span></td></tr></table></div>"
        },
        "type": {
          "coding": [
            {
              "code": "258580003",
              "system": "http://snomed.info/sct",
              "display": "Whole blood specimen (specimen)"
            }
          ]
        }
      }
    },
    {
      "fullUrl": "urn:uuid:a7ab7bb7-cfaa-4a34-8408-b07502416ffd",
      "resource": {
        "resourceType": "Specimen",
        "id": "a7ab7bb7-cfaa-4a34-8408-b07502416ffd",
        "meta": {
          "profile": [
            "http://hl7.eu/fhir/laboratory/StructureDefinition/Specimen-eu-lab"
          ]
        },
        "collection": {
          "collectedDateTime": "2018-03-28"
        },
        "text": {
          "status": "generated",
          "div": "<div xmlns=\"http://www.w3.org/1999/xhtml\"><table class=\"hl7__eu__lab__report\"><tr><th>Specimen</th><th>Collection Date</th></tr><tr><td>Acellular blood (serum or plasma) specimen</td><td><span class=\"nb\">28-Mar-2018</span></td></tr></table></div>"
        },
        "type": {
          "coding": [
            {
              "code": "122592007",
              "system": "http://snomed.info/sct",
              "display": "Acellular blood (serum or plasma) specimen"
            }
          ]
        }
      }
    },
    {
      "fullUrl": "urn:uuid:420abd75-ab4d-4573-8804-eb26d6206c84",
      "resource": {
        "resourceType": "Specimen",
        "id": "420abd75-ab4d-4573-8804-eb26d6206c84",
        "meta": {
          "profile": [
            "http://hl7.eu/fhir/laboratory/StructureDefinition/Specimen-eu-lab"
          ]
        },
        "collection": {
          "collectedDateTime": "2018-03-28"
        },
        "text": {
          "status": "generated",
          "div": "<div xmlns=\"http://www.w3.org/1999/xhtml\"><table class=\"hl7__eu__lab__report\"><tr><th>Specimen</th><th>Collection Date</th></tr><tr><td>Serum specimen</td><td><span class=\"nb\">28-Mar-2018</span></td></tr></table></div>"
        },
        "type": {
          "coding": [
            {
              "code": "119364003",
              "system": "http://snomed.info/sct",
              "display": "Serum specimen"
            }
          ]
        }
      }
    },
    {
      "fullUrl": "urn:uuid:ed028018-f786-4e5b-83ff-ce40a35dc632",
      "resource": {
        "resourceType": "Specimen",
        "id": "ed028018-f786-4e5b-83ff-ce40a35dc632",
        "meta": {
          "profile": [
            "http://hl7.eu/fhir/laboratory/StructureDefinition/Specimen-eu-lab"
          ]
        },
        "collection": {
          "collectedDateTime": "2018-03-28"
        },
        "text": {
          "status": "generated",
          "div": "<div xmlns=\"http://www.w3.org/1999/xhtml\"><table class=\"hl7__eu__lab__report\"><tr><th>Specimen</th><th>Collection Date</th></tr><tr><td>Urine specimen</td><td><span class=\"nb\">28-Mar-2018</span></td></tr></table></div>"
        },
        "type": {
          "coding": [
            {
              "code": "122575003",
              "system": "http://snomed.info/sct",
              "display": "Urine specimen"
            }
          ]
        }
      }
    },
    {
      "fullUrl": "urn:uuid:b0a998d8-228d-4626-b1e7-1f84402918a7",
      "resource": {
        "resourceType": "Observation",
        "id": "b0a998d8-228d-4626-b1e7-1f84402918a7",
        "meta": {
          "profile": [
            "http://hl7.eu/fhir/laboratory/StructureDefinition/Observation-resultslab-eu-lab"
          ]
        },
        "performer": [
          {
            "display": "The Central European Lab"
          }
        ],
        "category": [
          {
            "coding": [
              {
                "system": "http://terminology.hl7.org/CodeSystem/observation-category",
                "code": "laboratory"
              }
            ]
          }
        ],
        "code": {
          "coding": [
            {
              "code": "2339-0",
              "system": "http://loinc.org",
              "display": "Glucose [Mass/volume] in Blood"
            }
          ],
          "text": "Glucose [Mass/volume] in Blood"
        },
        "valueQuantity": {
          "system": "http://unitsofmeasure.org",
          "value": 65.5,
          "unit": "mg/dL",
          "code": "mg/dL"
        },
        "referenceRange": [
          {
            "low": {
              "value": 70,
              "code": "mg/dL",
              "system": "http://unitsofmeasure.org"
            }
          },
          {
            "high": {
              "value": 140,
              "code": "mg/dL",
              "system": "http://unitsofmeasure.org"
            }
          }
        ],
        "interpretation": [
          {
            "coding": [
              {
                "code": "L",
                "system": "http://terminology.hl7.org/CodeSystem/v3-ObservationInterpretation",
                "display": "Low"
              }
            ]
          }
        ],
        "text": {
          "status": "generated",
          "div": "<div xmlns=\"http://www.w3.org/1999/xhtml\"><table class=\"hl7__eu__lab__report\"><tr><th>Test</th><th>28-Mar-2018</th><th>Reference&#xA0;Range</th><th>Unit</th></tr><tr><td>Glucose [Mass/volume] in Blood</td><td>65.5</td><td>70 - 140</td><td>L</td><td>mg/dL</td></tr></table></div>"
        },
        "status": "final",
        "subject": {
          "reference": "urn:uuid:e041bdbf-86a6-4869-b75f-43dd4451c297",
          "display": "Maria Nohlmans"
        },
        "effectiveDateTime": "2018-03-28T01:07:39Z",
        "specimen": {
          "reference": "urn:uuid:989feb8b-3bdb-4e13-8ed0-55cef9a41aec"
        }
      }
    },
    {
      "fullUrl": "urn:uuid:7df0a5f5-2fa4-466d-a3f8-5da86b228d70",
      "resource": {
        "resourceType": "Observation",
        "id": "7df0a5f5-2fa4-466d-a3f8-5da86b228d70",
        "meta": {
          "profile": [
            "http://hl7.eu/fhir/laboratory/StructureDefinition/Observation-resultslab-eu-lab"
          ]
        },
        "performer": [
          {
            "display": "The Central European Lab"
          }
        ],
        "category": [
          {
            "coding": [
              {
                "system": "http://terminology.hl7.org/CodeSystem/observation-category",
                "code": "laboratory"
              }
            ]
          }
        ],
        "code": {
          "coding": [
            {
              "code": "6299-2",
              "system": "http://loinc.org",
              "display": "Urea nitrogen [Mass/volume] in Blood"
            }
          ],
          "text": "Urea nitrogen [Mass/volume] in Blood"
        },
        "valueQuantity": {
          "system": "http://unitsofmeasure.org",
          "value": 14.1,
          "unit": "mg/dL",
          "code": "mg/dL"
        },
        "referenceRange": [
          {
            "low": {
              "value": 7,
              "code": "mg/dL",
              "system": "http://unitsofmeasure.org"
            }
          },
          {
            "high": {
              "value": 30,
              "code": "mg/dL",
              "system": "http://unitsofmeasure.org"
            }
          }
        ],
        "text": {
          "status": "generated",
          "div": "<div xmlns=\"http://www.w3.org/1999/xhtml\"><table class=\"hl7__eu__lab__report\"><tr><th>Test</th><th>28-Mar-2018</th><th>Reference&#xA0;Range</th><th>Unit</th></tr><tr><td>Urea nitrogen [Mass/volume] in Blood</td><td>14.1</td><td>7 - 30</td><td></td><td>mg/dL</td></tr></table></div>"
        },
        "status": "final",
        "subject": {
          "reference": "urn:uuid:e041bdbf-86a6-4869-b75f-43dd4451c297",
          "display": "Maria Nohlmans"
        },
        "effectiveDateTime": "2018-03-28T01:07:39Z",
        "specimen": {
          "reference": "urn:uuid:989feb8b-3bdb-4e13-8ed0-55cef9a41aec"
        }
      }
    },
    {
      "fullUrl": "urn:uuid:ba6d2542-8296-4483-b2d0-547e161cd435",
      "resource": {
        "resourceType": "Observation",
        "id": "ba6d2542-8296-4483-b2d0-547e161cd435",
        "meta": {
          "profile": [
            "http://hl7.eu/fhir/laboratory/StructureDefinition/Observation-resultslab-eu-lab"
          ]
        },
        "performer": [
          {
            "display": "The Central European Lab"
          }
        ],
        "category": [
          {
            "coding": [
              {
                "system": "http://terminology.hl7.org/CodeSystem/observation-category",
                "code": "laboratory"
              }
            ]
          }
        ],
        "code": {
          "coding": [
            {
              "code": "38483-4",
              "system": "http://loinc.org",
              "display": "Creatinine [Mass/volume] in Blood"
            }
          ],
          "text": "Creatinine [Mass/volume] in Blood"
        },
        "valueQuantity": {
          "system": "http://unitsofmeasure.org",
          "value": 3.1,
          "unit": "mg/dL",
          "code": "mg/dL"
        },
        "referenceRange": [
          {
            "low": {
              "value": 0.5,
              "code": "mg/dL",
              "system": "http://unitsofmeasure.org"
            }
          },
          {
            "high": {
              "value": 1.3,
              "code": "mg/dL",
              "system": "http://unitsofmeasure.org"
            }
          }
        ],
        "interpretation": [
          {
            "coding": [
              {
                "code": "H",
                "system": "http://terminology.hl7.org/CodeSystem/v3-ObservationInterpretation",
                "display": "High"
              }
            ]
          }
        ],
        "text": {
          "status": "generated",
          "div": "<div xmlns=\"http://www.w3.org/1999/xhtml\"><table class=\"hl7__eu__lab__report\"><tr><th>Test</th><th>28-Mar-2018</th><th>Reference&#xA0;Range</th><th>Unit</th></tr><tr><td>Creatinine [Mass/volume] in Blood</td><td>3.1</td><td>0.5 - 1.3</td><td>H</td><td>mg/dL</td></tr></table></div>"
        },
        "status": "final",
        "subject": {
          "reference": "urn:uuid:e041bdbf-86a6-4869-b75f-43dd4451c297",
          "display": "Maria Nohlmans"
        },
        "effectiveDateTime": "2018-03-28T01:07:39Z",
        "specimen": {
          "reference": "urn:uuid:989feb8b-3bdb-4e13-8ed0-55cef9a41aec"
        }
      }
    },
    {
      "fullUrl": "urn:uuid:729cb44a-ca10-4507-9e31-787c1992c532",
      "resource": {
        "resourceType": "Observation",
        "id": "729cb44a-ca10-4507-9e31-787c1992c532",
        "meta": {
          "profile": [
            "http://hl7.eu/fhir/laboratory/StructureDefinition/Observation-resultslab-eu-lab"
          ]
        },
        "performer": [
          {
            "display": "The Central European Lab"
          }
        ],
        "category": [
          {
            "coding": [
              {
                "system": "http://terminology.hl7.org/CodeSystem/observation-category",
                "code": "laboratory"
              }
            ]
          }
        ],
        "code": {
          "coding": [
            {
              "code": "49765-1",
              "system": "http://loinc.org",
              "display": "Calcium [Mass/volume] in Blood"
            }
          ],
          "text": "Calcium [Mass/volume] in Blood"
        },
        "valueQuantity": {
          "system": "http://unitsofmeasure.org",
          "value": 9.1,
          "unit": "mg/dL",
          "code": "mg/dL"
        },
        "referenceRange": [
          {
            "low": {
              "value": 8.6,
              "code": "mg/dL",
              "system": "http://unitsofmeasure.org"
            }
          },
          {
            "high": {
              "value": 10.2,
              "code": "mg/dL",
              "system": "http://unitsofmeasure.org"
            }
          }
        ],
        "text": {
          "status": "generated",
          "div": "<div xmlns=\"http://www.w3.org/1999/xhtml\"><table class=\"hl7__eu__lab__report\"><tr><th>Test</th><th>28-Mar-2018</th><th>Reference&#xA0;Range</th><th>Unit</th></tr><tr><td>Calcium [Mass/volume] in Blood</td><td>9.1</td><td>8.6 - 10.2</td><td></td><td>mg/dL</td></tr></table></div>"
        },
        "status": "final",
        "subject": {
          "reference": "urn:uuid:e041bdbf-86a6-4869-b75f-43dd4451c297",
          "display": "Maria Nohlmans"
        },
        "effectiveDateTime": "2018-03-28T01:07:39Z",
        "specimen": {
          "reference": "urn:uuid:989feb8b-3bdb-4e13-8ed0-55cef9a41aec"
        }
      }
    },
    {
      "fullUrl": "urn:uuid:2e0344c3-f8aa-470f-8156-9192d0e0d5a5",
      "resource": {
        "resourceType": "Observation",
        "id": "2e0344c3-f8aa-470f-8156-9192d0e0d5a5",
        "meta": {
          "profile": [
            "http://hl7.eu/fhir/laboratory/StructureDefinition/Observation-resultslab-eu-lab"
          ]
        },
        "performer": [
          {
            "display": "The Central European Lab"
          }
        ],
        "category": [
          {
            "coding": [
              {
                "system": "http://terminology.hl7.org/CodeSystem/observation-category",
                "code": "laboratory"
              }
            ]
          }
        ],
        "code": {
          "coding": [
            {
              "code": "2947-0",
              "system": "http://loinc.org",
              "display": "Sodium [Moles/volume] in Blood"
            }
          ],
          "text": "Sodium [Moles/volume] in Blood"
        },
        "valueQuantity": {
          "system": "http://unitsofmeasure.org",
          "value": 137.7,
          "unit": "mmol/L",
          "code": "mmol/L"
        },
        "referenceRange": [
          {
            "low": {
              "value": 135,
              "code": "mmol/L",
              "system": "http://unitsofmeasure.org"
            }
          },
          {
            "high": {
              "value": 145,
              "code": "mmol/L",
              "system": "http://unitsofmeasure.org"
            }
          }
        ],
        "text": {
          "status": "generated",
          "div": "<div xmlns=\"http://www.w3.org/1999/xhtml\"><table class=\"hl7__eu__lab__report\"><tr><th>Test</th><th>28-Mar-2018</th><th>Reference&#xA0;Range</th><th>Unit</th></tr><tr><td>Sodium [Moles/volume] in Blood</td><td>137.7</td><td>135 - 145</td><td></td><td>mmol/L</td></tr></table></div>"
        },
        "status": "final",
        "subject": {
          "reference": "urn:uuid:e041bdbf-86a6-4869-b75f-43dd4451c297",
          "display": "Maria Nohlmans"
        },
        "effectiveDateTime": "2018-03-28T01:07:39Z",
        "specimen": {
          "reference": "urn:uuid:989feb8b-3bdb-4e13-8ed0-55cef9a41aec"
        }
      }
    },
    {
      "fullUrl": "urn:uuid:b3c5eeb9-4c60-49ec-b7c8-1ca4f7898e67",
      "resource": {
        "resourceType": "Observation",
        "id": "b3c5eeb9-4c60-49ec-b7c8-1ca4f7898e67",
        "meta": {
          "profile": [
            "http://hl7.eu/fhir/laboratory/StructureDefinition/Observation-resultslab-eu-lab"
          ]
        },
        "performer": [
          {
            "display": "The Central European Lab"
          }
        ],
        "category": [
          {
            "coding": [
              {
                "system": "http://terminology.hl7.org/CodeSystem/observation-category",
                "code": "laboratory"
              }
            ]
          }
        ],
        "code": {
          "coding": [
            {
              "code": "6298-4",
              "system": "http://loinc.org",
              "display": "Potassium [Moles/volume] in Blood"
            }
          ],
          "text": "Potassium [Moles/volume] in Blood"
        },
        "valueQuantity": {
          "system": "http://unitsofmeasure.org",
          "value": 4.4,
          "unit": "mmol/L",
          "code": "mmol/L"
        },
        "referenceRange": [
          {
            "low": {
              "value": 3.5,
              "code": "mmol/L",
              "system": "http://unitsofmeasure.org"
            }
          },
          {
            "high": {
              "value": 5.1,
              "code": "mmol/L",
              "system": "http://unitsofmeasure.org"
            }
          }
        ],
        "text": {
          "status": "generated",
          "div": "<div xmlns=\"http://www.w3.org/1999/xhtml\"><table class=\"hl7__eu__lab__report\"><tr><th>Test</th><th>28-Mar-2018</th><th>Reference&#xA0;Range</th><th>Unit</th></tr><tr><td>Potassium [Moles/volume] in Blood</td><td>4.4</td><td>3.5 - 5.1</td><td></td><td>mmol/L</td></tr></table></div>"
        },
        "status": "final",
        "subject": {
          "reference": "urn:uuid:e041bdbf-86a6-4869-b75f-43dd4451c297",
          "display": "Maria Nohlmans"
        },
        "effectiveDateTime": "2018-03-28T01:07:39Z",
        "specimen": {
          "reference": "urn:uuid:989feb8b-3bdb-4e13-8ed0-55cef9a41aec"
        }
      }
    },
    {
      "fullUrl": "urn:uuid:0dfc41d8-416d-43df-bc9a-c465a6e252d5",
      "resource": {
        "resourceType": "Observation",
        "id": "0dfc41d8-416d-43df-bc9a-c465a6e252d5",
        "meta": {
          "profile": [
            "http://hl7.eu/fhir/laboratory/StructureDefinition/Observation-resultslab-eu-lab"
          ]
        },
        "performer": [
          {
            "display": "The Central European Lab"
          }
        ],
        "category": [
          {
            "coding": [
              {
                "system": "http://terminology.hl7.org/CodeSystem/observation-category",
                "code": "laboratory"
              }
            ]
          }
        ],
        "code": {
          "coding": [
            {
              "code": "2069-3",
              "system": "http://loinc.org",
              "display": "Chloride [Moles/volume] in Blood"
            }
          ],
          "text": "Chloride [Moles/volume] in Blood"
        },
        "valueQuantity": {
          "system": "http://unitsofmeasure.org",
          "value": 104.5,
          "unit": "mmol/L",
          "code": "mmol/L"
        },
        "referenceRange": [
          {
            "low": {
              "value": 98,
              "code": "mmol/L",
              "system": "http://unitsofmeasure.org"
            }
          },
          {
            "high": {
              "value": 114,
              "code": "mmol/L",
              "system": "http://unitsofmeasure.org"
            }
          }
        ],
        "text": {
          "status": "generated",
          "div": "<div xmlns=\"http://www.w3.org/1999/xhtml\"><table class=\"hl7__eu__lab__report\"><tr><th>Test</th><th>28-Mar-2018</th><th>Reference&#xA0;Range</th><th>Unit</th></tr><tr><td>Chloride [Moles/volume] in Blood</td><td>104.5</td><td>98 - 114</td><td></td><td>mmol/L</td></tr></table></div>"
        },
        "status": "final",
        "subject": {
          "reference": "urn:uuid:e041bdbf-86a6-4869-b75f-43dd4451c297",
          "display": "Maria Nohlmans"
        },
        "effectiveDateTime": "2018-03-28T01:07:39Z",
        "specimen": {
          "reference": "urn:uuid:989feb8b-3bdb-4e13-8ed0-55cef9a41aec"
        }
      }
    },
    {
      "fullUrl": "urn:uuid:b1315390-2a1e-447c-b16d-6c6b65048bbd",
      "resource": {
        "resourceType": "Observation",
        "id": "b1315390-2a1e-447c-b16d-6c6b65048bbd",
        "meta": {
          "profile": [
            "http://hl7.eu/fhir/laboratory/StructureDefinition/Observation-resultslab-eu-lab"
          ]
        },
        "performer": [
          {
            "display": "The Central European Lab"
          }
        ],
        "category": [
          {
            "coding": [
              {
                "system": "http://terminology.hl7.org/CodeSystem/observation-category",
                "code": "laboratory"
              }
            ]
          }
        ],
        "code": {
          "coding": [
            {
              "code": "20565-8",
              "system": "http://loinc.org",
              "display": "Carbon dioxide, total [Moles/volume] in Blood"
            }
          ],
          "text": "Carbon dioxide, total [Moles/volume] in Blood"
        },
        "valueQuantity": {
          "system": "http://unitsofmeasure.org",
          "value": 25.2,
          "unit": "mmol/L",
          "code": "mmol/L"
        },
        "referenceRange": [
          {
            "low": {
              "value": 22,
              "code": "mmol/L",
              "system": "http://unitsofmeasure.org"
            }
          },
          {
            "high": {
              "value": 32,
              "code": "mmol/L",
              "system": "http://unitsofmeasure.org"
            }
          }
        ],
        "text": {
          "status": "generated",
          "div": "<div xmlns=\"http://www.w3.org/1999/xhtml\"><table class=\"hl7__eu__lab__report\"><tr><th>Test</th><th>28-Mar-2018</th><th>Reference&#xA0;Range</th><th>Unit</th></tr><tr><td>Carbon dioxide, total [Moles/volume] in Blood</td><td>25.2</td><td>22 - 32</td><td></td><td>mmol/L</td></tr></table></div>"
        },
        "status": "final",
        "subject": {
          "reference": "urn:uuid:e041bdbf-86a6-4869-b75f-43dd4451c297",
          "display": "Maria Nohlmans"
        },
        "effectiveDateTime": "2018-03-28T01:07:39Z",
        "specimen": {
          "reference": "urn:uuid:989feb8b-3bdb-4e13-8ed0-55cef9a41aec"
        }
      }
    },
    {
      "fullUrl": "urn:uuid:ac084011-34d5-450a-9cba-6ee655e4014d",
      "resource": {
        "resourceType": "Observation",
        "id": "ac084011-34d5-450a-9cba-6ee655e4014d",
        "meta": {
          "profile": [
            "http://hl7.eu/fhir/laboratory/StructureDefinition/Observation-resultslab-eu-lab"
          ]
        },
        "performer": [
          {
            "display": "The Central European Lab"
          }
        ],
        "category": [
          {
            "coding": [
              {
                "system": "http://terminology.hl7.org/CodeSystem/observation-category",
                "code": "laboratory"
              }
            ]
          }
        ],
        "code": {
          "coding": [
            {
              "code": "2885-2",
              "system": "http://loinc.org",
              "display": "Protein [Mass/volume] in Serum or Plasma"
            }
          ],
          "text": "Protein [Mass/volume] in Serum or Plasma"
        },
        "valueQuantity": {
          "system": "http://unitsofmeasure.org",
          "value": 7.8,
          "unit": "g/dL",
          "code": "g/dL"
        },
        "referenceRange": [
          {
            "low": {
              "value": 6,
              "code": "g/dL",
              "system": "http://unitsofmeasure.org"
            }
          },
          {
            "high": {
              "value": 8.3,
              "code": "g/dL",
              "system": "http://unitsofmeasure.org"
            }
          }
        ],
        "text": {
          "status": "generated",
          "div": "<div xmlns=\"http://www.w3.org/1999/xhtml\"><table class=\"hl7__eu__lab__report\"><tr><th>Test</th><th>28-Mar-2018</th><th>Reference&#xA0;Range</th><th>Unit</th></tr><tr><td>Protein [Mass/volume] in Serum or Plasma</td><td>7.8</td><td>6 - 8.3</td><td></td><td>g/dL</td></tr></table></div>"
        },
        "status": "final",
        "subject": {
          "reference": "urn:uuid:e041bdbf-86a6-4869-b75f-43dd4451c297",
          "display": "Maria Nohlmans"
        },
        "effectiveDateTime": "2018-03-28T01:07:39Z",
        "specimen": {
          "reference": "urn:uuid:a7ab7bb7-cfaa-4a34-8408-b07502416ffd"
        }
      }
    },
    {
      "fullUrl": "urn:uuid:4308cbaa-5dd8-40f9-bebb-2199ee460b64",
      "resource": {
        "resourceType": "Observation",
        "id": "4308cbaa-5dd8-40f9-bebb-2199ee460b64",
        "meta": {
          "profile": [
            "http://hl7.eu/fhir/laboratory/StructureDefinition/Observation-resultslab-eu-lab"
          ]
        },
        "performer": [
          {
            "display": "The Central European Lab"
          }
        ],
        "category": [
          {
            "coding": [
              {
                "system": "http://terminology.hl7.org/CodeSystem/observation-category",
                "code": "laboratory"
              }
            ]
          }
        ],
        "code": {
          "coding": [
            {
              "code": "1751-7",
              "system": "http://loinc.org",
              "display": "Albumin [Mass/volume] in Serum or Plasma"
            }
          ],
          "text": "Albumin [Mass/volume] in Serum or Plasma"
        },
        "valueQuantity": {
          "system": "http://unitsofmeasure.org",
          "value": 4,
          "unit": "g/dL",
          "code": "g/dL"
        },
        "referenceRange": [
          {
            "low": {
              "value": 3.5,
              "code": "g/dL",
              "system": "http://unitsofmeasure.org"
            }
          },
          {
            "high": {
              "value": 5.5,
              "code": "g/dL",
              "system": "http://unitsofmeasure.org"
            }
          }
        ],
        "text": {
          "status": "generated",
          "div": "<div xmlns=\"http://www.w3.org/1999/xhtml\"><table class=\"hl7__eu__lab__report\"><tr><th>Test</th><th>28-Mar-2018</th><th>Reference&#xA0;Range</th><th>Unit</th></tr><tr><td>Albumin [Mass/volume] in Serum or Plasma</td><td>4.0</td><td>3.5 - 5.5</td><td></td><td>g/dL</td></tr></table></div>"
        },
        "status": "final",
        "subject": {
          "reference": "urn:uuid:e041bdbf-86a6-4869-b75f-43dd4451c297",
          "display": "Maria Nohlmans"
        },
        "effectiveDateTime": "2018-03-28T01:07:39Z",
        "specimen": {
          "reference": "urn:uuid:a7ab7bb7-cfaa-4a34-8408-b07502416ffd"
        }
      }
    },
    {
      "fullUrl": "urn:uuid:19387f43-37bd-4b90-bd49-3de8987a8007",
      "resource": {
        "resourceType": "Observation",
        "id": "19387f43-37bd-4b90-bd49-3de8987a8007",
        "meta": {
          "profile": [
            "http://hl7.eu/fhir/laboratory/StructureDefinition/Observation-resultslab-eu-lab"
          ]
        },
        "performer": [
          {
            "display": "The Central European Lab"
          }
        ],
        "category": [
          {
            "coding": [
              {
                "system": "http://terminology.hl7.org/CodeSystem/observation-category",
                "code": "laboratory"
              }
            ]
          }
        ],
        "code": {
          "coding": [
            {
              "code": "10834-0",
              "system": "http://loinc.org",
              "display": "Globulin [Mass/volume] in Serum by calculation"
            }
          ],
          "text": "Globulin [Mass/volume] in Serum by calculation"
        },
        "valueQuantity": {
          "system": "http://unitsofmeasure.org",
          "value": 2.9,
          "unit": "g/L",
          "code": "g/L"
        },
        "referenceRange": [
          {
            "low": {
              "value": 2,
              "code": "g/L",
              "system": "http://unitsofmeasure.org"
            }
          },
          {
            "high": {
              "value": 3.5,
              "code": "g/L",
              "system": "http://unitsofmeasure.org"
            }
          }
        ],
        "text": {
          "status": "generated",
          "div": "<div xmlns=\"http://www.w3.org/1999/xhtml\"><table class=\"hl7__eu__lab__report\"><tr><th>Test</th><th>28-Mar-2018</th><th>Reference&#xA0;Range</th><th>Unit</th></tr><tr><td>Globulin [Mass/volume] in Serum by calculation</td><td>2.9</td><td>2 - 3.5</td><td></td><td>g/L</td></tr></table></div>"
        },
        "status": "final",
        "subject": {
          "reference": "urn:uuid:e041bdbf-86a6-4869-b75f-43dd4451c297",
          "display": "Maria Nohlmans"
        },
        "effectiveDateTime": "2018-03-28T01:07:39Z",
        "specimen": {
          "reference": "urn:uuid:420abd75-ab4d-4573-8804-eb26d6206c84"
        }
      }
    },
    {
      "fullUrl": "urn:uuid:ade2b45f-da42-49b7-94e9-239d592ceb4a",
      "resource": {
        "resourceType": "Observation",
        "id": "ade2b45f-da42-49b7-94e9-239d592ceb4a",
        "meta": {
          "profile": [
            "http://hl7.eu/fhir/laboratory/StructureDefinition/Observation-resultslab-eu-lab"
          ]
        },
        "performer": [
          {
            "display": "The Central European Lab"
          }
        ],
        "category": [
          {
            "coding": [
              {
                "system": "http://terminology.hl7.org/CodeSystem/observation-category",
                "code": "laboratory"
              }
            ]
          }
        ],
        "code": {
          "coding": [
            {
              "code": "1975-2",
              "system": "http://loinc.org",
              "display": "Bilirubin.total [Mass/volume] in Serum or Plasma"
            }
          ],
          "text": "Bilirubin.total [Mass/volume] in Serum or Plasma"
        },
        "valueQuantity": {
          "system": "http://unitsofmeasure.org",
          "value": 0.3,
          "unit": "mg/dL",
          "code": "mg/dL"
        },
        "referenceRange": [
          {
            "low": {
              "value": 0.3,
              "code": "mg/dL",
              "system": "http://unitsofmeasure.org"
            }
          },
          {
            "high": {
              "value": 1.2,
              "code": "mg/dL",
              "system": "http://unitsofmeasure.org"
            }
          }
        ],
        "text": {
          "status": "generated",
          "div": "<div xmlns=\"http://www.w3.org/1999/xhtml\"><table class=\"hl7__eu__lab__report\"><tr><th>Test</th><th>28-Mar-2018</th><th>Reference&#xA0;Range</th><th>Unit</th></tr><tr><td>Bilirubin.total [Mass/volume] in Serum or Plasma</td><td>0.3</td><td>0.3 - 1.2</td><td></td><td>mg/dL</td></tr></table></div>"
        },
        "status": "final",
        "subject": {
          "reference": "urn:uuid:e041bdbf-86a6-4869-b75f-43dd4451c297",
          "display": "Maria Nohlmans"
        },
        "effectiveDateTime": "2018-03-28T01:07:39Z",
        "specimen": {
          "reference": "urn:uuid:a7ab7bb7-cfaa-4a34-8408-b07502416ffd"
        }
      }
    },
    {
      "fullUrl": "urn:uuid:0b1279a9-1d8e-4662-b16f-82da803beca3",
      "resource": {
        "resourceType": "Observation",
        "id": "0b1279a9-1d8e-4662-b16f-82da803beca3",
        "meta": {
          "profile": [
            "http://hl7.eu/fhir/laboratory/StructureDefinition/Observation-resultslab-eu-lab"
          ]
        },
        "performer": [
          {
            "display": "The Central European Lab"
          }
        ],
        "category": [
          {
            "coding": [
              {
                "system": "http://terminology.hl7.org/CodeSystem/observation-category",
                "code": "laboratory"
              }
            ]
          }
        ],
        "code": {
          "coding": [
            {
              "code": "6768-6",
              "system": "http://loinc.org",
              "display": "Alkaline phosphatase [Enzymatic activity/volume] in Serum or Plasma"
            }
          ],
          "text": "Alkaline phosphatase [Enzymatic activity/volume] in Serum or Plasma"
        },
        "valueQuantity": {
          "system": "http://unitsofmeasure.org",
          "value": 83.1,
          "unit": "U/L",
          "code": "U/L"
        },
        "referenceRange": [
          {
            "low": {
              "value": 44,
              "code": "U/L",
              "system": "http://unitsofmeasure.org"
            }
          },
          {
            "high": {
              "value": 142,
              "code": "U/L",
              "system": "http://unitsofmeasure.org"
            }
          }
        ],
        "text": {
          "status": "generated",
          "div": "<div xmlns=\"http://www.w3.org/1999/xhtml\"><table class=\"hl7__eu__lab__report\"><tr><th>Test</th><th>28-Mar-2018</th><th>Reference&#xA0;Range</th><th>Unit</th></tr><tr><td>Alkaline phosphatase [Enzymatic activity/volume] in Serum or Plasma</td><td>83.1</td><td>44 - 142</td><td></td><td>U/L</td></tr></table></div>"
        },
        "status": "final",
        "subject": {
          "reference": "urn:uuid:e041bdbf-86a6-4869-b75f-43dd4451c297",
          "display": "Maria Nohlmans"
        },
        "effectiveDateTime": "2018-03-28T01:07:39Z",
        "specimen": {
          "reference": "urn:uuid:a7ab7bb7-cfaa-4a34-8408-b07502416ffd"
        }
      }
    },
    {
      "fullUrl": "urn:uuid:047bb2f0-c748-4c0a-97bc-9312e4ecf4f0",
      "resource": {
        "resourceType": "Observation",
        "id": "047bb2f0-c748-4c0a-97bc-9312e4ecf4f0",
        "meta": {
          "profile": [
            "http://hl7.eu/fhir/laboratory/StructureDefinition/Observation-resultslab-eu-lab"
          ]
        },
        "performer": [
          {
            "display": "The Central European Lab"
          }
        ],
        "category": [
          {
            "coding": [
              {
                "system": "http://terminology.hl7.org/CodeSystem/observation-category",
                "code": "laboratory"
              }
            ]
          }
        ],
        "code": {
          "coding": [
            {
              "code": "1742-6",
              "system": "http://loinc.org",
              "display": "Alanine aminotransferase [Enzymatic activity/volume] in Serum or Plasma"
            }
          ],
          "text": "Alanine aminotransferase [Enzymatic activity/volume] in Serum or Plasma"
        },
        "valueQuantity": {
          "system": "http://unitsofmeasure.org",
          "value": 48.9,
          "unit": "U/L",
          "code": "U/L"
        },
        "referenceRange": [
          {
            "low": {
              "value": 7,
              "code": "U/L",
              "system": "http://unitsofmeasure.org"
            }
          },
          {
            "high": {
              "value": 40,
              "code": "U/L",
              "system": "http://unitsofmeasure.org"
            }
          }
        ],
        "interpretation": [
          {
            "coding": [
              {
                "code": "H",
                "system": "http://terminology.hl7.org/CodeSystem/v3-ObservationInterpretation",
                "display": "High"
              }
            ]
          }
        ],
        "text": {
          "status": "generated",
          "div": "<div xmlns=\"http://www.w3.org/1999/xhtml\"><table class=\"hl7__eu__lab__report\"><tr><th>Test</th><th>28-Mar-2018</th><th>Reference&#xA0;Range</th><th>Unit</th></tr><tr><td>Alanine aminotransferase [Enzymatic activity/volume] in Serum or Plasma</td><td>48.9</td><td>7 - 40</td><td>H</td><td>U/L</td></tr></table></div>"
        },
        "status": "final",
        "subject": {
          "reference": "urn:uuid:e041bdbf-86a6-4869-b75f-43dd4451c297",
          "display": "Maria Nohlmans"
        },
        "effectiveDateTime": "2018-03-28T01:07:39Z",
        "specimen": {
          "reference": "urn:uuid:a7ab7bb7-cfaa-4a34-8408-b07502416ffd"
        }
      }
    },
    {
      "fullUrl": "urn:uuid:40143c98-22e3-4faf-a47c-78b675335724",
      "resource": {
        "resourceType": "Observation",
        "id": "40143c98-22e3-4faf-a47c-78b675335724",
        "meta": {
          "profile": [
            "http://hl7.eu/fhir/laboratory/StructureDefinition/Observation-resultslab-eu-lab"
          ]
        },
        "performer": [
          {
            "display": "The Central European Lab"
          }
        ],
        "category": [
          {
            "coding": [
              {
                "system": "http://terminology.hl7.org/CodeSystem/observation-category",
                "code": "laboratory"
              }
            ]
          }
        ],
        "code": {
          "coding": [
            {
              "code": "1920-8",
              "system": "http://loinc.org",
              "display": "Aspartate aminotransferase [Enzymatic activity/volume] in Serum or Plasma"
            }
          ],
          "text": "Aspartate aminotransferase [Enzymatic activity/volume] in Serum or Plasma"
        },
        "valueQuantity": {
          "system": "http://unitsofmeasure.org",
          "value": 37.2,
          "unit": "U/L",
          "code": "U/L"
        },
        "referenceRange": [
          {
            "low": {
              "value": 10,
              "code": "U/L",
              "system": "http://unitsofmeasure.org"
            }
          },
          {
            "high": {
              "value": 40,
              "code": "U/L",
              "system": "http://unitsofmeasure.org"
            }
          }
        ],
        "text": {
          "status": "generated",
          "div": "<div xmlns=\"http://www.w3.org/1999/xhtml\"><table class=\"hl7__eu__lab__report\"><tr><th>Test</th><th>28-Mar-2018</th><th>Reference&#xA0;Range</th><th>Unit</th></tr><tr><td>Aspartate aminotransferase [Enzymatic activity/volume] in Serum or Plasma</td><td>37.2</td><td>10 - 40</td><td></td><td>U/L</td></tr></table></div>"
        },
        "status": "final",
        "subject": {
          "reference": "urn:uuid:e041bdbf-86a6-4869-b75f-43dd4451c297",
          "display": "Maria Nohlmans"
        },
        "effectiveDateTime": "2018-03-28T01:07:39Z",
        "specimen": {
          "reference": "urn:uuid:a7ab7bb7-cfaa-4a34-8408-b07502416ffd"
        }
      }
    },
    {
      "fullUrl": "urn:uuid:64a03416-0c3a-4a80-8b8f-71fb9b166639",
      "resource": {
        "resourceType": "Observation",
        "id": "64a03416-0c3a-4a80-8b8f-71fb9b166639",
        "meta": {
          "profile": [
            "http://hl7.eu/fhir/laboratory/StructureDefinition/Observation-resultslab-eu-lab"
          ]
        },
        "performer": [
          {
            "display": "The Central European Lab"
          }
        ],
        "category": [
          {
            "coding": [
              {
                "system": "http://terminology.hl7.org/CodeSystem/observation-category",
                "code": "laboratory"
              }
            ]
          }
        ],
        "code": {
          "coding": [
            {
              "code": "5767-9",
              "system": "http://loinc.org",
              "display": "Appearance of Urine"
            }
          ],
          "text": "Appearance of Urine"
        },
        "text": {
          "status": "generated",
          "div": "<div xmlns=\"http://www.w3.org/1999/xhtml\"><table class=\"hl7__eu__lab__report\"><tr><th>Test</th><th>28-Mar-2018</th><th>Reference&#xA0;Range</th><th>Unit</th></tr><tr><td>Appearance of Urine</td></tr></table></div>"
        },
        "status": "final",
        "subject": {
          "reference": "urn:uuid:e041bdbf-86a6-4869-b75f-43dd4451c297",
          "display": "Maria Nohlmans"
        },
        "effectiveDateTime": "2018-03-28T01:07:39Z",
        "specimen": {
          "reference": "urn:uuid:ed028018-f786-4e5b-83ff-ce40a35dc632"
        }
      }
    },
    {
      "fullUrl": "urn:uuid:72e275a8-9c15-47db-9eec-4213f891e94a",
      "resource": {
        "resourceType": "Observation",
        "id": "72e275a8-9c15-47db-9eec-4213f891e94a",
        "meta": {
          "profile": [
            "http://hl7.eu/fhir/laboratory/StructureDefinition/Observation-resultslab-eu-lab"
          ]
        },
        "performer": [
          {
            "display": "The Central European Lab"
          }
        ],
        "category": [
          {
            "coding": [
              {
                "system": "http://terminology.hl7.org/CodeSystem/observation-category",
                "code": "laboratory"
              }
            ]
          }
        ],
        "code": {
          "coding": [
            {
              "code": "34533-0",
              "system": "http://loinc.org",
              "display": "Odor of Urine"
            }
          ],
          "text": "Odor of Urine"
        },
        "text": {
          "status": "generated",
          "div": "<div xmlns=\"http://www.w3.org/1999/xhtml\"><table class=\"hl7__eu__lab__report\"><tr><th>Test</th><th>28-Mar-2018</th><th>Reference&#xA0;Range</th><th>Unit</th></tr><tr><td>Odor of Urine</td></tr></table></div>"
        },
        "status": "final",
        "subject": {
          "reference": "urn:uuid:e041bdbf-86a6-4869-b75f-43dd4451c297",
          "display": "Maria Nohlmans"
        },
        "effectiveDateTime": "2018-03-28T01:07:39Z",
        "specimen": {
          "reference": "urn:uuid:ed028018-f786-4e5b-83ff-ce40a35dc632"
        }
      }
    },
    {
      "fullUrl": "urn:uuid:53fa6b2f-2e80-40cf-afee-b2ec62905038",
      "resource": {
        "resourceType": "Observation",
        "id": "53fa6b2f-2e80-40cf-afee-b2ec62905038",
        "meta": {
          "profile": [
            "http://hl7.eu/fhir/laboratory/StructureDefinition/Observation-resultslab-eu-lab"
          ]
        },
        "performer": [
          {
            "display": "The Central European Lab"
          }
        ],
        "category": [
          {
            "coding": [
              {
                "system": "http://terminology.hl7.org/CodeSystem/observation-category",
                "code": "laboratory"
              }
            ]
          }
        ],
        "code": {
          "coding": [
            {
              "code": "32167-9",
              "system": "http://loinc.org",
              "display": "Clarity of Urine"
            }
          ],
          "text": "Clarity of Urine"
        },
        "text": {
          "status": "generated",
          "div": "<div xmlns=\"http://www.w3.org/1999/xhtml\"><table class=\"hl7__eu__lab__report\"><tr><th>Test</th><th>28-Mar-2018</th><th>Reference&#xA0;Range</th><th>Unit</th></tr><tr><td>Clarity of Urine</td></tr></table></div>"
        },
        "status": "final",
        "subject": {
          "reference": "urn:uuid:e041bdbf-86a6-4869-b75f-43dd4451c297",
          "display": "Maria Nohlmans"
        },
        "effectiveDateTime": "2018-03-28T01:07:39Z",
        "specimen": {
          "reference": "urn:uuid:ed028018-f786-4e5b-83ff-ce40a35dc632"
        }
      }
    },
    {
      "fullUrl": "urn:uuid:54ac0895-8d88-4ce7-b4f6-9533390e60f7",
      "resource": {
        "resourceType": "Observation",
        "id": "54ac0895-8d88-4ce7-b4f6-9533390e60f7",
        "meta": {
          "profile": [
            "http://hl7.eu/fhir/laboratory/StructureDefinition/Observation-resultslab-eu-lab"
          ]
        },
        "performer": [
          {
            "display": "The Central European Lab"
          }
        ],
        "category": [
          {
            "coding": [
              {
                "system": "http://terminology.hl7.org/CodeSystem/observation-category",
                "code": "laboratory"
              }
            ]
          }
        ],
        "code": {
          "coding": [
            {
              "code": "5778-6",
              "system": "http://loinc.org",
              "display": "Color of Urine"
            }
          ],
          "text": "Color of Urine"
        },
        "text": {
          "status": "generated",
          "div": "<div xmlns=\"http://www.w3.org/1999/xhtml\"><table class=\"hl7__eu__lab__report\"><tr><th>Test</th><th>28-Mar-2018</th><th>Reference&#xA0;Range</th><th>Unit</th></tr><tr><td>Color of Urine</td></tr></table></div>"
        },
        "status": "final",
        "subject": {
          "reference": "urn:uuid:e041bdbf-86a6-4869-b75f-43dd4451c297",
          "display": "Maria Nohlmans"
        },
        "effectiveDateTime": "2018-03-28T01:07:39Z",
        "specimen": {
          "reference": "urn:uuid:ed028018-f786-4e5b-83ff-ce40a35dc632"
        }
      }
    },
    {
      "fullUrl": "urn:uuid:1686ce35-9875-4e9a-a671-9e89cf041956",
      "resource": {
        "resourceType": "Observation",
        "id": "1686ce35-9875-4e9a-a671-9e89cf041956",
        "meta": {
          "profile": [
            "http://hl7.eu/fhir/laboratory/StructureDefinition/Observation-resultslab-eu-lab"
          ]
        },
        "performer": [
          {
            "display": "The Central European Lab"
          }
        ],
        "category": [
          {
            "coding": [
              {
                "system": "http://terminology.hl7.org/CodeSystem/observation-category",
                "code": "laboratory"
              }
            ]
          }
        ],
        "code": {
          "coding": [
            {
              "code": "5792-7",
              "system": "http://loinc.org",
              "display": "Glucose [Mass/volume] in Urine by Test strip"
            }
          ],
          "text": "Glucose [Mass/volume] in Urine by Test strip"
        },
        "valueQuantity": {
          "system": "http://unitsofmeasure.org",
          "value": 1.4,
          "unit": "mg/dL",
          "code": "mg/dL"
        },
        "referenceRange": [
          {
            "low": {
              "value": 0.8,
              "code": "mg/dL",
              "system": "http://unitsofmeasure.org"
            }
          },
          {
            "high": {
              "value": 0,
              "code": "mg/dL",
              "system": "http://unitsofmeasure.org"
            }
          }
        ],
        "interpretation": [
          {
            "coding": [
              {
                "code": "H",
                "system": "http://terminology.hl7.org/CodeSystem/v3-ObservationInterpretation",
                "display": "High"
              }
            ]
          }
        ],
        "text": {
          "status": "generated",
          "div": "<div xmlns=\"http://www.w3.org/1999/xhtml\"><table class=\"hl7__eu__lab__report\"><tr><th>Test</th><th>28-Mar-2018</th><th>Reference&#xA0;Range</th><th>Unit</th></tr><tr><td>Glucose [Mass/volume] in Urine by Test strip</td><td>1.4</td><td>0.8 - 0</td><td>H</td><td>mg/dL</td></tr></table></div>"
        },
        "status": "final",
        "subject": {
          "reference": "urn:uuid:e041bdbf-86a6-4869-b75f-43dd4451c297",
          "display": "Maria Nohlmans"
        },
        "effectiveDateTime": "2018-03-28T01:07:39Z",
        "specimen": {
          "reference": "urn:uuid:ed028018-f786-4e5b-83ff-ce40a35dc632"
        }
      }
    },
    {
      "fullUrl": "urn:uuid:fda6763d-ca5e-4a9b-9061-6b30c6eb9bbc",
      "resource": {
        "resourceType": "Observation",
        "id": "fda6763d-ca5e-4a9b-9061-6b30c6eb9bbc",
        "meta": {
          "profile": [
            "http://hl7.eu/fhir/laboratory/StructureDefinition/Observation-resultslab-eu-lab"
          ]
        },
        "performer": [
          {
            "display": "The Central European Lab"
          }
        ],
        "category": [
          {
            "coding": [
              {
                "system": "http://terminology.hl7.org/CodeSystem/observation-category",
                "code": "laboratory"
              }
            ]
          }
        ],
        "code": {
          "coding": [
            {
              "code": "25428-4",
              "system": "http://loinc.org",
              "display": "Glucose [Presence] in Urine by Test strip"
            }
          ],
          "text": "Glucose [Presence] in Urine by Test strip"
        },
        "text": {
          "status": "generated",
          "div": "<div xmlns=\"http://www.w3.org/1999/xhtml\"><table class=\"hl7__eu__lab__report\"><tr><th>Test</th><th>28-Mar-2018</th><th>Reference&#xA0;Range</th><th>Unit</th></tr><tr><td>Glucose [Presence] in Urine by Test strip</td></tr></table></div>"
        },
        "status": "final",
        "subject": {
          "reference": "urn:uuid:e041bdbf-86a6-4869-b75f-43dd4451c297",
          "display": "Maria Nohlmans"
        },
        "effectiveDateTime": "2018-03-28T01:07:39Z",
        "specimen": {
          "reference": "urn:uuid:ed028018-f786-4e5b-83ff-ce40a35dc632"
        }
      }
    },
    {
      "fullUrl": "urn:uuid:725023c9-377a-4e27-b9b3-18726a3ca2a0",
      "resource": {
        "resourceType": "Observation",
        "id": "725023c9-377a-4e27-b9b3-18726a3ca2a0",
        "meta": {
          "profile": [
            "http://hl7.eu/fhir/laboratory/StructureDefinition/Observation-resultslab-eu-lab"
          ]
        },
        "performer": [
          {
            "display": "The Central European Lab"
          }
        ],
        "category": [
          {
            "coding": [
              {
                "system": "http://terminology.hl7.org/CodeSystem/observation-category",
                "code": "laboratory"
              }
            ]
          }
        ],
        "code": {
          "coding": [
            {
              "code": "20505-4",
              "system": "http://loinc.org",
              "display": "Bilirubin.total [Mass/volume] in Urine by Test strip"
            }
          ],
          "text": "Bilirubin.total [Mass/volume] in Urine by Test strip"
        },
        "valueQuantity": {
          "system": "http://unitsofmeasure.org",
          "value": 0.7,
          "unit": "mg/dL",
          "code": "mg/dL"
        },
        "referenceRange": [
          {
            "low": {
              "value": 0,
              "code": "mg/dL",
              "system": "http://unitsofmeasure.org"
            }
          },
          {
            "high": {
              "value": 1.5,
              "code": "mg/dL",
              "system": "http://unitsofmeasure.org"
            }
          }
        ],
        "text": {
          "status": "generated",
          "div": "<div xmlns=\"http://www.w3.org/1999/xhtml\"><table class=\"hl7__eu__lab__report\"><tr><th>Test</th><th>28-Mar-2018</th><th>Reference&#xA0;Range</th><th>Unit</th></tr><tr><td>Bilirubin.total [Mass/volume] in Urine by Test strip</td><td>0.7</td><td>0 - 1.5</td><td></td><td>mg/dL</td></tr></table></div>"
        },
        "status": "final",
        "subject": {
          "reference": "urn:uuid:e041bdbf-86a6-4869-b75f-43dd4451c297",
          "display": "Maria Nohlmans"
        },
        "effectiveDateTime": "2018-03-28T01:07:39Z",
        "specimen": {
          "reference": "urn:uuid:ed028018-f786-4e5b-83ff-ce40a35dc632"
        }
      }
    },
    {
      "fullUrl": "urn:uuid:bd995ca5-2878-4374-9c00-da2dbd9dfeb3",
      "resource": {
        "resourceType": "Observation",
        "id": "bd995ca5-2878-4374-9c00-da2dbd9dfeb3",
        "meta": {
          "profile": [
            "http://hl7.eu/fhir/laboratory/StructureDefinition/Observation-resultslab-eu-lab"
          ]
        },
        "performer": [
          {
            "display": "The Central European Lab"
          }
        ],
        "category": [
          {
            "coding": [
              {
                "system": "http://terminology.hl7.org/CodeSystem/observation-category",
                "code": "laboratory"
              }
            ]
          }
        ],
        "code": {
          "coding": [
            {
              "code": "5770-3",
              "system": "http://loinc.org",
              "display": "Bilirubin.total [Presence] in Urine by Test strip"
            }
          ],
          "text": "Bilirubin.total [Presence] in Urine by Test strip"
        },
        "text": {
          "status": "generated",
          "div": "<div xmlns=\"http://www.w3.org/1999/xhtml\"><table class=\"hl7__eu__lab__report\"><tr><th>Test</th><th>28-Mar-2018</th><th>Reference&#xA0;Range</th><th>Unit</th></tr><tr><td>Bilirubin.total [Presence] in Urine by Test strip</td></tr></table></div>"
        },
        "status": "final",
        "subject": {
          "reference": "urn:uuid:e041bdbf-86a6-4869-b75f-43dd4451c297",
          "display": "Maria Nohlmans"
        },
        "effectiveDateTime": "2018-03-28T01:07:39Z",
        "specimen": {
          "reference": "urn:uuid:ed028018-f786-4e5b-83ff-ce40a35dc632"
        }
      }
    },
    {
      "fullUrl": "urn:uuid:2f5a1227-5574-4967-bbe9-02b4a509607d",
      "resource": {
        "resourceType": "Observation",
        "id": "2f5a1227-5574-4967-bbe9-02b4a509607d",
        "meta": {
          "profile": [
            "http://hl7.eu/fhir/laboratory/StructureDefinition/Observation-resultslab-eu-lab"
          ]
        },
        "performer": [
          {
            "display": "The Central European Lab"
          }
        ],
        "category": [
          {
            "coding": [
              {
                "system": "http://terminology.hl7.org/CodeSystem/observation-category",
                "code": "laboratory"
              }
            ]
          }
        ],
        "code": {
          "coding": [
            {
              "code": "5797-6",
              "system": "http://loinc.org",
              "display": "Ketones [Mass/volume] in Urine by Test strip"
            }
          ],
          "text": "Ketones [Mass/volume] in Urine by Test strip"
        },
        "valueQuantity": {
          "system": "http://unitsofmeasure.org",
          "value": 2.7,
          "unit": "mg/dL",
          "code": "mg/dL"
        },
        "referenceRange": [
          {
            "low": {
              "value": 0,
              "code": "mg/dL",
              "system": "http://unitsofmeasure.org"
            }
          },
          {
            "high": {
              "value": 8,
              "code": "mg/dL",
              "system": "http://unitsofmeasure.org"
            }
          }
        ],
        "text": {
          "status": "generated",
          "div": "<div xmlns=\"http://www.w3.org/1999/xhtml\"><table class=\"hl7__eu__lab__report\"><tr><th>Test</th><th>28-Mar-2018</th><th>Reference&#xA0;Range</th><th>Unit</th></tr><tr><td>Ketones [Mass/volume] in Urine by Test strip</td><td>2.7</td><td>0 - 8</td><td></td><td>mg/dL</td></tr></table></div>"
        },
        "status": "final",
        "subject": {
          "reference": "urn:uuid:e041bdbf-86a6-4869-b75f-43dd4451c297",
          "display": "Maria Nohlmans"
        },
        "effectiveDateTime": "2018-03-28T01:07:39Z",
        "specimen": {
          "reference": "urn:uuid:ed028018-f786-4e5b-83ff-ce40a35dc632"
        }
      }
    },
    {
      "fullUrl": "urn:uuid:db7be205-f36c-41b3-a2a5-4c93442ad891",
      "resource": {
        "resourceType": "Observation",
        "id": "db7be205-f36c-41b3-a2a5-4c93442ad891",
        "meta": {
          "profile": [
            "http://hl7.eu/fhir/laboratory/StructureDefinition/Observation-resultslab-eu-lab"
          ]
        },
        "performer": [
          {
            "display": "The Central European Lab"
          }
        ],
        "category": [
          {
            "coding": [
              {
                "system": "http://terminology.hl7.org/CodeSystem/observation-category",
                "code": "laboratory"
              }
            ]
          }
        ],
        "code": {
          "coding": [
            {
              "code": "2514-8",
              "system": "http://loinc.org",
              "display": "Ketones [Presence] in Urine by Test strip"
            }
          ],
          "text": "Ketones [Presence] in Urine by Test strip"
        },
        "text": {
          "status": "generated",
          "div": "<div xmlns=\"http://www.w3.org/1999/xhtml\"><table class=\"hl7__eu__lab__report\"><tr><th>Test</th><th>28-Mar-2018</th><th>Reference&#xA0;Range</th><th>Unit</th></tr><tr><td>Ketones [Presence] in Urine by Test strip</td></tr></table></div>"
        },
        "status": "final",
        "subject": {
          "reference": "urn:uuid:e041bdbf-86a6-4869-b75f-43dd4451c297",
          "display": "Maria Nohlmans"
        },
        "effectiveDateTime": "2018-03-28T01:07:39Z",
        "specimen": {
          "reference": "urn:uuid:ed028018-f786-4e5b-83ff-ce40a35dc632"
        }
      }
    },
    {
      "fullUrl": "urn:uuid:31e1f2cb-af5b-4622-8099-a8e5a5b50d68",
      "resource": {
        "resourceType": "Observation",
        "id": "31e1f2cb-af5b-4622-8099-a8e5a5b50d68",
        "meta": {
          "profile": [
            "http://hl7.eu/fhir/laboratory/StructureDefinition/Observation-resultslab-eu-lab"
          ]
        },
        "performer": [
          {
            "display": "The Central European Lab"
          }
        ],
        "category": [
          {
            "coding": [
              {
                "system": "http://terminology.hl7.org/CodeSystem/observation-category",
                "code": "laboratory"
              }
            ]
          }
        ],
        "code": {
          "coding": [
            {
              "code": "5811-5",
              "system": "http://loinc.org",
              "display": "Specific gravity of Urine by Test strip"
            }
          ],
          "text": "Specific gravity of Urine by Test strip"
        },
        "valueQuantity": {
          "system": "http://unitsofmeasure.org",
          "value": 1,
          "unit": "{nominal}",
          "code": "{nominal}"
        },
        "referenceRange": [
          {
            "low": {
              "value": 1.01,
              "code": "g/mL",
              "system": "http://unitsofmeasure.org"
            }
          },
          {
            "high": {
              "value": 1.03,
              "code": "g/mL",
              "system": "http://unitsofmeasure.org"
            }
          }
        ],
        "interpretation": [
          {
            "coding": [
              {
                "code": "L",
                "system": "http://terminology.hl7.org/CodeSystem/v3-ObservationInterpretation",
                "display": "Low"
              }
            ]
          }
        ],
        "text": {
          "status": "generated",
          "div": "<div xmlns=\"http://www.w3.org/1999/xhtml\"><table class=\"hl7__eu__lab__report\"><tr><th>Test</th><th>28-Mar-2018</th><th>Reference&#xA0;Range</th><th>Unit</th></tr><tr><td>Specific gravity of Urine by Test strip</td><td>1.0</td><td>1.01 - 1.03</td><td>L</td><td>{nominal}</td></tr></table></div>"
        },
        "status": "final",
        "subject": {
          "reference": "urn:uuid:e041bdbf-86a6-4869-b75f-43dd4451c297",
          "display": "Maria Nohlmans"
        },
        "effectiveDateTime": "2018-03-28T01:07:39Z",
        "specimen": {
          "reference": "urn:uuid:ed028018-f786-4e5b-83ff-ce40a35dc632"
        }
      }
    },
    {
      "fullUrl": "urn:uuid:24d85bf5-663e-43a2-8ce9-68d1a90b1939",
      "resource": {
        "resourceType": "Observation",
        "id": "24d85bf5-663e-43a2-8ce9-68d1a90b1939",
        "meta": {
          "profile": [
            "http://hl7.eu/fhir/laboratory/StructureDefinition/Observation-resultslab-eu-lab"
          ]
        },
        "performer": [
          {
            "display": "The Central European Lab"
          }
        ],
        "category": [
          {
            "coding": [
              {
                "system": "http://terminology.hl7.org/CodeSystem/observation-category",
                "code": "laboratory"
              }
            ]
          }
        ],
        "code": {
          "coding": [
            {
              "code": "5803-2",
              "system": "http://loinc.org",
              "display": "pH of Urine by Test strip"
            }
          ],
          "text": "pH of Urine by Test strip"
        },
        "valueQuantity": {
          "system": "http://unitsofmeasure.org",
          "value": 5.4,
          "unit": "pH",
          "code": "pH"
        },
        "referenceRange": [
          {
            "low": {
              "value": 4.6,
              "code": "pH",
              "system": "http://unitsofmeasure.org"
            }
          },
          {
            "high": {
              "value": 7.5,
              "code": "pH",
              "system": "http://unitsofmeasure.org"
            }
          }
        ],
        "text": {
          "status": "generated",
          "div": "<div xmlns=\"http://www.w3.org/1999/xhtml\"><table class=\"hl7__eu__lab__report\"><tr><th>Test</th><th>28-Mar-2018</th><th>Reference&#xA0;Range</th><th>Unit</th></tr><tr><td>pH of Urine by Test strip</td><td>5.4</td><td>4.6 - 7.5</td><td></td><td>pH</td></tr></table></div>"
        },
        "status": "final",
        "subject": {
          "reference": "urn:uuid:e041bdbf-86a6-4869-b75f-43dd4451c297",
          "display": "Maria Nohlmans"
        },
        "effectiveDateTime": "2018-03-28T01:07:39Z",
        "specimen": {
          "reference": "urn:uuid:ed028018-f786-4e5b-83ff-ce40a35dc632"
        }
      }
    },
    {
      "fullUrl": "urn:uuid:0bd72dc9-08bf-47e8-a983-93c4a97ecaa9",
      "resource": {
        "resourceType": "Observation",
        "id": "0bd72dc9-08bf-47e8-a983-93c4a97ecaa9",
        "meta": {
          "profile": [
            "http://hl7.eu/fhir/laboratory/StructureDefinition/Observation-resultslab-eu-lab"
          ]
        },
        "performer": [
          {
            "display": "The Central European Lab"
          }
        ],
        "category": [
          {
            "coding": [
              {
                "system": "http://terminology.hl7.org/CodeSystem/observation-category",
                "code": "laboratory"
              }
            ]
          }
        ],
        "code": {
          "coding": [
            {
              "code": "5804-0",
              "system": "http://loinc.org",
              "display": "Protein [Mass/volume] in Urine by Test strip"
            }
          ],
          "text": "Protein [Mass/volume] in Urine by Test strip"
        },
        "valueQuantity": {
          "system": "http://unitsofmeasure.org",
          "value": 393,
          "unit": "mg/dL",
          "code": "mg/dL"
        },
        "referenceRange": [
          {
            "low": {
              "value": 0,
              "code": "mg/dL",
              "system": "http://unitsofmeasure.org"
            }
          },
          {
            "high": {
              "value": 14,
              "code": "mg/dL",
              "system": "http://unitsofmeasure.org"
            }
          }
        ],
        "interpretation": [
          {
            "coding": [
              {
                "code": "H",
                "system": "http://terminology.hl7.org/CodeSystem/v3-ObservationInterpretation",
                "display": "High"
              }
            ]
          }
        ],
        "text": {
          "status": "generated",
          "div": "<div xmlns=\"http://www.w3.org/1999/xhtml\"><table class=\"hl7__eu__lab__report\"><tr><th>Test</th><th>28-Mar-2018</th><th>Reference&#xA0;Range</th><th>Unit</th></tr><tr><td>Protein [Mass/volume] in Urine by Test strip</td><td>393.0</td><td>0 - 14</td><td>H</td><td>mg/dL</td></tr></table></div>"
        },
        "status": "final",
        "subject": {
          "reference": "urn:uuid:e041bdbf-86a6-4869-b75f-43dd4451c297",
          "display": "Maria Nohlmans"
        },
        "effectiveDateTime": "2018-03-28T01:07:39Z",
        "specimen": {
          "reference": "urn:uuid:ed028018-f786-4e5b-83ff-ce40a35dc632"
        }
      }
    },
    {
      "fullUrl": "urn:uuid:34f7cbb4-41fb-4e3a-93fe-36e8ed18b7a5",
      "resource": {
        "resourceType": "Observation",
        "id": "34f7cbb4-41fb-4e3a-93fe-36e8ed18b7a5",
        "meta": {
          "profile": [
            "http://hl7.eu/fhir/laboratory/StructureDefinition/Observation-resultslab-eu-lab"
          ]
        },
        "performer": [
          {
            "display": "The Central European Lab"
          }
        ],
        "category": [
          {
            "coding": [
              {
                "system": "http://terminology.hl7.org/CodeSystem/observation-category",
                "code": "laboratory"
              }
            ]
          }
        ],
        "code": {
          "coding": [
            {
              "code": "20454-5",
              "system": "http://loinc.org",
              "display": "Protein [Presence] in Urine by Test strip"
            }
          ],
          "text": "Protein [Presence] in Urine by Test strip"
        },
        "text": {
          "status": "generated",
          "div": "<div xmlns=\"http://www.w3.org/1999/xhtml\"><table class=\"hl7__eu__lab__report\"><tr><th>Test</th><th>28-Mar-2018</th><th>Reference&#xA0;Range</th><th>Unit</th></tr><tr><td>Protein [Presence] in Urine by Test strip</td></tr></table></div>"
        },
        "status": "final",
        "subject": {
          "reference": "urn:uuid:e041bdbf-86a6-4869-b75f-43dd4451c297",
          "display": "Maria Nohlmans"
        },
        "effectiveDateTime": "2018-03-28T01:07:39Z",
        "specimen": {
          "reference": "urn:uuid:ed028018-f786-4e5b-83ff-ce40a35dc632"
        }
      }
    },
    {
      "fullUrl": "urn:uuid:75fd65f3-116b-4581-be9b-03613e76f9f7",
      "resource": {
        "resourceType": "Observation",
        "id": "75fd65f3-116b-4581-be9b-03613e76f9f7",
        "meta": {
          "profile": [
            "http://hl7.eu/fhir/laboratory/StructureDefinition/Observation-resultslab-eu-lab"
          ]
        },
        "performer": [
          {
            "display": "The Central European Lab"
          }
        ],
        "category": [
          {
            "coding": [
              {
                "system": "http://terminology.hl7.org/CodeSystem/observation-category",
                "code": "laboratory"
              }
            ]
          }
        ],
        "code": {
          "coding": [
            {
              "code": "5802-4",
              "system": "http://loinc.org",
              "display": "Nitrite [Presence] in Urine by Test strip"
            }
          ],
          "text": "Nitrite [Presence] in Urine by Test strip"
        },
        "text": {
          "status": "generated",
          "div": "<div xmlns=\"http://www.w3.org/1999/xhtml\"><table class=\"hl7__eu__lab__report\"><tr><th>Test</th><th>28-Mar-2018</th><th>Reference&#xA0;Range</th><th>Unit</th></tr><tr><td>Nitrite [Presence] in Urine by Test strip</td></tr></table></div>"
        },
        "status": "final",
        "subject": {
          "reference": "urn:uuid:e041bdbf-86a6-4869-b75f-43dd4451c297",
          "display": "Maria Nohlmans"
        },
        "effectiveDateTime": "2018-03-28T01:07:39Z",
        "specimen": {
          "reference": "urn:uuid:ed028018-f786-4e5b-83ff-ce40a35dc632"
        }
      }
    },
    {
      "fullUrl": "urn:uuid:01918153-9b53-4493-9049-6492a0091bbc",
      "resource": {
        "resourceType": "Observation",
        "id": "01918153-9b53-4493-9049-6492a0091bbc",
        "meta": {
          "profile": [
            "http://hl7.eu/fhir/laboratory/StructureDefinition/Observation-resultslab-eu-lab"
          ]
        },
        "performer": [
          {
            "display": "The Central European Lab"
          }
        ],
        "category": [
          {
            "coding": [
              {
                "system": "http://terminology.hl7.org/CodeSystem/observation-category",
                "code": "laboratory"
              }
            ]
          }
        ],
        "code": {
          "coding": [
            {
              "code": "5794-3",
              "system": "http://loinc.org",
              "display": "Hemoglobin [Presence] in Urine by Test strip"
            }
          ],
          "text": "Hemoglobin [Presence] in Urine by Test strip"
        },
        "text": {
          "status": "generated",
          "div": "<div xmlns=\"http://www.w3.org/1999/xhtml\"><table class=\"hl7__eu__lab__report\"><tr><th>Test</th><th>28-Mar-2018</th><th>Reference&#xA0;Range</th><th>Unit</th></tr><tr><td>Hemoglobin [Presence] in Urine by Test strip</td></tr></table></div>"
        },
        "status": "final",
        "subject": {
          "reference": "urn:uuid:e041bdbf-86a6-4869-b75f-43dd4451c297",
          "display": "Maria Nohlmans"
        },
        "effectiveDateTime": "2018-03-28T01:07:39Z",
        "specimen": {
          "reference": "urn:uuid:ed028018-f786-4e5b-83ff-ce40a35dc632"
        }
      }
    },
    {
      "fullUrl": "urn:uuid:a18de7f8-f017-41b0-821d-2226689ab0e3",
      "resource": {
        "resourceType": "Observation",
        "id": "a18de7f8-f017-41b0-821d-2226689ab0e3",
        "meta": {
          "profile": [
            "http://hl7.eu/fhir/laboratory/StructureDefinition/Observation-resultslab-eu-lab"
          ]
        },
        "performer": [
          {
            "display": "The Central European Lab"
          }
        ],
        "category": [
          {
            "coding": [
              {
                "system": "http://terminology.hl7.org/CodeSystem/observation-category",
                "code": "laboratory"
              }
            ]
          }
        ],
        "code": {
          "coding": [
            {
              "code": "5799-2",
              "system": "http://loinc.org",
              "display": "Leukocyte esterase [Presence] in Urine by Test strip"
            }
          ],
          "text": "Leukocyte esterase [Presence] in Urine by Test strip"
        },
        "text": {
          "status": "generated",
          "div": "<div xmlns=\"http://www.w3.org/1999/xhtml\"><table class=\"hl7__eu__lab__report\"><tr><th>Test</th><th>28-Mar-2018</th><th>Reference&#xA0;Range</th><th>Unit</th></tr><tr><td>Leukocyte esterase [Presence] in Urine by Test strip</td></tr></table></div>"
        },
        "status": "final",
        "subject": {
          "reference": "urn:uuid:e041bdbf-86a6-4869-b75f-43dd4451c297",
          "display": "Maria Nohlmans"
        },
        "effectiveDateTime": "2018-03-28T01:07:39Z",
        "specimen": {
          "reference": "urn:uuid:ed028018-f786-4e5b-83ff-ce40a35dc632"
        }
      }
    },
    {
      "fullUrl": "urn:uuid:8cb8f95b-5f5f-451b-9f1b-d7b246d74230",
      "resource": {
        "resourceType": "Device",
        "id": "8cb8f95b-5f5f-451b-9f1b-d7b246d74230",
        "deviceName": [
          {
            "name": "SYNDERAI Synthetic Generator",
            "type": "manufacturer-name"
          }
        ],
        "version": [
          {
            "value": "5.0"
          }
        ],
        "text": {
          "status": "generated",
          "div": "<div xmlns=\"http://www.w3.org/1999/xhtml\">SYNDERAI Synthetic Generator v5.0</div>"
        },
        "status": "active\"",
        "distinctIdentifier": "synderai-generator-50",
        "manufacturer": "SYNDERAI Project"
      }
    },
    {
      "fullUrl": "urn:uuid:91d13918-317a-44d7-8ba9-f8fca65ab025",
      "resource": {
        "resourceType": "Provenance",
        "id": "91d13918-317a-44d7-8ba9-f8fca65ab025",
        "target": [
          {
            "reference": "Patient/e041bdbf-86a6-4869-b75f-43dd4451c297"
          },
          {
            "reference": "Bundle/c3cb41dc-53ef-437e-9028-f0ebe55a110e"
          },
          {
            "reference": "Composition/a5cc7c1e-96f4-4736-8e25-18446b79f1ce"
          },
          {
            "reference": "PractitionerRole/c0a80312-95f8-4620-aaec-39454230aced"
          },
          {
            "reference": "Practitioner/87ecd591-30a8-4fae-9c1b-f4a56d2ec073"
          },
          {
            "reference": "PractitionerRole/159f9475-ed4e-429d-9615-469ac663ef83"
          },
          {
            "reference": "Organization/89a17e68-125d-49b8-80b8-847aba300c7c"
          }
        ],
        "activity": {
          "text": "Synthetic Example Data Generation"
        },
        "policy": [
          "https://synderai.net/synderai-synthetic-data-policy"
        ],
        "agent": [
          {
            "type": {
              "text": "author"
            },
            "who": {
              "reference": "Device/8cb8f95b-5f5f-451b-9f1b-d7b246d74230"
            }
          }
        ],
        "reason": [
          {
            "text": "Interoperability Testing and Training (non-clinical use)"
          }
        ],
        "text": {
          "status": "generated",
          "div": "<div xmlns=\"http://www.w3.org/1999/xhtml\">Provenance for SYNDERAI Synthetic Example Data Resource</div>"
        },
        "recorded": "2018-03-28T03:07:39Z"
      }
    },
    {
      "fullUrl": "urn:uuid:c0a80312-95f8-4620-aaec-39454230aced",
      "resource": {
        "resourceType": "PractitionerRole",
        "id": "c0a80312-95f8-4620-aaec-39454230aced",
        "meta": {
          "profile": [
            "http://hl7.eu/fhir/base/StructureDefinition/practitionerRole-eu"
          ]
        },
        "text": {
          "status": "generated",
          "div": "<div xmlns=\"http://www.w3.org/1999/xhtml\">Laboratory Role Id: c0a80312-95f8-4620-aaec-39454230aced</div>"
        },
        "practitioner": {
          "reference": "urn:uuid:87ecd591-30a8-4fae-9c1b-f4a56d2ec073"
        }
      }
    },
    {
      "fullUrl": "urn:uuid:87ecd591-30a8-4fae-9c1b-f4a56d2ec073",
      "resource": {
        "resourceType": "Practitioner",
        "id": "87ecd591-30a8-4fae-9c1b-f4a56d2ec073",
        "meta": {
          "profile": [
            "http://hl7.eu/fhir/base/StructureDefinition/practitioner-eu"
          ]
        },
        "identifier": [
          {
            "assigner": {
              "display": "HL7 Europe"
            },
            "system": "urn:oid:2.16.840.1.113883.2.51.999",
            "value": "cd8e6ce7-6dd1-4b65-8622-75d0aaf7a36e"
          }
        ],
        "name": [
          {
            "prefix": [
              "dr"
            ],
            "given": [
              "Ex"
            ],
            "family": "Ample"
          }
        ],
        "address": [
          {
            "line": [
              "Laboratoire Central Européenne",
              "Boulevard du Jardin Botanique 32"
            ],
            "postalCode": "1000",
            "city": "Brussels",
            "country": "Belgium"
          }
        ],
        "text": {
          "status": "generated",
          "div": "<div xmlns=\"http://www.w3.org/1999/xhtml\">Laboratory: Laboratoire Central Européenne, 1000 Brussels, Belgium</div>"
        }
      }
    }
  ],
  "type": "document",
  "timestamp": "2018-03-28T03:07:39Z"
}
