{
  "resourceType": "Bundle",
  "id": "2ee920d2-fe1c-46aa-a31e-cbdbcbd8d204",
  "meta": {
    "profile": [
      "http://hl7.eu/fhir/laboratory/StructureDefinition/Bundle-eu-lab"
    ]
  },
  "identifier": {
    "assigner": {
      "display": "HL7 Europe"
    },
    "system": "urn:oid:2.16.840.1.113883.2.51.999",
    "value": "08b1f0e2-1e5d-402b-87a3-92ec5a9f950a"
  },
  "entry": [
    {
      "fullUrl": "urn:uuid:bbfe53da-3d0a-488d-a6c4-d039a8653f63",
      "resource": {
        "resourceType": "Composition",
        "id": "bbfe53da-3d0a-488d-a6c4-d039a8653f63",
        "meta": {
          "profile": [
            "http://hl7.eu/fhir/laboratory/StructureDefinition/Composition-eu-lab"
          ]
        },
        "identifier": {
          "assigner": {
            "display": "HL7 Europe"
          },
          "system": "urn:oid:2.16.840.1.113883.2.51.999",
          "value": "9079a72b-655b-40fd-9c99-edb91244f1b4"
        },
        "author": [
          {
            "reference": "urn:uuid:7d642918-8fb7-4c5f-82a6-b715a6a4bc76"
          }
        ],
        "category": [
          {
            "coding": [
              {
                "code": "26436-6",
                "system": "http://loinc.org",
                "display": "Laboratory studies (set)"
              }
            ]
          }
        ],
        "type": {
          "coding": [
            {
              "code": "11502-2",
              "system": "http://loinc.org",
              "display": "Laboratory report"
            }
          ],
          "text": "Laboratory Report"
        },
        "section": [
          {
            "code": {
              "coding": [
                {
                  "code": "26436-6",
                  "system": "http://loinc.org",
                  "display": "Laboratory studies (set)"
                }
              ],
              "text": "Laboratory studies"
            },
            "section": [
              {
                "code": {
                  "coding": [
                    {
                      "code": "$18719-5",
                      "system": "http://loinc.org",
                      "display": "Chemistry studies (set)"
                    }
                  ],
                  "text": "Chemistry"
                },
                "entry": [
                  {
                    "reference": "urn:uuid:a2a78793-2658-4202-91bc-eb4f198a8c5e"
                  },
                  {
                    "reference": "urn:uuid:0a62789f-2785-4ee7-8974-8a072697c5c5"
                  },
                  {
                    "reference": "urn:uuid:bc4646c8-a7f5-49f0-b94e-8a0f8436e7e3"
                  },
                  {
                    "reference": "urn:uuid:2eacddab-7072-46ba-adf2-551a9cdef02e"
                  },
                  {
                    "reference": "urn:uuid:3e68a9df-2c52-49a6-875a-18b92b46e4a3"
                  },
                  {
                    "reference": "urn:uuid:b6f8706a-0860-4326-9484-231f2f79dbb1"
                  },
                  {
                    "reference": "urn:uuid:c5f0d033-0a8c-4083-a7e3-6b1891990d87"
                  },
                  {
                    "reference": "urn:uuid:147f6e91-3dd0-43a1-b922-5c7434407d60"
                  },
                  {
                    "reference": "urn:uuid:dc4e856b-cb31-4ec5-9f82-e6aeda3ad283"
                  }
                ],
                "text": {
                  "status": "generated",
                  "div": "<div xmlns=\"http://www.w3.org/1999/xhtml\"><h3>Chemistry</h3><table class=\"hl7__eu__lab__report\"><thead><tr><th>Test</th><th>08-MAR-2016</th><th>Reference&#xA0;Range</th><th>Unit</th></tr></thead><tbody><tr><td>Hemoglobin A1c/Hemoglobin.total in Blood</td><td><strong>5.9 H</strong></td><td>4.8 - 5.7</td><td>%</td></tr><tr><td>Glucose [Mass/volume] in Blood</td><td>71.5</td><td>70 - 100</td><td>mg/dL</td></tr><tr><td>Urea nitrogen [Mass/volume] in Blood</td><td>15.7</td><td>7 - 20</td><td>mg/dL</td></tr><tr><td>Creatinine [Mass/volume] in Blood</td><td>0.7</td><td>0.6 - 1.1</td><td>mg/dL</td></tr><tr><td>Calcium [Mass/volume] in Blood</td><td>9.5</td><td>8.5 - 10.5</td><td>mg/dL</td></tr><tr><td>Sodium [Moles/volume] in Blood</td><td>139.3</td><td>135 - 145</td><td>mmol/L</td></tr><tr><td>Potassium [Moles/volume] in Blood</td><td>5.1</td><td>3.5 - 5.1</td><td>mmol/L</td></tr><tr><td>Chloride [Moles/volume] in Blood</td><td>103.0</td><td>98 - 110</td><td>mmol/L</td></tr><tr><td>Carbon dioxide, total [Moles/volume] in Blood</td><td>27.1</td><td>22 - 29</td><td>mmol/L</td></tr></tbody></table></div>"
                },
                "title": "Chemistry"
              }
            ],
            "title": "Laboratory Report"
          },
          {
            "text": {
              "status": "generated",
              "div": "<div xmlns=\"http://www.w3.org/1999/xhtml\"><h3>Annotation</h3><table class=\"hl7__eu__lab__report\"><tr><th>Conclusion and Recommendations based on this report and previous findings known to us</th></tr><tr><td>All results are within normal limits except for a mildly elevated HbA1c (5.9%), which suggests impaired glucose tolerance or prediabetes. Glucose is currently normal. Recommend clinical correlation and consideration of lifestyle modification and follow-up HbA1c testing. No evidence of renal or electrolyte abnormalities.</td></tr></table></div>"
            },
            "code": {
              "coding": [
                {
                  "system": "http://loinc.org",
                  "code": "48767-8",
                  "display": "Annotation comment"
                }
              ]
            },
            "title": "Annotation comment"
          }
        ],
        "status": "final",
        "subject": {
          "reference": "urn:uuid:ffedba9b-a15c-401e-a3d8-d5bbc4991491",
          "display": "Marina Norbiato"
        },
        "date": "2016-03-08T06:31:43Z",
        "title": "Laboratory Report",
        "confidentiality": "N"
      }
    },
    {
      "fullUrl": "urn:uuid:335815d7-a6c9-4ea0-ba42-933f15defd51",
      "resource": {
        "resourceType": "DiagnosticReport",
        "id": "335815d7-a6c9-4ea0-ba42-933f15defd51",
        "meta": {
          "profile": [
            "http://hl7.eu/fhir/laboratory/StructureDefinition/DiagnosticReport-eu-lab"
          ]
        },
        "identifier": [
          {
            "assigner": {
              "display": "HL7 Europe"
            },
            "system": "urn:oid:2.16.840.1.113883.2.51.999",
            "value": "775e1516-b4e5-4679-a5eb-6184192cbda4"
          }
        ],
        "extension": [
          {
            "url": "http://hl7.org/fhir/5.0/StructureDefinition/extension-DiagnosticReport.composition",
            "valueReference": {
              "reference": "urn:uuid:9079a72b-655b-40fd-9c99-edb91244f1b4"
            }
          }
        ],
        "category": [
          {
            "coding": [
              {
                "code": "26436-6",
                "system": "http://loinc.org",
                "display": "Laboratory studies (set)"
              }
            ]
          }
        ],
        "specimen": [
          {
            "reference": "urn:uuid:efc0daa3-c726-4114-a76e-1bf496aaf96a"
          }
        ],
        "result": [
          {
            "reference": "urn:uuid:a2a78793-2658-4202-91bc-eb4f198a8c5e"
          },
          {
            "reference": "urn:uuid:0a62789f-2785-4ee7-8974-8a072697c5c5"
          },
          {
            "reference": "urn:uuid:bc4646c8-a7f5-49f0-b94e-8a0f8436e7e3"
          },
          {
            "reference": "urn:uuid:2eacddab-7072-46ba-adf2-551a9cdef02e"
          },
          {
            "reference": "urn:uuid:3e68a9df-2c52-49a6-875a-18b92b46e4a3"
          },
          {
            "reference": "urn:uuid:b6f8706a-0860-4326-9484-231f2f79dbb1"
          },
          {
            "reference": "urn:uuid:c5f0d033-0a8c-4083-a7e3-6b1891990d87"
          },
          {
            "reference": "urn:uuid:147f6e91-3dd0-43a1-b922-5c7434407d60"
          },
          {
            "reference": "urn:uuid:dc4e856b-cb31-4ec5-9f82-e6aeda3ad283"
          }
        ],
        "status": "registered",
        "code": {
          "coding": [
            {
              "code": "11502-2",
              "system": "http://loinc.org",
              "display": "Laboratory report"
            }
          ]
        },
        "subject": {
          "reference": "urn:uuid:ffedba9b-a15c-401e-a3d8-d5bbc4991491",
          "display": "Marina Norbiato"
        }
      }
    },
    {
      "fullUrl": "urn:uuid:ffedba9b-a15c-401e-a3d8-d5bbc4991491",
      "resource": {
        "resourceType": "Patient",
        "id": "ffedba9b-a15c-401e-a3d8-d5bbc4991491",
        "meta": {
          "security": [
            {
              "system": "http://terminology.hl7.org/CodeSystem/v3-ActReason",
              "code": "HTEST"
            },
            {
              "system": "http://terminology.hl7.org/CodeSystem/v3-ActReason",
              "code": "TRAIN"
            }
          ],
          "tag": [
            {
              "system": "https://synderai.net/fhir/CodeSystem/tags",
              "code": "synthetic",
              "display": "SYNDERAI Synthetic data"
            }
          ],
          "profile": [
            "http://hl7.eu/fhir/base/StructureDefinition/patient-eu-core"
          ]
        },
        "identifier": [
          {
            "type": {
              "coding": [
                {
                  "code": "PT",
                  "system": "http://terminology.hl7.org/CodeSystem/v2-0203"
                }
              ]
            },
            "system": "http://ec.europa.eu/identifier/eci",
            "value": "5004-598122-7"
          },
          {
            "type": {
              "coding": [
                {
                  "code": "MR",
                  "system": "http://terminology.hl7.org/CodeSystem/v2-0203"
                }
              ]
            },
            "system": "http://local.setting.eu/identifier",
            "value": "35cd3e66-58a0-050b-9928-8805facaac98"
          }
        ],
        "name": [
          {
            "family": "Norbiato"
          },
          {
            "given": [
              "Marina"
            ]
          },
          {
            "text": "Marina Norbiato"
          }
        ],
        "address": [
          {
            "line": [
              "Via Squarcione, 2 Piano 6"
            ],
            "use": "home",
            "type": "physical",
            "postalCode": "25080",
            "city": "Remedello Di Sotto",
            "country": "Italy"
          }
        ],
        "telecom": [
          {
            "system": "phone",
            "value": "016359725"
          }
        ],
        "extension": [
          {
            "url": "http://hl7.org/fhir/StructureDefinition/patient-nationality",
            "valueCodeableConcept": {
              "coding": [
                {
                  "code": "IT",
                  "system": "http://hl7.org/fhir/ValueSet/country"
                }
              ]
            }
          }
        ],
        "text": {
          "status": "generated",
          "div": "<div xmlns=\"http://www.w3.org/1999/xhtml\"><table class=\"hl7__ips\"><tr><td>Marina Norbiato</td><td>female</td><td>30-Aug-1999</td></tr></table></div>"
        },
        "gender": "female",
        "birthDate": "1999-08-30"
      }
    },
    {
      "fullUrl": "urn:uuid:07181cd6-61d4-405b-9a66-e14ab475a4e0",
      "resource": {
        "resourceType": "ServiceRequest",
        "id": "07181cd6-61d4-405b-9a66-e14ab475a4e0",
        "meta": {
          "profile": [
            "http://hl7.eu/fhir/laboratory/StructureDefinition/ServiceRequest-eu-lab"
          ]
        },
        "identifier": [
          {
            "system": "http://example.org",
            "value": "654245cb-5d8e-449d-9c7e-bbe3f210f38e"
          }
        ],
        "specimen": [
          {
            "reference": "urn:uuid:efc0daa3-c726-4114-a76e-1bf496aaf96a"
          }
        ],
        "reasonCode": [
          {
            "coding": [
              {
                "code": "15777000",
                "system": "http://snomed.info/sct",
                "display": "Prediabetes"
              }
            ]
          }
        ],
        "status": "active",
        "intent": "order",
        "code": {
          "coding": [
            {
              "code": "108252007",
              "system": "http://snomed.info/sct",
              "display": "Laboratory procedure"
            }
          ]
        },
        "subject": {
          "reference": "urn:uuid:ffedba9b-a15c-401e-a3d8-d5bbc4991491",
          "display": "Marina Norbiato"
        },
        "requester": {
          "reference": "urn:uuid:0c0e7cd4-cc38-44a1-b97b-afd737dabfaa"
        }
      }
    },
    {
      "fullUrl": "urn:uuid:0c0e7cd4-cc38-44a1-b97b-afd737dabfaa",
      "resource": {
        "resourceType": "PractitionerRole",
        "id": "0c0e7cd4-cc38-44a1-b97b-afd737dabfaa",
        "meta": {
          "profile": [
            "http://hl7.eu/fhir/base/StructureDefinition/practitionerRole-eu"
          ]
        },
        "text": {
          "status": "generated",
          "div": "<div xmlns=\"http://www.w3.org/1999/xhtml\">Provider Role Id: 0c0e7cd4-cc38-44a1-b97b-afd737dabfaa</div>"
        },
        "organization": {
          "reference": "urn:uuid:16366f43-1ca4-4b9a-bac8-2029f2a55661"
        }
      }
    },
    {
      "fullUrl": "urn:uuid:16366f43-1ca4-4b9a-bac8-2029f2a55661",
      "resource": {
        "resourceType": "Organization",
        "id": "16366f43-1ca4-4b9a-bac8-2029f2a55661",
        "meta": {
          "profile": [
            "http://hl7.eu/fhir/base/StructureDefinition/organization-eu"
          ]
        },
        "identifier": [
          {
            "assigner": {
              "display": "HL7 Europe"
            },
            "system": "urn:oid:2.16.840.1.113883.2.51.999",
            "value": "12bb4136-b3d3-4e54-ae26-be224babd7a1"
          }
        ],
        "address": [
          {
            "line": [
              "Piazzetta Donatori di sangue 1"
            ],
            "city": "Leno",
            "postalCode": "25024",
            "country": "Italy"
          }
        ],
        "text": {
          "status": "generated",
          "div": "<div xmlns=\"http://www.w3.org/1999/xhtml\">Provider Organization: Ospedale di Leno</div>"
        },
        "name": "Ospedale di Leno"
      }
    },
    {
      "fullUrl": "urn:uuid:efc0daa3-c726-4114-a76e-1bf496aaf96a",
      "resource": {
        "resourceType": "Specimen",
        "id": "efc0daa3-c726-4114-a76e-1bf496aaf96a",
        "meta": {
          "profile": [
            "http://hl7.eu/fhir/laboratory/StructureDefinition/Specimen-eu-lab"
          ]
        },
        "collection": {
          "collectedDateTime": "2016-03-08"
        },
        "text": {
          "status": "generated",
          "div": "<div xmlns=\"http://www.w3.org/1999/xhtml\"><table class=\"hl7__eu__lab__report\"><tr><th>Specimen</th><th>Collection Date</th></tr><tr><td>Whole blood specimen (specimen)</td><td><span class=\"nb\">08-Mar-2016</span></td></tr></table></div>"
        },
        "type": {
          "coding": [
            {
              "code": "258580003",
              "system": "http://snomed.info/sct",
              "display": "Whole blood specimen (specimen)"
            }
          ]
        }
      }
    },
    {
      "fullUrl": "urn:uuid:a2a78793-2658-4202-91bc-eb4f198a8c5e",
      "resource": {
        "resourceType": "Observation",
        "id": "a2a78793-2658-4202-91bc-eb4f198a8c5e",
        "meta": {
          "profile": [
            "http://hl7.eu/fhir/laboratory/StructureDefinition/Observation-resultslab-eu-lab"
          ]
        },
        "performer": [
          {
            "display": "The Central European Lab"
          }
        ],
        "category": [
          {
            "coding": [
              {
                "system": "http://terminology.hl7.org/CodeSystem/observation-category",
                "code": "laboratory"
              }
            ]
          }
        ],
        "code": {
          "coding": [
            {
              "code": "4548-4",
              "system": "http://loinc.org",
              "display": "Hemoglobin A1c/Hemoglobin.total in Blood"
            }
          ],
          "text": "Hemoglobin A1c/Hemoglobin.total in Blood"
        },
        "valueQuantity": {
          "system": "http://unitsofmeasure.org",
          "value": 5.9,
          "unit": "%",
          "code": "%"
        },
        "referenceRange": [
          {
            "low": {
              "value": 4.8,
              "code": "%",
              "system": "http://unitsofmeasure.org"
            }
          },
          {
            "high": {
              "value": 5.7,
              "code": "%",
              "system": "http://unitsofmeasure.org"
            }
          }
        ],
        "interpretation": [
          {
            "coding": [
              {
                "code": "H",
                "system": "http://terminology.hl7.org/CodeSystem/v3-ObservationInterpretation",
                "display": "High"
              }
            ]
          }
        ],
        "text": {
          "status": "generated",
          "div": "<div xmlns=\"http://www.w3.org/1999/xhtml\"><table class=\"hl7__eu__lab__report\"><tr><th>Test</th><th>08-Mar-2016</th><th>Reference&#xA0;Range</th><th>Unit</th></tr><tr><td>Hemoglobin A1c/Hemoglobin.total in Blood</td><td>5.9</td><td>4.8 - 5.7</td><td>H</td><td>%</td></tr></table></div>"
        },
        "status": "final",
        "subject": {
          "reference": "urn:uuid:ffedba9b-a15c-401e-a3d8-d5bbc4991491",
          "display": "Marina Norbiato"
        },
        "effectiveDateTime": "2016-03-08T05:31:43Z",
        "specimen": {
          "reference": "urn:uuid:efc0daa3-c726-4114-a76e-1bf496aaf96a"
        }
      }
    },
    {
      "fullUrl": "urn:uuid:0a62789f-2785-4ee7-8974-8a072697c5c5",
      "resource": {
        "resourceType": "Observation",
        "id": "0a62789f-2785-4ee7-8974-8a072697c5c5",
        "meta": {
          "profile": [
            "http://hl7.eu/fhir/laboratory/StructureDefinition/Observation-resultslab-eu-lab"
          ]
        },
        "performer": [
          {
            "display": "The Central European Lab"
          }
        ],
        "category": [
          {
            "coding": [
              {
                "system": "http://terminology.hl7.org/CodeSystem/observation-category",
                "code": "laboratory"
              }
            ]
          }
        ],
        "code": {
          "coding": [
            {
              "code": "2339-0",
              "system": "http://loinc.org",
              "display": "Glucose [Mass/volume] in Blood"
            }
          ],
          "text": "Glucose [Mass/volume] in Blood"
        },
        "valueQuantity": {
          "system": "http://unitsofmeasure.org",
          "value": 71.5,
          "unit": "mg/dL",
          "code": "mg/dL"
        },
        "referenceRange": [
          {
            "low": {
              "value": 70,
              "code": "mg/dL",
              "system": "http://unitsofmeasure.org"
            }
          },
          {
            "high": {
              "value": 100,
              "code": "mg/dL",
              "system": "http://unitsofmeasure.org"
            }
          }
        ],
        "text": {
          "status": "generated",
          "div": "<div xmlns=\"http://www.w3.org/1999/xhtml\"><table class=\"hl7__eu__lab__report\"><tr><th>Test</th><th>08-Mar-2016</th><th>Reference&#xA0;Range</th><th>Unit</th></tr><tr><td>Glucose [Mass/volume] in Blood</td><td>71.5</td><td>70 - 100</td><td></td><td>mg/dL</td></tr></table></div>"
        },
        "status": "final",
        "subject": {
          "reference": "urn:uuid:ffedba9b-a15c-401e-a3d8-d5bbc4991491",
          "display": "Marina Norbiato"
        },
        "effectiveDateTime": "2016-03-08T05:31:43Z",
        "specimen": {
          "reference": "urn:uuid:efc0daa3-c726-4114-a76e-1bf496aaf96a"
        }
      }
    },
    {
      "fullUrl": "urn:uuid:bc4646c8-a7f5-49f0-b94e-8a0f8436e7e3",
      "resource": {
        "resourceType": "Observation",
        "id": "bc4646c8-a7f5-49f0-b94e-8a0f8436e7e3",
        "meta": {
          "profile": [
            "http://hl7.eu/fhir/laboratory/StructureDefinition/Observation-resultslab-eu-lab"
          ]
        },
        "performer": [
          {
            "display": "The Central European Lab"
          }
        ],
        "category": [
          {
            "coding": [
              {
                "system": "http://terminology.hl7.org/CodeSystem/observation-category",
                "code": "laboratory"
              }
            ]
          }
        ],
        "code": {
          "coding": [
            {
              "code": "6299-2",
              "system": "http://loinc.org",
              "display": "Urea nitrogen [Mass/volume] in Blood"
            }
          ],
          "text": "Urea nitrogen [Mass/volume] in Blood"
        },
        "valueQuantity": {
          "system": "http://unitsofmeasure.org",
          "value": 15.7,
          "unit": "mg/dL",
          "code": "mg/dL"
        },
        "referenceRange": [
          {
            "low": {
              "value": 7,
              "code": "mg/dL",
              "system": "http://unitsofmeasure.org"
            }
          },
          {
            "high": {
              "value": 20,
              "code": "mg/dL",
              "system": "http://unitsofmeasure.org"
            }
          }
        ],
        "text": {
          "status": "generated",
          "div": "<div xmlns=\"http://www.w3.org/1999/xhtml\"><table class=\"hl7__eu__lab__report\"><tr><th>Test</th><th>08-Mar-2016</th><th>Reference&#xA0;Range</th><th>Unit</th></tr><tr><td>Urea nitrogen [Mass/volume] in Blood</td><td>15.7</td><td>7 - 20</td><td></td><td>mg/dL</td></tr></table></div>"
        },
        "status": "final",
        "subject": {
          "reference": "urn:uuid:ffedba9b-a15c-401e-a3d8-d5bbc4991491",
          "display": "Marina Norbiato"
        },
        "effectiveDateTime": "2016-03-08T05:31:43Z",
        "specimen": {
          "reference": "urn:uuid:efc0daa3-c726-4114-a76e-1bf496aaf96a"
        }
      }
    },
    {
      "fullUrl": "urn:uuid:2eacddab-7072-46ba-adf2-551a9cdef02e",
      "resource": {
        "resourceType": "Observation",
        "id": "2eacddab-7072-46ba-adf2-551a9cdef02e",
        "meta": {
          "profile": [
            "http://hl7.eu/fhir/laboratory/StructureDefinition/Observation-resultslab-eu-lab"
          ]
        },
        "performer": [
          {
            "display": "The Central European Lab"
          }
        ],
        "category": [
          {
            "coding": [
              {
                "system": "http://terminology.hl7.org/CodeSystem/observation-category",
                "code": "laboratory"
              }
            ]
          }
        ],
        "code": {
          "coding": [
            {
              "code": "38483-4",
              "system": "http://loinc.org",
              "display": "Creatinine [Mass/volume] in Blood"
            }
          ],
          "text": "Creatinine [Mass/volume] in Blood"
        },
        "valueQuantity": {
          "system": "http://unitsofmeasure.org",
          "value": 0.7,
          "unit": "mg/dL",
          "code": "mg/dL"
        },
        "referenceRange": [
          {
            "low": {
              "value": 0.6,
              "code": "mg/dL",
              "system": "http://unitsofmeasure.org"
            }
          },
          {
            "high": {
              "value": 1.1,
              "code": "mg/dL",
              "system": "http://unitsofmeasure.org"
            }
          }
        ],
        "text": {
          "status": "generated",
          "div": "<div xmlns=\"http://www.w3.org/1999/xhtml\"><table class=\"hl7__eu__lab__report\"><tr><th>Test</th><th>08-Mar-2016</th><th>Reference&#xA0;Range</th><th>Unit</th></tr><tr><td>Creatinine [Mass/volume] in Blood</td><td>0.7</td><td>0.6 - 1.1</td><td></td><td>mg/dL</td></tr></table></div>"
        },
        "status": "final",
        "subject": {
          "reference": "urn:uuid:ffedba9b-a15c-401e-a3d8-d5bbc4991491",
          "display": "Marina Norbiato"
        },
        "effectiveDateTime": "2016-03-08T05:31:43Z",
        "specimen": {
          "reference": "urn:uuid:efc0daa3-c726-4114-a76e-1bf496aaf96a"
        }
      }
    },
    {
      "fullUrl": "urn:uuid:3e68a9df-2c52-49a6-875a-18b92b46e4a3",
      "resource": {
        "resourceType": "Observation",
        "id": "3e68a9df-2c52-49a6-875a-18b92b46e4a3",
        "meta": {
          "profile": [
            "http://hl7.eu/fhir/laboratory/StructureDefinition/Observation-resultslab-eu-lab"
          ]
        },
        "performer": [
          {
            "display": "The Central European Lab"
          }
        ],
        "category": [
          {
            "coding": [
              {
                "system": "http://terminology.hl7.org/CodeSystem/observation-category",
                "code": "laboratory"
              }
            ]
          }
        ],
        "code": {
          "coding": [
            {
              "code": "49765-1",
              "system": "http://loinc.org",
              "display": "Calcium [Mass/volume] in Blood"
            }
          ],
          "text": "Calcium [Mass/volume] in Blood"
        },
        "valueQuantity": {
          "system": "http://unitsofmeasure.org",
          "value": 9.5,
          "unit": "mg/dL",
          "code": "mg/dL"
        },
        "referenceRange": [
          {
            "low": {
              "value": 8.5,
              "code": "mg/dL",
              "system": "http://unitsofmeasure.org"
            }
          },
          {
            "high": {
              "value": 10.5,
              "code": "mg/dL",
              "system": "http://unitsofmeasure.org"
            }
          }
        ],
        "text": {
          "status": "generated",
          "div": "<div xmlns=\"http://www.w3.org/1999/xhtml\"><table class=\"hl7__eu__lab__report\"><tr><th>Test</th><th>08-Mar-2016</th><th>Reference&#xA0;Range</th><th>Unit</th></tr><tr><td>Calcium [Mass/volume] in Blood</td><td>9.5</td><td>8.5 - 10.5</td><td></td><td>mg/dL</td></tr></table></div>"
        },
        "status": "final",
        "subject": {
          "reference": "urn:uuid:ffedba9b-a15c-401e-a3d8-d5bbc4991491",
          "display": "Marina Norbiato"
        },
        "effectiveDateTime": "2016-03-08T05:31:43Z",
        "specimen": {
          "reference": "urn:uuid:efc0daa3-c726-4114-a76e-1bf496aaf96a"
        }
      }
    },
    {
      "fullUrl": "urn:uuid:b6f8706a-0860-4326-9484-231f2f79dbb1",
      "resource": {
        "resourceType": "Observation",
        "id": "b6f8706a-0860-4326-9484-231f2f79dbb1",
        "meta": {
          "profile": [
            "http://hl7.eu/fhir/laboratory/StructureDefinition/Observation-resultslab-eu-lab"
          ]
        },
        "performer": [
          {
            "display": "The Central European Lab"
          }
        ],
        "category": [
          {
            "coding": [
              {
                "system": "http://terminology.hl7.org/CodeSystem/observation-category",
                "code": "laboratory"
              }
            ]
          }
        ],
        "code": {
          "coding": [
            {
              "code": "2947-0",
              "system": "http://loinc.org",
              "display": "Sodium [Moles/volume] in Blood"
            }
          ],
          "text": "Sodium [Moles/volume] in Blood"
        },
        "valueQuantity": {
          "system": "http://unitsofmeasure.org",
          "value": 139.3,
          "unit": "mmol/L",
          "code": "mmol/L"
        },
        "referenceRange": [
          {
            "low": {
              "value": 135,
              "code": "mmol/L",
              "system": "http://unitsofmeasure.org"
            }
          },
          {
            "high": {
              "value": 145,
              "code": "mmol/L",
              "system": "http://unitsofmeasure.org"
            }
          }
        ],
        "text": {
          "status": "generated",
          "div": "<div xmlns=\"http://www.w3.org/1999/xhtml\"><table class=\"hl7__eu__lab__report\"><tr><th>Test</th><th>08-Mar-2016</th><th>Reference&#xA0;Range</th><th>Unit</th></tr><tr><td>Sodium [Moles/volume] in Blood</td><td>139.3</td><td>135 - 145</td><td></td><td>mmol/L</td></tr></table></div>"
        },
        "status": "final",
        "subject": {
          "reference": "urn:uuid:ffedba9b-a15c-401e-a3d8-d5bbc4991491",
          "display": "Marina Norbiato"
        },
        "effectiveDateTime": "2016-03-08T05:31:43Z",
        "specimen": {
          "reference": "urn:uuid:efc0daa3-c726-4114-a76e-1bf496aaf96a"
        }
      }
    },
    {
      "fullUrl": "urn:uuid:c5f0d033-0a8c-4083-a7e3-6b1891990d87",
      "resource": {
        "resourceType": "Observation",
        "id": "c5f0d033-0a8c-4083-a7e3-6b1891990d87",
        "meta": {
          "profile": [
            "http://hl7.eu/fhir/laboratory/StructureDefinition/Observation-resultslab-eu-lab"
          ]
        },
        "performer": [
          {
            "display": "The Central European Lab"
          }
        ],
        "category": [
          {
            "coding": [
              {
                "system": "http://terminology.hl7.org/CodeSystem/observation-category",
                "code": "laboratory"
              }
            ]
          }
        ],
        "code": {
          "coding": [
            {
              "code": "6298-4",
              "system": "http://loinc.org",
              "display": "Potassium [Moles/volume] in Blood"
            }
          ],
          "text": "Potassium [Moles/volume] in Blood"
        },
        "valueQuantity": {
          "system": "http://unitsofmeasure.org",
          "value": 5.1,
          "unit": "mmol/L",
          "code": "mmol/L"
        },
        "referenceRange": [
          {
            "low": {
              "value": 3.5,
              "code": "mmol/L",
              "system": "http://unitsofmeasure.org"
            }
          },
          {
            "high": {
              "value": 5.1,
              "code": "mmol/L",
              "system": "http://unitsofmeasure.org"
            }
          }
        ],
        "text": {
          "status": "generated",
          "div": "<div xmlns=\"http://www.w3.org/1999/xhtml\"><table class=\"hl7__eu__lab__report\"><tr><th>Test</th><th>08-Mar-2016</th><th>Reference&#xA0;Range</th><th>Unit</th></tr><tr><td>Potassium [Moles/volume] in Blood</td><td>5.1</td><td>3.5 - 5.1</td><td></td><td>mmol/L</td></tr></table></div>"
        },
        "status": "final",
        "subject": {
          "reference": "urn:uuid:ffedba9b-a15c-401e-a3d8-d5bbc4991491",
          "display": "Marina Norbiato"
        },
        "effectiveDateTime": "2016-03-08T05:31:43Z",
        "specimen": {
          "reference": "urn:uuid:efc0daa3-c726-4114-a76e-1bf496aaf96a"
        }
      }
    },
    {
      "fullUrl": "urn:uuid:147f6e91-3dd0-43a1-b922-5c7434407d60",
      "resource": {
        "resourceType": "Observation",
        "id": "147f6e91-3dd0-43a1-b922-5c7434407d60",
        "meta": {
          "profile": [
            "http://hl7.eu/fhir/laboratory/StructureDefinition/Observation-resultslab-eu-lab"
          ]
        },
        "performer": [
          {
            "display": "The Central European Lab"
          }
        ],
        "category": [
          {
            "coding": [
              {
                "system": "http://terminology.hl7.org/CodeSystem/observation-category",
                "code": "laboratory"
              }
            ]
          }
        ],
        "code": {
          "coding": [
            {
              "code": "2069-3",
              "system": "http://loinc.org",
              "display": "Chloride [Moles/volume] in Blood"
            }
          ],
          "text": "Chloride [Moles/volume] in Blood"
        },
        "valueQuantity": {
          "system": "http://unitsofmeasure.org",
          "value": 103,
          "unit": "mmol/L",
          "code": "mmol/L"
        },
        "referenceRange": [
          {
            "low": {
              "value": 98,
              "code": "mmol/L",
              "system": "http://unitsofmeasure.org"
            }
          },
          {
            "high": {
              "value": 110,
              "code": "mmol/L",
              "system": "http://unitsofmeasure.org"
            }
          }
        ],
        "text": {
          "status": "generated",
          "div": "<div xmlns=\"http://www.w3.org/1999/xhtml\"><table class=\"hl7__eu__lab__report\"><tr><th>Test</th><th>08-Mar-2016</th><th>Reference&#xA0;Range</th><th>Unit</th></tr><tr><td>Chloride [Moles/volume] in Blood</td><td>103.0</td><td>98 - 110</td><td></td><td>mmol/L</td></tr></table></div>"
        },
        "status": "final",
        "subject": {
          "reference": "urn:uuid:ffedba9b-a15c-401e-a3d8-d5bbc4991491",
          "display": "Marina Norbiato"
        },
        "effectiveDateTime": "2016-03-08T05:31:43Z",
        "specimen": {
          "reference": "urn:uuid:efc0daa3-c726-4114-a76e-1bf496aaf96a"
        }
      }
    },
    {
      "fullUrl": "urn:uuid:dc4e856b-cb31-4ec5-9f82-e6aeda3ad283",
      "resource": {
        "resourceType": "Observation",
        "id": "dc4e856b-cb31-4ec5-9f82-e6aeda3ad283",
        "meta": {
          "profile": [
            "http://hl7.eu/fhir/laboratory/StructureDefinition/Observation-resultslab-eu-lab"
          ]
        },
        "performer": [
          {
            "display": "The Central European Lab"
          }
        ],
        "category": [
          {
            "coding": [
              {
                "system": "http://terminology.hl7.org/CodeSystem/observation-category",
                "code": "laboratory"
              }
            ]
          }
        ],
        "code": {
          "coding": [
            {
              "code": "20565-8",
              "system": "http://loinc.org",
              "display": "Carbon dioxide, total [Moles/volume] in Blood"
            }
          ],
          "text": "Carbon dioxide, total [Moles/volume] in Blood"
        },
        "valueQuantity": {
          "system": "http://unitsofmeasure.org",
          "value": 27.1,
          "unit": "mmol/L",
          "code": "mmol/L"
        },
        "referenceRange": [
          {
            "low": {
              "value": 22,
              "code": "mmol/L",
              "system": "http://unitsofmeasure.org"
            }
          },
          {
            "high": {
              "value": 29,
              "code": "mmol/L",
              "system": "http://unitsofmeasure.org"
            }
          }
        ],
        "text": {
          "status": "generated",
          "div": "<div xmlns=\"http://www.w3.org/1999/xhtml\"><table class=\"hl7__eu__lab__report\"><tr><th>Test</th><th>08-Mar-2016</th><th>Reference&#xA0;Range</th><th>Unit</th></tr><tr><td>Carbon dioxide, total [Moles/volume] in Blood</td><td>27.1</td><td>22 - 29</td><td></td><td>mmol/L</td></tr></table></div>"
        },
        "status": "final",
        "subject": {
          "reference": "urn:uuid:ffedba9b-a15c-401e-a3d8-d5bbc4991491",
          "display": "Marina Norbiato"
        },
        "effectiveDateTime": "2016-03-08T05:31:43Z",
        "specimen": {
          "reference": "urn:uuid:efc0daa3-c726-4114-a76e-1bf496aaf96a"
        }
      }
    },
    {
      "fullUrl": "urn:uuid:d8471dc3-6c9a-4308-bd6b-9e73b45a7ca8",
      "resource": {
        "resourceType": "Device",
        "id": "d8471dc3-6c9a-4308-bd6b-9e73b45a7ca8",
        "deviceName": [
          {
            "name": "SYNDERAI Synthetic Generator",
            "type": "manufacturer-name"
          }
        ],
        "version": [
          {
            "value": "5.0"
          }
        ],
        "text": {
          "status": "generated",
          "div": "<div xmlns=\"http://www.w3.org/1999/xhtml\">SYNDERAI Synthetic Generator v5.0</div>"
        },
        "status": "active\"",
        "distinctIdentifier": "synderai-generator-50",
        "manufacturer": "SYNDERAI Project"
      }
    },
    {
      "fullUrl": "urn:uuid:7b76915d-803e-4ed7-8492-7c8a5efd182f",
      "resource": {
        "resourceType": "Provenance",
        "id": "7b76915d-803e-4ed7-8492-7c8a5efd182f",
        "target": [
          {
            "reference": "Patient/ffedba9b-a15c-401e-a3d8-d5bbc4991491"
          },
          {
            "reference": "Bundle/2ee920d2-fe1c-46aa-a31e-cbdbcbd8d204"
          },
          {
            "reference": "Composition/bbfe53da-3d0a-488d-a6c4-d039a8653f63"
          },
          {
            "reference": "PractitionerRole/7d642918-8fb7-4c5f-82a6-b715a6a4bc76"
          },
          {
            "reference": "Practitioner/3922ea92-f756-468f-85b5-a97b3dd72a3b"
          },
          {
            "reference": "PractitionerRole/0c0e7cd4-cc38-44a1-b97b-afd737dabfaa"
          },
          {
            "reference": "Organization/16366f43-1ca4-4b9a-bac8-2029f2a55661"
          }
        ],
        "activity": {
          "text": "Synthetic Example Data Generation"
        },
        "policy": [
          "https://synderai.net/synderai-synthetic-data-policy"
        ],
        "agent": [
          {
            "type": {
              "text": "author"
            },
            "who": {
              "reference": "Device/d8471dc3-6c9a-4308-bd6b-9e73b45a7ca8"
            }
          }
        ],
        "reason": [
          {
            "text": "Interoperability Testing and Training (non-clinical use)"
          }
        ],
        "text": {
          "status": "generated",
          "div": "<div xmlns=\"http://www.w3.org/1999/xhtml\">Provenance for SYNDERAI Synthetic Example Data Resource</div>"
        },
        "recorded": "2016-03-08T06:31:43Z"
      }
    },
    {
      "fullUrl": "urn:uuid:7d642918-8fb7-4c5f-82a6-b715a6a4bc76",
      "resource": {
        "resourceType": "PractitionerRole",
        "id": "7d642918-8fb7-4c5f-82a6-b715a6a4bc76",
        "meta": {
          "profile": [
            "http://hl7.eu/fhir/base/StructureDefinition/practitionerRole-eu"
          ]
        },
        "text": {
          "status": "generated",
          "div": "<div xmlns=\"http://www.w3.org/1999/xhtml\">Laboratory Role Id: 7d642918-8fb7-4c5f-82a6-b715a6a4bc76</div>"
        },
        "practitioner": {
          "reference": "urn:uuid:3922ea92-f756-468f-85b5-a97b3dd72a3b"
        }
      }
    },
    {
      "fullUrl": "urn:uuid:3922ea92-f756-468f-85b5-a97b3dd72a3b",
      "resource": {
        "resourceType": "Practitioner",
        "id": "3922ea92-f756-468f-85b5-a97b3dd72a3b",
        "meta": {
          "profile": [
            "http://hl7.eu/fhir/base/StructureDefinition/practitioner-eu"
          ]
        },
        "identifier": [
          {
            "assigner": {
              "display": "HL7 Europe"
            },
            "system": "urn:oid:2.16.840.1.113883.2.51.999",
            "value": "86ffa337-8a2c-48c1-8a8e-1aeb32e35fc3"
          }
        ],
        "name": [
          {
            "prefix": [
              "dr"
            ],
            "given": [
              "Ex"
            ],
            "family": "Ample"
          }
        ],
        "address": [
          {
            "line": [
              "Laboratoire Central Européenne",
              "Boulevard du Jardin Botanique 32"
            ],
            "postalCode": "1000",
            "city": "Brussels",
            "country": "Belgium"
          }
        ],
        "text": {
          "status": "generated",
          "div": "<div xmlns=\"http://www.w3.org/1999/xhtml\">Laboratory: Laboratoire Central Européenne, 1000 Brussels, Belgium</div>"
        }
      }
    }
  ],
  "type": "document",
  "timestamp": "2016-03-08T06:31:43Z"
}
