{
  "resourceType": "Bundle",
  "id": "74c39980-96b8-4a1c-b918-c1eb80cafe77",
  "meta": {
    "profile": [
      "http://hl7.eu/fhir/laboratory/StructureDefinition/Bundle-eu-lab"
    ]
  },
  "identifier": {
    "assigner": {
      "display": "HL7 Europe"
    },
    "system": "urn:oid:2.16.840.1.113883.2.51.999",
    "value": "fef3dca6-4225-490e-bc27-58ec74e067d7"
  },
  "entry": [
    {
      "fullUrl": "urn:uuid:23ecc64a-1109-403b-8704-3b2a123875dc",
      "resource": {
        "resourceType": "Composition",
        "id": "23ecc64a-1109-403b-8704-3b2a123875dc",
        "meta": {
          "profile": [
            "http://hl7.eu/fhir/laboratory/StructureDefinition/Composition-eu-lab"
          ]
        },
        "identifier": {
          "assigner": {
            "display": "HL7 Europe"
          },
          "system": "urn:oid:2.16.840.1.113883.2.51.999",
          "value": "5cfc9a2d-4a80-4ecb-9236-fa4332c6dfed"
        },
        "author": [
          {
            "reference": "urn:uuid:c7d911bd-f0a4-4b21-9f05-d3ddaaa55297"
          }
        ],
        "category": [
          {
            "coding": [
              {
                "code": "26436-6",
                "system": "http://loinc.org",
                "display": "Laboratory studies (set)"
              }
            ]
          }
        ],
        "type": {
          "coding": [
            {
              "code": "11502-2",
              "system": "http://loinc.org",
              "display": "Laboratory report"
            }
          ],
          "text": "Laboratory Report"
        },
        "section": [
          {
            "code": {
              "coding": [
                {
                  "code": "26436-6",
                  "system": "http://loinc.org",
                  "display": "Laboratory studies (set)"
                }
              ],
              "text": "Laboratory studies"
            },
            "section": [
              {
                "code": {
                  "coding": [
                    {
                      "code": "$18719-5",
                      "system": "http://loinc.org",
                      "display": "Chemistry studies (set)"
                    }
                  ],
                  "text": "Chemistry"
                },
                "entry": [
                  {
                    "reference": "urn:uuid:5dfb72a1-6bb3-4757-9597-89e72eb06fc9"
                  },
                  {
                    "reference": "urn:uuid:e78a5cf1-41e9-47d1-9457-dd97c990adcf"
                  },
                  {
                    "reference": "urn:uuid:f96b9459-3192-43da-a502-7c27f7366c6a"
                  },
                  {
                    "reference": "urn:uuid:7e0f5a8a-4d6c-4077-bd53-7ee571195b60"
                  },
                  {
                    "reference": "urn:uuid:855a5df4-5b8f-497e-b518-c4b607289e87"
                  },
                  {
                    "reference": "urn:uuid:d4b9ffdd-2a5e-4fda-a653-4ee38e5678ab"
                  },
                  {
                    "reference": "urn:uuid:bffcca01-d92f-452c-bf2f-b457cf77ef7c"
                  },
                  {
                    "reference": "urn:uuid:608fc56c-65df-4772-8098-1736e6e49b5b"
                  },
                  {
                    "reference": "urn:uuid:bd9b16c7-f1c0-45bb-b54b-4f0c672798ae"
                  },
                  {
                    "reference": "urn:uuid:63cdd6a4-8d6c-4ac4-a674-5f5ae61f8655"
                  },
                  {
                    "reference": "urn:uuid:e36f8c47-27ff-49f7-8069-2eb06b084969"
                  },
                  {
                    "reference": "urn:uuid:54b0da36-cdc7-4191-81d1-e49aaafc4118"
                  },
                  {
                    "reference": "urn:uuid:d620b333-2904-4bf0-bf8e-f958e78af09c"
                  },
                  {
                    "reference": "urn:uuid:e435bf89-4834-4f67-9b00-5da63bca16e4"
                  },
                  {
                    "reference": "urn:uuid:b3386c69-d1be-49e3-9ef9-263432a1f394"
                  },
                  {
                    "reference": "urn:uuid:1dc25b39-04ce-444f-b753-71f6d339e090"
                  }
                ],
                "text": {
                  "status": "generated",
                  "div": "<div xmlns=\"http://www.w3.org/1999/xhtml\"><h3>Chemistry</h3><table class=\"hl7__eu__lab__report\"><thead><tr><th>Test</th><th>28-AUG-2017</th><th>Reference&#xA0;Range</th><th>Unit</th></tr></thead><tbody><tr><td>Glucose [Mass/volume] in Blood</td><td>93.8</td><td>70 - 140</td><td>mg/dL</td></tr><tr><td>Urea nitrogen [Mass/volume] in Blood</td><td>16.8</td><td>7 - 30</td><td>mg/dL</td></tr><tr><td>Creatinine [Mass/volume] in Blood</td><td><strong>3.3 H</strong></td><td>0.5 - 1.3</td><td>mg/dL</td></tr><tr><td>Calcium [Mass/volume] in Blood</td><td>9.6</td><td>8.6 - 10.2</td><td>mg/dL</td></tr><tr><td>Sodium [Moles/volume] in Blood</td><td>141.6</td><td>135 - 145</td><td>mmol/L</td></tr><tr><td>Potassium [Moles/volume] in Blood</td><td>4.5</td><td>3.5 - 5.1</td><td>mmol/L</td></tr><tr><td>Chloride [Moles/volume] in Blood</td><td>107.7</td><td>98 - 114</td><td>mmol/L</td></tr><tr><td>Carbon dioxide, total [Moles/volume] in Blood</td><td>23.7</td><td>22 - 32</td><td>mmol/L</td></tr><tr><td>Protein [Mass/volume] in Serum or Plasma</td><td>6.2</td><td>6 - 8.3</td><td>g/dL</td></tr><tr><td>Albumin [Mass/volume] in Serum or Plasma</td><td>5.5</td><td>3.5 - 5.5</td><td>g/dL</td></tr><tr><td>Globulin [Mass/volume] in Serum by calculation</td><td>2.5</td><td>2 - 3.5</td><td>g/L</td></tr><tr><td>Bilirubin.total [Mass/volume] in Serum or Plasma</td><td>1.2</td><td>0.3 - 1.2</td><td>mg/dL</td></tr><tr><td>Alkaline phosphatase [Enzymatic activity/volume] in Serum or Plasma</td><td>93.7</td><td>44 - 142</td><td>U/L</td></tr><tr><td>Alanine aminotransferase [Enzymatic activity/volume] in Serum or Plasma</td><td><strong>59.1 H</strong></td><td>7 - 40</td><td>U/L</td></tr><tr><td>Aspartate aminotransferase [Enzymatic activity/volume] in Serum or Plasma</td><td>23.3</td><td>10 - 40</td><td>U/L</td></tr><tr><td>Ketones [Presence] in Urine by Test strip</td><td>Urine ketone test = +++</td><td></td><td></td></tr></tbody></table></div>"
                },
                "title": "Chemistry"
              },
              {
                "code": {
                  "coding": [
                    {
                      "code": "$18729-4",
                      "system": "http://loinc.org",
                      "display": "Urinalysis studies (set)"
                    }
                  ],
                  "text": "Urinalysis"
                },
                "entry": [
                  {
                    "reference": "urn:uuid:71556cc8-6c53-4374-8993-8603963e11c3"
                  },
                  {
                    "reference": "urn:uuid:9faf9e83-7793-459d-9fde-19fca9c2a8ac"
                  },
                  {
                    "reference": "urn:uuid:44e1ac85-7ffa-4424-9a63-9a6f06345222"
                  },
                  {
                    "reference": "urn:uuid:3cc718ae-22ff-4f6a-bddf-10b1651f926d"
                  },
                  {
                    "reference": "urn:uuid:3fee4434-110a-4c75-81b6-0848169326e4"
                  },
                  {
                    "reference": "urn:uuid:a6931cbf-387e-4c97-89d9-1c0408261e82"
                  },
                  {
                    "reference": "urn:uuid:31ecb52f-0326-4b82-a54f-897adb7007c0"
                  },
                  {
                    "reference": "urn:uuid:f29d4d8b-2deb-4d9a-9d6b-7806aaf4d365"
                  },
                  {
                    "reference": "urn:uuid:278b87f8-54fb-4c28-a6a0-7f78a5306146"
                  },
                  {
                    "reference": "urn:uuid:99a7b05d-3977-4299-a968-12646cbc6495"
                  },
                  {
                    "reference": "urn:uuid:269b4142-3f91-43ab-9e6e-ac2c83c3fb9c"
                  },
                  {
                    "reference": "urn:uuid:a98bc769-2d09-4948-b2a3-a46e0ed72ff6"
                  }
                ],
                "text": {
                  "status": "generated",
                  "div": "<div xmlns=\"http://www.w3.org/1999/xhtml\"><h3>Urinalysis</h3><table class=\"hl7__eu__lab__report\"><thead><tr><th>Test</th><th>28-AUG-2017</th><th>Reference&#xA0;Range</th><th>Unit</th></tr></thead><tbody><tr><td>Glucose [Mass/volume] in Urine by Test strip</td><td><strong>1.6 H</strong></td><td>0.8 - 0</td><td>mg/dL</td></tr><tr><td>Glucose [Presence] in Urine by Test strip</td><td>++</td><td></td><td></td></tr><tr><td>Bilirubin.total [Mass/volume] in Urine by Test strip</td><td>1.0</td><td>0 - 1.5</td><td>mg/dL</td></tr><tr><td>Bilirubin.total [Presence] in Urine by Test strip</td><td>Finding of bilirubin in urine</td><td></td><td></td></tr><tr><td>Ketones [Mass/volume] in Urine by Test strip</td><td>7.3</td><td>0 - 8</td><td>mg/dL</td></tr><tr><td>Specific gravity of Urine by Test strip</td><td><strong>1.0 L</strong></td><td>1.01 - 1.03</td><td>{nominal}</td></tr><tr><td>pH of Urine by Test strip</td><td>5.8</td><td>4.6 - 7.5</td><td>pH</td></tr><tr><td>Protein [Mass/volume] in Urine by Test strip</td><td><strong>260.2 H</strong></td><td>0 - 14</td><td>mg/dL</td></tr><tr><td>Protein [Presence] in Urine by Test strip</td><td>Urine protein test = +++</td><td></td><td></td></tr><tr><td>Nitrite [Presence] in Urine by Test strip</td><td>Urine nitrite negative</td><td></td><td></td></tr><tr><td>Hemoglobin [Presence] in Urine by Test strip</td><td>Urine blood test = negative</td><td></td><td></td></tr><tr><td>Leukocyte esterase [Presence] in Urine by Test strip</td><td>Urine leukocyte test negative</td><td></td><td></td></tr></tbody></table></div>"
                },
                "title": "Urinalysis"
              },
              {
                "code": {
                  "coding": [
                    {
                      "code": "$LP7846-1",
                      "system": "http://loinc.org",
                      "display": "Specimen information"
                    }
                  ],
                  "text": "Specimen information"
                },
                "entry": [
                  {
                    "reference": "urn:uuid:1886ea28-2ad6-4964-b9ab-fb15daa6aad3"
                  },
                  {
                    "reference": "urn:uuid:f848a616-e440-4895-8a39-46bcfa5d4f22"
                  },
                  {
                    "reference": "urn:uuid:b379e8ae-7153-4ac5-a3d3-ce76deff440f"
                  },
                  {
                    "reference": "urn:uuid:dc660347-7b7f-497f-89cd-723db7e14725"
                  }
                ],
                "text": {
                  "status": "generated",
                  "div": "<div xmlns=\"http://www.w3.org/1999/xhtml\"><h3>Specimen information</h3><table class=\"hl7__eu__lab__report\"><thead><tr><th>Test</th><th>28-AUG-2017</th><th>Specimen</th><th></th></tr></thead><tbody><tr><td>Appearance of Urine</td><td>Cloudy urine</td><td>Urine</td><td></td></tr><tr><td>Odor of Urine</td><td>Urine smell ammoniacal</td><td>Urine</td><td></td></tr><tr><td>Clarity of Urine</td><td>Translucent</td><td>Urine</td><td></td></tr><tr><td>Color of Urine</td><td>Brown color</td><td>Urine</td><td></td></tr></tbody></table></div>"
                },
                "title": "Specimen information"
              }
            ],
            "title": "Laboratory Report"
          },
          {
            "text": {
              "status": "generated",
              "div": "<div xmlns=\"http://www.w3.org/1999/xhtml\"><h3>Annotation</h3><table class=\"hl7__eu__lab__report\"><tr><th>Conclusion and Recommendations based on this report and previous findings known to us</th></tr><tr><td>The patient shows markedly elevated serum creatinine, indicating significant renal impairment, and elevated ALT, suggesting possible liver involvement. Urinalysis reveals proteinuria, glucosuria, ketonuria, low specific gravity, and abnormal appearance, consistent with nephrotic-range protein loss and possible tubular dysfunction. No evidence of urinary infection. Findings are suggestive of acute or chronic kidney disease with possible metabolic derangements; prompt nephrology evaluation is recommended.</td></tr></table></div>"
            },
            "code": {
              "coding": [
                {
                  "system": "http://loinc.org",
                  "code": "48767-8",
                  "display": "Annotation comment"
                }
              ]
            },
            "title": "Annotation comment"
          }
        ],
        "status": "final",
        "subject": {
          "reference": "urn:uuid:288a910d-e293-4ead-8b66-efedd70ae104",
          "display": "Maria Nohlmans"
        },
        "date": "2017-08-28T07:35:39Z",
        "title": "Laboratory Report",
        "confidentiality": "N"
      }
    },
    {
      "fullUrl": "urn:uuid:c8139393-fae4-48c6-ad27-8cbe93503dca",
      "resource": {
        "resourceType": "DiagnosticReport",
        "id": "c8139393-fae4-48c6-ad27-8cbe93503dca",
        "meta": {
          "profile": [
            "http://hl7.eu/fhir/laboratory/StructureDefinition/DiagnosticReport-eu-lab"
          ]
        },
        "identifier": [
          {
            "assigner": {
              "display": "HL7 Europe"
            },
            "system": "urn:oid:2.16.840.1.113883.2.51.999",
            "value": "7ef78253-a12a-48dd-9752-8d0b3e4bfa91"
          }
        ],
        "extension": [
          {
            "url": "http://hl7.org/fhir/5.0/StructureDefinition/extension-DiagnosticReport.composition",
            "valueReference": {
              "reference": "urn:uuid:5cfc9a2d-4a80-4ecb-9236-fa4332c6dfed"
            }
          }
        ],
        "category": [
          {
            "coding": [
              {
                "code": "26436-6",
                "system": "http://loinc.org",
                "display": "Laboratory studies (set)"
              }
            ]
          }
        ],
        "specimen": [
          {
            "reference": "urn:uuid:e7aed315-360c-46b5-ace7-d5fcc0a30233"
          },
          {
            "reference": "urn:uuid:2ce4262e-a9b1-47e6-b530-d6c378a6731b"
          },
          {
            "reference": "urn:uuid:21b03116-3663-4d1d-bcdb-c17e64a1136d"
          },
          {
            "reference": "urn:uuid:1fb59f0c-fc0e-4a4c-8016-bc2de4fb1c39"
          }
        ],
        "result": [
          {
            "reference": "urn:uuid:5dfb72a1-6bb3-4757-9597-89e72eb06fc9"
          },
          {
            "reference": "urn:uuid:e78a5cf1-41e9-47d1-9457-dd97c990adcf"
          },
          {
            "reference": "urn:uuid:f96b9459-3192-43da-a502-7c27f7366c6a"
          },
          {
            "reference": "urn:uuid:7e0f5a8a-4d6c-4077-bd53-7ee571195b60"
          },
          {
            "reference": "urn:uuid:855a5df4-5b8f-497e-b518-c4b607289e87"
          },
          {
            "reference": "urn:uuid:d4b9ffdd-2a5e-4fda-a653-4ee38e5678ab"
          },
          {
            "reference": "urn:uuid:bffcca01-d92f-452c-bf2f-b457cf77ef7c"
          },
          {
            "reference": "urn:uuid:608fc56c-65df-4772-8098-1736e6e49b5b"
          },
          {
            "reference": "urn:uuid:bd9b16c7-f1c0-45bb-b54b-4f0c672798ae"
          },
          {
            "reference": "urn:uuid:63cdd6a4-8d6c-4ac4-a674-5f5ae61f8655"
          },
          {
            "reference": "urn:uuid:e36f8c47-27ff-49f7-8069-2eb06b084969"
          },
          {
            "reference": "urn:uuid:54b0da36-cdc7-4191-81d1-e49aaafc4118"
          },
          {
            "reference": "urn:uuid:d620b333-2904-4bf0-bf8e-f958e78af09c"
          },
          {
            "reference": "urn:uuid:e435bf89-4834-4f67-9b00-5da63bca16e4"
          },
          {
            "reference": "urn:uuid:b3386c69-d1be-49e3-9ef9-263432a1f394"
          },
          {
            "reference": "urn:uuid:1886ea28-2ad6-4964-b9ab-fb15daa6aad3"
          },
          {
            "reference": "urn:uuid:f848a616-e440-4895-8a39-46bcfa5d4f22"
          },
          {
            "reference": "urn:uuid:b379e8ae-7153-4ac5-a3d3-ce76deff440f"
          },
          {
            "reference": "urn:uuid:dc660347-7b7f-497f-89cd-723db7e14725"
          },
          {
            "reference": "urn:uuid:71556cc8-6c53-4374-8993-8603963e11c3"
          },
          {
            "reference": "urn:uuid:9faf9e83-7793-459d-9fde-19fca9c2a8ac"
          },
          {
            "reference": "urn:uuid:44e1ac85-7ffa-4424-9a63-9a6f06345222"
          },
          {
            "reference": "urn:uuid:3cc718ae-22ff-4f6a-bddf-10b1651f926d"
          },
          {
            "reference": "urn:uuid:3fee4434-110a-4c75-81b6-0848169326e4"
          },
          {
            "reference": "urn:uuid:1dc25b39-04ce-444f-b753-71f6d339e090"
          },
          {
            "reference": "urn:uuid:a6931cbf-387e-4c97-89d9-1c0408261e82"
          },
          {
            "reference": "urn:uuid:31ecb52f-0326-4b82-a54f-897adb7007c0"
          },
          {
            "reference": "urn:uuid:f29d4d8b-2deb-4d9a-9d6b-7806aaf4d365"
          },
          {
            "reference": "urn:uuid:278b87f8-54fb-4c28-a6a0-7f78a5306146"
          },
          {
            "reference": "urn:uuid:99a7b05d-3977-4299-a968-12646cbc6495"
          },
          {
            "reference": "urn:uuid:269b4142-3f91-43ab-9e6e-ac2c83c3fb9c"
          },
          {
            "reference": "urn:uuid:a98bc769-2d09-4948-b2a3-a46e0ed72ff6"
          }
        ],
        "status": "registered",
        "code": {
          "coding": [
            {
              "code": "11502-2",
              "system": "http://loinc.org",
              "display": "Laboratory report"
            }
          ]
        },
        "subject": {
          "reference": "urn:uuid:288a910d-e293-4ead-8b66-efedd70ae104",
          "display": "Maria Nohlmans"
        }
      }
    },
    {
      "fullUrl": "urn:uuid:288a910d-e293-4ead-8b66-efedd70ae104",
      "resource": {
        "resourceType": "Patient",
        "id": "288a910d-e293-4ead-8b66-efedd70ae104",
        "meta": {
          "security": [
            {
              "system": "http://terminology.hl7.org/CodeSystem/v3-ActReason",
              "code": "HTEST"
            },
            {
              "system": "http://terminology.hl7.org/CodeSystem/v3-ActReason",
              "code": "TRAIN"
            }
          ],
          "tag": [
            {
              "system": "https://synderai.net/fhir/CodeSystem/tags",
              "code": "synthetic",
              "display": "SYNDERAI Synthetic data"
            }
          ],
          "profile": [
            "http://hl7.eu/fhir/base/StructureDefinition/patient-eu-core"
          ]
        },
        "identifier": [
          {
            "type": {
              "coding": [
                {
                  "code": "PT",
                  "system": "http://terminology.hl7.org/CodeSystem/v2-0203"
                }
              ]
            },
            "system": "http://ec.europa.eu/identifier/eci",
            "value": "6886-506417-1"
          },
          {
            "type": {
              "coding": [
                {
                  "code": "MR",
                  "system": "http://terminology.hl7.org/CodeSystem/v2-0203"
                }
              ]
            },
            "system": "http://local.setting.eu/identifier",
            "value": "2cb21ed6-b617-b1f3-2290-589a710de5ee"
          }
        ],
        "name": [
          {
            "family": "Nohlmans"
          },
          {
            "given": [
              "Maria"
            ]
          },
          {
            "text": "Maria Nohlmans"
          }
        ],
        "address": [
          {
            "line": [
              "Alfons-Wulff-Weg 1"
            ],
            "use": "home",
            "type": "physical",
            "postalCode": "25813",
            "city": "Husum",
            "country": "Germany"
          }
        ],
        "telecom": [
          {
            "system": "phone",
            "value": "+49(0)1911 105501"
          }
        ],
        "extension": [
          {
            "url": "http://hl7.org/fhir/StructureDefinition/patient-nationality",
            "valueCodeableConcept": {
              "coding": [
                {
                  "code": "DE",
                  "system": "http://hl7.org/fhir/ValueSet/country"
                }
              ]
            }
          }
        ],
        "text": {
          "status": "generated",
          "div": "<div xmlns=\"http://www.w3.org/1999/xhtml\"><table class=\"hl7__ips\"><tr><td>Maria Nohlmans</td><td>female</td><td>11-Jun-1947</td></tr></table></div>"
        },
        "gender": "female",
        "birthDate": "1947-06-11"
      }
    },
    {
      "fullUrl": "urn:uuid:5b5bb6b1-65dc-4aad-8598-e1c204aef65d",
      "resource": {
        "resourceType": "ServiceRequest",
        "id": "5b5bb6b1-65dc-4aad-8598-e1c204aef65d",
        "meta": {
          "profile": [
            "http://hl7.eu/fhir/laboratory/StructureDefinition/ServiceRequest-eu-lab"
          ]
        },
        "identifier": [
          {
            "system": "http://example.org",
            "value": "7d8215f9-2a15-4d92-a44a-bd6e2014f86b"
          }
        ],
        "specimen": [
          {
            "reference": "urn:uuid:e7aed315-360c-46b5-ace7-d5fcc0a30233"
          },
          {
            "reference": "urn:uuid:2ce4262e-a9b1-47e6-b530-d6c378a6731b"
          },
          {
            "reference": "urn:uuid:21b03116-3663-4d1d-bcdb-c17e64a1136d"
          },
          {
            "reference": "urn:uuid:1fb59f0c-fc0e-4a4c-8016-bc2de4fb1c39"
          }
        ],
        "reasonCode": [
          {
            "coding": [
              {
                "code": "401314000",
                "system": "http://snomed.info/sct",
                "display": "Acute non-ST segment elevation myocardial infarction"
              }
            ]
          },
          {
            "coding": [
              {
                "code": "157141000119108",
                "system": "http://snomed.info/sct",
                "display": "Proteinuria due to type 2 diabetes mellitus"
              }
            ]
          },
          {
            "coding": [
              {
                "code": "237602007",
                "system": "http://snomed.info/sct",
                "display": "Metabolic syndrome X"
              }
            ]
          },
          {
            "coding": [
              {
                "code": "90781000119102",
                "system": "http://snomed.info/sct",
                "display": "Microalbuminuria due to type 2 diabetes mellitus"
              }
            ]
          },
          {
            "coding": [
              {
                "code": "127013003",
                "system": "http://snomed.info/sct",
                "display": "Disorder of kidney due to diabetes mellitus"
              }
            ]
          },
          {
            "coding": [
              {
                "code": "59621000",
                "system": "http://snomed.info/sct",
                "display": "Essential hypertension"
              }
            ]
          },
          {
            "coding": [
              {
                "code": "271737000",
                "system": "http://snomed.info/sct",
                "display": "Anemia"
              }
            ]
          },
          {
            "coding": [
              {
                "code": "15777000",
                "system": "http://snomed.info/sct",
                "display": "Prediabetes"
              }
            ]
          }
        ],
        "status": "active",
        "intent": "order",
        "code": {
          "coding": [
            {
              "code": "108252007",
              "system": "http://snomed.info/sct",
              "display": "Laboratory procedure"
            }
          ]
        },
        "subject": {
          "reference": "urn:uuid:288a910d-e293-4ead-8b66-efedd70ae104",
          "display": "Maria Nohlmans"
        },
        "requester": {
          "reference": "urn:uuid:705e47bf-cee8-44ba-b268-4073d101d513"
        }
      }
    },
    {
      "fullUrl": "urn:uuid:705e47bf-cee8-44ba-b268-4073d101d513",
      "resource": {
        "resourceType": "PractitionerRole",
        "id": "705e47bf-cee8-44ba-b268-4073d101d513",
        "meta": {
          "profile": [
            "http://hl7.eu/fhir/base/StructureDefinition/practitionerRole-eu"
          ]
        },
        "text": {
          "status": "generated",
          "div": "<div xmlns=\"http://www.w3.org/1999/xhtml\">Provider Role Id: 705e47bf-cee8-44ba-b268-4073d101d513</div>"
        },
        "organization": {
          "reference": "urn:uuid:e23688de-ea24-4fec-89fb-1f9a40ce4304"
        }
      }
    },
    {
      "fullUrl": "urn:uuid:e23688de-ea24-4fec-89fb-1f9a40ce4304",
      "resource": {
        "resourceType": "Organization",
        "id": "e23688de-ea24-4fec-89fb-1f9a40ce4304",
        "meta": {
          "profile": [
            "http://hl7.eu/fhir/base/StructureDefinition/organization-eu"
          ]
        },
        "identifier": [
          {
            "assigner": {
              "display": "HL7 Europe"
            },
            "system": "urn:oid:2.16.840.1.113883.2.51.999",
            "value": "b1e44688-e996-49a0-9336-3244ceea5edc"
          }
        ],
        "address": [
          {
            "line": [
              "Brinckmannstraße 35"
            ],
            "city": "Husum",
            "postalCode": "25813",
            "country": "Germany"
          }
        ],
        "text": {
          "status": "generated",
          "div": "<div xmlns=\"http://www.w3.org/1999/xhtml\">Provider Organization: Dr. Wolfram Hussels Kieferorthopäde</div>"
        },
        "name": "Dr. Wolfram Hussels Kieferorthopäde"
      }
    },
    {
      "fullUrl": "urn:uuid:e7aed315-360c-46b5-ace7-d5fcc0a30233",
      "resource": {
        "resourceType": "Specimen",
        "id": "e7aed315-360c-46b5-ace7-d5fcc0a30233",
        "meta": {
          "profile": [
            "http://hl7.eu/fhir/laboratory/StructureDefinition/Specimen-eu-lab"
          ]
        },
        "collection": {
          "collectedDateTime": "2017-08-28"
        },
        "text": {
          "status": "generated",
          "div": "<div xmlns=\"http://www.w3.org/1999/xhtml\"><table class=\"hl7__eu__lab__report\"><tr><th>Specimen</th><th>Collection Date</th></tr><tr><td>Whole blood specimen (specimen)</td><td><span class=\"nb\">28-Aug-2017</span></td></tr></table></div>"
        },
        "type": {
          "coding": [
            {
              "code": "258580003",
              "system": "http://snomed.info/sct",
              "display": "Whole blood specimen (specimen)"
            }
          ]
        }
      }
    },
    {
      "fullUrl": "urn:uuid:2ce4262e-a9b1-47e6-b530-d6c378a6731b",
      "resource": {
        "resourceType": "Specimen",
        "id": "2ce4262e-a9b1-47e6-b530-d6c378a6731b",
        "meta": {
          "profile": [
            "http://hl7.eu/fhir/laboratory/StructureDefinition/Specimen-eu-lab"
          ]
        },
        "collection": {
          "collectedDateTime": "2017-08-28"
        },
        "text": {
          "status": "generated",
          "div": "<div xmlns=\"http://www.w3.org/1999/xhtml\"><table class=\"hl7__eu__lab__report\"><tr><th>Specimen</th><th>Collection Date</th></tr><tr><td>Acellular blood (serum or plasma) specimen</td><td><span class=\"nb\">28-Aug-2017</span></td></tr></table></div>"
        },
        "type": {
          "coding": [
            {
              "code": "122592007",
              "system": "http://snomed.info/sct",
              "display": "Acellular blood (serum or plasma) specimen"
            }
          ]
        }
      }
    },
    {
      "fullUrl": "urn:uuid:21b03116-3663-4d1d-bcdb-c17e64a1136d",
      "resource": {
        "resourceType": "Specimen",
        "id": "21b03116-3663-4d1d-bcdb-c17e64a1136d",
        "meta": {
          "profile": [
            "http://hl7.eu/fhir/laboratory/StructureDefinition/Specimen-eu-lab"
          ]
        },
        "collection": {
          "collectedDateTime": "2017-08-28"
        },
        "text": {
          "status": "generated",
          "div": "<div xmlns=\"http://www.w3.org/1999/xhtml\"><table class=\"hl7__eu__lab__report\"><tr><th>Specimen</th><th>Collection Date</th></tr><tr><td>Serum specimen</td><td><span class=\"nb\">28-Aug-2017</span></td></tr></table></div>"
        },
        "type": {
          "coding": [
            {
              "code": "119364003",
              "system": "http://snomed.info/sct",
              "display": "Serum specimen"
            }
          ]
        }
      }
    },
    {
      "fullUrl": "urn:uuid:1fb59f0c-fc0e-4a4c-8016-bc2de4fb1c39",
      "resource": {
        "resourceType": "Specimen",
        "id": "1fb59f0c-fc0e-4a4c-8016-bc2de4fb1c39",
        "meta": {
          "profile": [
            "http://hl7.eu/fhir/laboratory/StructureDefinition/Specimen-eu-lab"
          ]
        },
        "collection": {
          "collectedDateTime": "2017-08-28"
        },
        "text": {
          "status": "generated",
          "div": "<div xmlns=\"http://www.w3.org/1999/xhtml\"><table class=\"hl7__eu__lab__report\"><tr><th>Specimen</th><th>Collection Date</th></tr><tr><td>Urine specimen</td><td><span class=\"nb\">28-Aug-2017</span></td></tr></table></div>"
        },
        "type": {
          "coding": [
            {
              "code": "122575003",
              "system": "http://snomed.info/sct",
              "display": "Urine specimen"
            }
          ]
        }
      }
    },
    {
      "fullUrl": "urn:uuid:5dfb72a1-6bb3-4757-9597-89e72eb06fc9",
      "resource": {
        "resourceType": "Observation",
        "id": "5dfb72a1-6bb3-4757-9597-89e72eb06fc9",
        "meta": {
          "profile": [
            "http://hl7.eu/fhir/laboratory/StructureDefinition/Observation-resultslab-eu-lab"
          ]
        },
        "performer": [
          {
            "display": "The Central European Lab"
          }
        ],
        "category": [
          {
            "coding": [
              {
                "system": "http://terminology.hl7.org/CodeSystem/observation-category",
                "code": "laboratory"
              }
            ]
          }
        ],
        "code": {
          "coding": [
            {
              "code": "2339-0",
              "system": "http://loinc.org",
              "display": "Glucose [Mass/volume] in Blood"
            }
          ],
          "text": "Glucose [Mass/volume] in Blood"
        },
        "valueQuantity": {
          "system": "http://unitsofmeasure.org",
          "value": 93.8,
          "unit": "mg/dL",
          "code": "mg/dL"
        },
        "referenceRange": [
          {
            "low": {
              "value": 70,
              "code": "mg/dL",
              "system": "http://unitsofmeasure.org"
            }
          },
          {
            "high": {
              "value": 140,
              "code": "mg/dL",
              "system": "http://unitsofmeasure.org"
            }
          }
        ],
        "text": {
          "status": "generated",
          "div": "<div xmlns=\"http://www.w3.org/1999/xhtml\"><table class=\"hl7__eu__lab__report\"><tr><th>Test</th><th>28-Aug-2017</th><th>Reference&#xA0;Range</th><th>Unit</th></tr><tr><td>Glucose [Mass/volume] in Blood</td><td>93.8</td><td>70 - 140</td><td></td><td>mg/dL</td></tr></table></div>"
        },
        "status": "final",
        "subject": {
          "reference": "urn:uuid:288a910d-e293-4ead-8b66-efedd70ae104",
          "display": "Maria Nohlmans"
        },
        "effectiveDateTime": "2017-08-28T05:35:39Z",
        "specimen": {
          "reference": "urn:uuid:e7aed315-360c-46b5-ace7-d5fcc0a30233"
        }
      }
    },
    {
      "fullUrl": "urn:uuid:e78a5cf1-41e9-47d1-9457-dd97c990adcf",
      "resource": {
        "resourceType": "Observation",
        "id": "e78a5cf1-41e9-47d1-9457-dd97c990adcf",
        "meta": {
          "profile": [
            "http://hl7.eu/fhir/laboratory/StructureDefinition/Observation-resultslab-eu-lab"
          ]
        },
        "performer": [
          {
            "display": "The Central European Lab"
          }
        ],
        "category": [
          {
            "coding": [
              {
                "system": "http://terminology.hl7.org/CodeSystem/observation-category",
                "code": "laboratory"
              }
            ]
          }
        ],
        "code": {
          "coding": [
            {
              "code": "6299-2",
              "system": "http://loinc.org",
              "display": "Urea nitrogen [Mass/volume] in Blood"
            }
          ],
          "text": "Urea nitrogen [Mass/volume] in Blood"
        },
        "valueQuantity": {
          "system": "http://unitsofmeasure.org",
          "value": 16.8,
          "unit": "mg/dL",
          "code": "mg/dL"
        },
        "referenceRange": [
          {
            "low": {
              "value": 7,
              "code": "mg/dL",
              "system": "http://unitsofmeasure.org"
            }
          },
          {
            "high": {
              "value": 30,
              "code": "mg/dL",
              "system": "http://unitsofmeasure.org"
            }
          }
        ],
        "text": {
          "status": "generated",
          "div": "<div xmlns=\"http://www.w3.org/1999/xhtml\"><table class=\"hl7__eu__lab__report\"><tr><th>Test</th><th>28-Aug-2017</th><th>Reference&#xA0;Range</th><th>Unit</th></tr><tr><td>Urea nitrogen [Mass/volume] in Blood</td><td>16.8</td><td>7 - 30</td><td></td><td>mg/dL</td></tr></table></div>"
        },
        "status": "final",
        "subject": {
          "reference": "urn:uuid:288a910d-e293-4ead-8b66-efedd70ae104",
          "display": "Maria Nohlmans"
        },
        "effectiveDateTime": "2017-08-28T05:35:39Z",
        "specimen": {
          "reference": "urn:uuid:e7aed315-360c-46b5-ace7-d5fcc0a30233"
        }
      }
    },
    {
      "fullUrl": "urn:uuid:f96b9459-3192-43da-a502-7c27f7366c6a",
      "resource": {
        "resourceType": "Observation",
        "id": "f96b9459-3192-43da-a502-7c27f7366c6a",
        "meta": {
          "profile": [
            "http://hl7.eu/fhir/laboratory/StructureDefinition/Observation-resultslab-eu-lab"
          ]
        },
        "performer": [
          {
            "display": "The Central European Lab"
          }
        ],
        "category": [
          {
            "coding": [
              {
                "system": "http://terminology.hl7.org/CodeSystem/observation-category",
                "code": "laboratory"
              }
            ]
          }
        ],
        "code": {
          "coding": [
            {
              "code": "38483-4",
              "system": "http://loinc.org",
              "display": "Creatinine [Mass/volume] in Blood"
            }
          ],
          "text": "Creatinine [Mass/volume] in Blood"
        },
        "valueQuantity": {
          "system": "http://unitsofmeasure.org",
          "value": 3.3,
          "unit": "mg/dL",
          "code": "mg/dL"
        },
        "referenceRange": [
          {
            "low": {
              "value": 0.5,
              "code": "mg/dL",
              "system": "http://unitsofmeasure.org"
            }
          },
          {
            "high": {
              "value": 1.3,
              "code": "mg/dL",
              "system": "http://unitsofmeasure.org"
            }
          }
        ],
        "interpretation": [
          {
            "coding": [
              {
                "code": "H",
                "system": "http://terminology.hl7.org/CodeSystem/v3-ObservationInterpretation",
                "display": "High"
              }
            ]
          }
        ],
        "text": {
          "status": "generated",
          "div": "<div xmlns=\"http://www.w3.org/1999/xhtml\"><table class=\"hl7__eu__lab__report\"><tr><th>Test</th><th>28-Aug-2017</th><th>Reference&#xA0;Range</th><th>Unit</th></tr><tr><td>Creatinine [Mass/volume] in Blood</td><td>3.3</td><td>0.5 - 1.3</td><td>H</td><td>mg/dL</td></tr></table></div>"
        },
        "status": "final",
        "subject": {
          "reference": "urn:uuid:288a910d-e293-4ead-8b66-efedd70ae104",
          "display": "Maria Nohlmans"
        },
        "effectiveDateTime": "2017-08-28T05:35:39Z",
        "specimen": {
          "reference": "urn:uuid:e7aed315-360c-46b5-ace7-d5fcc0a30233"
        }
      }
    },
    {
      "fullUrl": "urn:uuid:7e0f5a8a-4d6c-4077-bd53-7ee571195b60",
      "resource": {
        "resourceType": "Observation",
        "id": "7e0f5a8a-4d6c-4077-bd53-7ee571195b60",
        "meta": {
          "profile": [
            "http://hl7.eu/fhir/laboratory/StructureDefinition/Observation-resultslab-eu-lab"
          ]
        },
        "performer": [
          {
            "display": "The Central European Lab"
          }
        ],
        "category": [
          {
            "coding": [
              {
                "system": "http://terminology.hl7.org/CodeSystem/observation-category",
                "code": "laboratory"
              }
            ]
          }
        ],
        "code": {
          "coding": [
            {
              "code": "49765-1",
              "system": "http://loinc.org",
              "display": "Calcium [Mass/volume] in Blood"
            }
          ],
          "text": "Calcium [Mass/volume] in Blood"
        },
        "valueQuantity": {
          "system": "http://unitsofmeasure.org",
          "value": 9.6,
          "unit": "mg/dL",
          "code": "mg/dL"
        },
        "referenceRange": [
          {
            "low": {
              "value": 8.6,
              "code": "mg/dL",
              "system": "http://unitsofmeasure.org"
            }
          },
          {
            "high": {
              "value": 10.2,
              "code": "mg/dL",
              "system": "http://unitsofmeasure.org"
            }
          }
        ],
        "text": {
          "status": "generated",
          "div": "<div xmlns=\"http://www.w3.org/1999/xhtml\"><table class=\"hl7__eu__lab__report\"><tr><th>Test</th><th>28-Aug-2017</th><th>Reference&#xA0;Range</th><th>Unit</th></tr><tr><td>Calcium [Mass/volume] in Blood</td><td>9.6</td><td>8.6 - 10.2</td><td></td><td>mg/dL</td></tr></table></div>"
        },
        "status": "final",
        "subject": {
          "reference": "urn:uuid:288a910d-e293-4ead-8b66-efedd70ae104",
          "display": "Maria Nohlmans"
        },
        "effectiveDateTime": "2017-08-28T05:35:39Z",
        "specimen": {
          "reference": "urn:uuid:e7aed315-360c-46b5-ace7-d5fcc0a30233"
        }
      }
    },
    {
      "fullUrl": "urn:uuid:855a5df4-5b8f-497e-b518-c4b607289e87",
      "resource": {
        "resourceType": "Observation",
        "id": "855a5df4-5b8f-497e-b518-c4b607289e87",
        "meta": {
          "profile": [
            "http://hl7.eu/fhir/laboratory/StructureDefinition/Observation-resultslab-eu-lab"
          ]
        },
        "performer": [
          {
            "display": "The Central European Lab"
          }
        ],
        "category": [
          {
            "coding": [
              {
                "system": "http://terminology.hl7.org/CodeSystem/observation-category",
                "code": "laboratory"
              }
            ]
          }
        ],
        "code": {
          "coding": [
            {
              "code": "2947-0",
              "system": "http://loinc.org",
              "display": "Sodium [Moles/volume] in Blood"
            }
          ],
          "text": "Sodium [Moles/volume] in Blood"
        },
        "valueQuantity": {
          "system": "http://unitsofmeasure.org",
          "value": 141.6,
          "unit": "mmol/L",
          "code": "mmol/L"
        },
        "referenceRange": [
          {
            "low": {
              "value": 135,
              "code": "mmol/L",
              "system": "http://unitsofmeasure.org"
            }
          },
          {
            "high": {
              "value": 145,
              "code": "mmol/L",
              "system": "http://unitsofmeasure.org"
            }
          }
        ],
        "text": {
          "status": "generated",
          "div": "<div xmlns=\"http://www.w3.org/1999/xhtml\"><table class=\"hl7__eu__lab__report\"><tr><th>Test</th><th>28-Aug-2017</th><th>Reference&#xA0;Range</th><th>Unit</th></tr><tr><td>Sodium [Moles/volume] in Blood</td><td>141.6</td><td>135 - 145</td><td></td><td>mmol/L</td></tr></table></div>"
        },
        "status": "final",
        "subject": {
          "reference": "urn:uuid:288a910d-e293-4ead-8b66-efedd70ae104",
          "display": "Maria Nohlmans"
        },
        "effectiveDateTime": "2017-08-28T05:35:39Z",
        "specimen": {
          "reference": "urn:uuid:e7aed315-360c-46b5-ace7-d5fcc0a30233"
        }
      }
    },
    {
      "fullUrl": "urn:uuid:d4b9ffdd-2a5e-4fda-a653-4ee38e5678ab",
      "resource": {
        "resourceType": "Observation",
        "id": "d4b9ffdd-2a5e-4fda-a653-4ee38e5678ab",
        "meta": {
          "profile": [
            "http://hl7.eu/fhir/laboratory/StructureDefinition/Observation-resultslab-eu-lab"
          ]
        },
        "performer": [
          {
            "display": "The Central European Lab"
          }
        ],
        "category": [
          {
            "coding": [
              {
                "system": "http://terminology.hl7.org/CodeSystem/observation-category",
                "code": "laboratory"
              }
            ]
          }
        ],
        "code": {
          "coding": [
            {
              "code": "6298-4",
              "system": "http://loinc.org",
              "display": "Potassium [Moles/volume] in Blood"
            }
          ],
          "text": "Potassium [Moles/volume] in Blood"
        },
        "valueQuantity": {
          "system": "http://unitsofmeasure.org",
          "value": 4.5,
          "unit": "mmol/L",
          "code": "mmol/L"
        },
        "referenceRange": [
          {
            "low": {
              "value": 3.5,
              "code": "mmol/L",
              "system": "http://unitsofmeasure.org"
            }
          },
          {
            "high": {
              "value": 5.1,
              "code": "mmol/L",
              "system": "http://unitsofmeasure.org"
            }
          }
        ],
        "text": {
          "status": "generated",
          "div": "<div xmlns=\"http://www.w3.org/1999/xhtml\"><table class=\"hl7__eu__lab__report\"><tr><th>Test</th><th>28-Aug-2017</th><th>Reference&#xA0;Range</th><th>Unit</th></tr><tr><td>Potassium [Moles/volume] in Blood</td><td>4.5</td><td>3.5 - 5.1</td><td></td><td>mmol/L</td></tr></table></div>"
        },
        "status": "final",
        "subject": {
          "reference": "urn:uuid:288a910d-e293-4ead-8b66-efedd70ae104",
          "display": "Maria Nohlmans"
        },
        "effectiveDateTime": "2017-08-28T05:35:39Z",
        "specimen": {
          "reference": "urn:uuid:e7aed315-360c-46b5-ace7-d5fcc0a30233"
        }
      }
    },
    {
      "fullUrl": "urn:uuid:bffcca01-d92f-452c-bf2f-b457cf77ef7c",
      "resource": {
        "resourceType": "Observation",
        "id": "bffcca01-d92f-452c-bf2f-b457cf77ef7c",
        "meta": {
          "profile": [
            "http://hl7.eu/fhir/laboratory/StructureDefinition/Observation-resultslab-eu-lab"
          ]
        },
        "performer": [
          {
            "display": "The Central European Lab"
          }
        ],
        "category": [
          {
            "coding": [
              {
                "system": "http://terminology.hl7.org/CodeSystem/observation-category",
                "code": "laboratory"
              }
            ]
          }
        ],
        "code": {
          "coding": [
            {
              "code": "2069-3",
              "system": "http://loinc.org",
              "display": "Chloride [Moles/volume] in Blood"
            }
          ],
          "text": "Chloride [Moles/volume] in Blood"
        },
        "valueQuantity": {
          "system": "http://unitsofmeasure.org",
          "value": 107.7,
          "unit": "mmol/L",
          "code": "mmol/L"
        },
        "referenceRange": [
          {
            "low": {
              "value": 98,
              "code": "mmol/L",
              "system": "http://unitsofmeasure.org"
            }
          },
          {
            "high": {
              "value": 114,
              "code": "mmol/L",
              "system": "http://unitsofmeasure.org"
            }
          }
        ],
        "text": {
          "status": "generated",
          "div": "<div xmlns=\"http://www.w3.org/1999/xhtml\"><table class=\"hl7__eu__lab__report\"><tr><th>Test</th><th>28-Aug-2017</th><th>Reference&#xA0;Range</th><th>Unit</th></tr><tr><td>Chloride [Moles/volume] in Blood</td><td>107.7</td><td>98 - 114</td><td></td><td>mmol/L</td></tr></table></div>"
        },
        "status": "final",
        "subject": {
          "reference": "urn:uuid:288a910d-e293-4ead-8b66-efedd70ae104",
          "display": "Maria Nohlmans"
        },
        "effectiveDateTime": "2017-08-28T05:35:39Z",
        "specimen": {
          "reference": "urn:uuid:e7aed315-360c-46b5-ace7-d5fcc0a30233"
        }
      }
    },
    {
      "fullUrl": "urn:uuid:608fc56c-65df-4772-8098-1736e6e49b5b",
      "resource": {
        "resourceType": "Observation",
        "id": "608fc56c-65df-4772-8098-1736e6e49b5b",
        "meta": {
          "profile": [
            "http://hl7.eu/fhir/laboratory/StructureDefinition/Observation-resultslab-eu-lab"
          ]
        },
        "performer": [
          {
            "display": "The Central European Lab"
          }
        ],
        "category": [
          {
            "coding": [
              {
                "system": "http://terminology.hl7.org/CodeSystem/observation-category",
                "code": "laboratory"
              }
            ]
          }
        ],
        "code": {
          "coding": [
            {
              "code": "20565-8",
              "system": "http://loinc.org",
              "display": "Carbon dioxide, total [Moles/volume] in Blood"
            }
          ],
          "text": "Carbon dioxide, total [Moles/volume] in Blood"
        },
        "valueQuantity": {
          "system": "http://unitsofmeasure.org",
          "value": 23.7,
          "unit": "mmol/L",
          "code": "mmol/L"
        },
        "referenceRange": [
          {
            "low": {
              "value": 22,
              "code": "mmol/L",
              "system": "http://unitsofmeasure.org"
            }
          },
          {
            "high": {
              "value": 32,
              "code": "mmol/L",
              "system": "http://unitsofmeasure.org"
            }
          }
        ],
        "text": {
          "status": "generated",
          "div": "<div xmlns=\"http://www.w3.org/1999/xhtml\"><table class=\"hl7__eu__lab__report\"><tr><th>Test</th><th>28-Aug-2017</th><th>Reference&#xA0;Range</th><th>Unit</th></tr><tr><td>Carbon dioxide, total [Moles/volume] in Blood</td><td>23.7</td><td>22 - 32</td><td></td><td>mmol/L</td></tr></table></div>"
        },
        "status": "final",
        "subject": {
          "reference": "urn:uuid:288a910d-e293-4ead-8b66-efedd70ae104",
          "display": "Maria Nohlmans"
        },
        "effectiveDateTime": "2017-08-28T05:35:39Z",
        "specimen": {
          "reference": "urn:uuid:e7aed315-360c-46b5-ace7-d5fcc0a30233"
        }
      }
    },
    {
      "fullUrl": "urn:uuid:bd9b16c7-f1c0-45bb-b54b-4f0c672798ae",
      "resource": {
        "resourceType": "Observation",
        "id": "bd9b16c7-f1c0-45bb-b54b-4f0c672798ae",
        "meta": {
          "profile": [
            "http://hl7.eu/fhir/laboratory/StructureDefinition/Observation-resultslab-eu-lab"
          ]
        },
        "performer": [
          {
            "display": "The Central European Lab"
          }
        ],
        "category": [
          {
            "coding": [
              {
                "system": "http://terminology.hl7.org/CodeSystem/observation-category",
                "code": "laboratory"
              }
            ]
          }
        ],
        "code": {
          "coding": [
            {
              "code": "2885-2",
              "system": "http://loinc.org",
              "display": "Protein [Mass/volume] in Serum or Plasma"
            }
          ],
          "text": "Protein [Mass/volume] in Serum or Plasma"
        },
        "valueQuantity": {
          "system": "http://unitsofmeasure.org",
          "value": 6.2,
          "unit": "g/dL",
          "code": "g/dL"
        },
        "referenceRange": [
          {
            "low": {
              "value": 6,
              "code": "g/dL",
              "system": "http://unitsofmeasure.org"
            }
          },
          {
            "high": {
              "value": 8.3,
              "code": "g/dL",
              "system": "http://unitsofmeasure.org"
            }
          }
        ],
        "text": {
          "status": "generated",
          "div": "<div xmlns=\"http://www.w3.org/1999/xhtml\"><table class=\"hl7__eu__lab__report\"><tr><th>Test</th><th>28-Aug-2017</th><th>Reference&#xA0;Range</th><th>Unit</th></tr><tr><td>Protein [Mass/volume] in Serum or Plasma</td><td>6.2</td><td>6 - 8.3</td><td></td><td>g/dL</td></tr></table></div>"
        },
        "status": "final",
        "subject": {
          "reference": "urn:uuid:288a910d-e293-4ead-8b66-efedd70ae104",
          "display": "Maria Nohlmans"
        },
        "effectiveDateTime": "2017-08-28T05:35:39Z",
        "specimen": {
          "reference": "urn:uuid:2ce4262e-a9b1-47e6-b530-d6c378a6731b"
        }
      }
    },
    {
      "fullUrl": "urn:uuid:63cdd6a4-8d6c-4ac4-a674-5f5ae61f8655",
      "resource": {
        "resourceType": "Observation",
        "id": "63cdd6a4-8d6c-4ac4-a674-5f5ae61f8655",
        "meta": {
          "profile": [
            "http://hl7.eu/fhir/laboratory/StructureDefinition/Observation-resultslab-eu-lab"
          ]
        },
        "performer": [
          {
            "display": "The Central European Lab"
          }
        ],
        "category": [
          {
            "coding": [
              {
                "system": "http://terminology.hl7.org/CodeSystem/observation-category",
                "code": "laboratory"
              }
            ]
          }
        ],
        "code": {
          "coding": [
            {
              "code": "1751-7",
              "system": "http://loinc.org",
              "display": "Albumin [Mass/volume] in Serum or Plasma"
            }
          ],
          "text": "Albumin [Mass/volume] in Serum or Plasma"
        },
        "valueQuantity": {
          "system": "http://unitsofmeasure.org",
          "value": 5.5,
          "unit": "g/dL",
          "code": "g/dL"
        },
        "referenceRange": [
          {
            "low": {
              "value": 3.5,
              "code": "g/dL",
              "system": "http://unitsofmeasure.org"
            }
          },
          {
            "high": {
              "value": 5.5,
              "code": "g/dL",
              "system": "http://unitsofmeasure.org"
            }
          }
        ],
        "text": {
          "status": "generated",
          "div": "<div xmlns=\"http://www.w3.org/1999/xhtml\"><table class=\"hl7__eu__lab__report\"><tr><th>Test</th><th>28-Aug-2017</th><th>Reference&#xA0;Range</th><th>Unit</th></tr><tr><td>Albumin [Mass/volume] in Serum or Plasma</td><td>5.5</td><td>3.5 - 5.5</td><td></td><td>g/dL</td></tr></table></div>"
        },
        "status": "final",
        "subject": {
          "reference": "urn:uuid:288a910d-e293-4ead-8b66-efedd70ae104",
          "display": "Maria Nohlmans"
        },
        "effectiveDateTime": "2017-08-28T05:35:39Z",
        "specimen": {
          "reference": "urn:uuid:2ce4262e-a9b1-47e6-b530-d6c378a6731b"
        }
      }
    },
    {
      "fullUrl": "urn:uuid:e36f8c47-27ff-49f7-8069-2eb06b084969",
      "resource": {
        "resourceType": "Observation",
        "id": "e36f8c47-27ff-49f7-8069-2eb06b084969",
        "meta": {
          "profile": [
            "http://hl7.eu/fhir/laboratory/StructureDefinition/Observation-resultslab-eu-lab"
          ]
        },
        "performer": [
          {
            "display": "The Central European Lab"
          }
        ],
        "category": [
          {
            "coding": [
              {
                "system": "http://terminology.hl7.org/CodeSystem/observation-category",
                "code": "laboratory"
              }
            ]
          }
        ],
        "code": {
          "coding": [
            {
              "code": "10834-0",
              "system": "http://loinc.org",
              "display": "Globulin [Mass/volume] in Serum by calculation"
            }
          ],
          "text": "Globulin [Mass/volume] in Serum by calculation"
        },
        "valueQuantity": {
          "system": "http://unitsofmeasure.org",
          "value": 2.5,
          "unit": "g/L",
          "code": "g/L"
        },
        "referenceRange": [
          {
            "low": {
              "value": 2,
              "code": "g/L",
              "system": "http://unitsofmeasure.org"
            }
          },
          {
            "high": {
              "value": 3.5,
              "code": "g/L",
              "system": "http://unitsofmeasure.org"
            }
          }
        ],
        "text": {
          "status": "generated",
          "div": "<div xmlns=\"http://www.w3.org/1999/xhtml\"><table class=\"hl7__eu__lab__report\"><tr><th>Test</th><th>28-Aug-2017</th><th>Reference&#xA0;Range</th><th>Unit</th></tr><tr><td>Globulin [Mass/volume] in Serum by calculation</td><td>2.5</td><td>2 - 3.5</td><td></td><td>g/L</td></tr></table></div>"
        },
        "status": "final",
        "subject": {
          "reference": "urn:uuid:288a910d-e293-4ead-8b66-efedd70ae104",
          "display": "Maria Nohlmans"
        },
        "effectiveDateTime": "2017-08-28T05:35:39Z",
        "specimen": {
          "reference": "urn:uuid:21b03116-3663-4d1d-bcdb-c17e64a1136d"
        }
      }
    },
    {
      "fullUrl": "urn:uuid:54b0da36-cdc7-4191-81d1-e49aaafc4118",
      "resource": {
        "resourceType": "Observation",
        "id": "54b0da36-cdc7-4191-81d1-e49aaafc4118",
        "meta": {
          "profile": [
            "http://hl7.eu/fhir/laboratory/StructureDefinition/Observation-resultslab-eu-lab"
          ]
        },
        "performer": [
          {
            "display": "The Central European Lab"
          }
        ],
        "category": [
          {
            "coding": [
              {
                "system": "http://terminology.hl7.org/CodeSystem/observation-category",
                "code": "laboratory"
              }
            ]
          }
        ],
        "code": {
          "coding": [
            {
              "code": "1975-2",
              "system": "http://loinc.org",
              "display": "Bilirubin.total [Mass/volume] in Serum or Plasma"
            }
          ],
          "text": "Bilirubin.total [Mass/volume] in Serum or Plasma"
        },
        "valueQuantity": {
          "system": "http://unitsofmeasure.org",
          "value": 1.2,
          "unit": "mg/dL",
          "code": "mg/dL"
        },
        "referenceRange": [
          {
            "low": {
              "value": 0.3,
              "code": "mg/dL",
              "system": "http://unitsofmeasure.org"
            }
          },
          {
            "high": {
              "value": 1.2,
              "code": "mg/dL",
              "system": "http://unitsofmeasure.org"
            }
          }
        ],
        "text": {
          "status": "generated",
          "div": "<div xmlns=\"http://www.w3.org/1999/xhtml\"><table class=\"hl7__eu__lab__report\"><tr><th>Test</th><th>28-Aug-2017</th><th>Reference&#xA0;Range</th><th>Unit</th></tr><tr><td>Bilirubin.total [Mass/volume] in Serum or Plasma</td><td>1.2</td><td>0.3 - 1.2</td><td></td><td>mg/dL</td></tr></table></div>"
        },
        "status": "final",
        "subject": {
          "reference": "urn:uuid:288a910d-e293-4ead-8b66-efedd70ae104",
          "display": "Maria Nohlmans"
        },
        "effectiveDateTime": "2017-08-28T05:35:39Z",
        "specimen": {
          "reference": "urn:uuid:2ce4262e-a9b1-47e6-b530-d6c378a6731b"
        }
      }
    },
    {
      "fullUrl": "urn:uuid:d620b333-2904-4bf0-bf8e-f958e78af09c",
      "resource": {
        "resourceType": "Observation",
        "id": "d620b333-2904-4bf0-bf8e-f958e78af09c",
        "meta": {
          "profile": [
            "http://hl7.eu/fhir/laboratory/StructureDefinition/Observation-resultslab-eu-lab"
          ]
        },
        "performer": [
          {
            "display": "The Central European Lab"
          }
        ],
        "category": [
          {
            "coding": [
              {
                "system": "http://terminology.hl7.org/CodeSystem/observation-category",
                "code": "laboratory"
              }
            ]
          }
        ],
        "code": {
          "coding": [
            {
              "code": "6768-6",
              "system": "http://loinc.org",
              "display": "Alkaline phosphatase [Enzymatic activity/volume] in Serum or Plasma"
            }
          ],
          "text": "Alkaline phosphatase [Enzymatic activity/volume] in Serum or Plasma"
        },
        "valueQuantity": {
          "system": "http://unitsofmeasure.org",
          "value": 93.7,
          "unit": "U/L",
          "code": "U/L"
        },
        "referenceRange": [
          {
            "low": {
              "value": 44,
              "code": "U/L",
              "system": "http://unitsofmeasure.org"
            }
          },
          {
            "high": {
              "value": 142,
              "code": "U/L",
              "system": "http://unitsofmeasure.org"
            }
          }
        ],
        "text": {
          "status": "generated",
          "div": "<div xmlns=\"http://www.w3.org/1999/xhtml\"><table class=\"hl7__eu__lab__report\"><tr><th>Test</th><th>28-Aug-2017</th><th>Reference&#xA0;Range</th><th>Unit</th></tr><tr><td>Alkaline phosphatase [Enzymatic activity/volume] in Serum or Plasma</td><td>93.7</td><td>44 - 142</td><td></td><td>U/L</td></tr></table></div>"
        },
        "status": "final",
        "subject": {
          "reference": "urn:uuid:288a910d-e293-4ead-8b66-efedd70ae104",
          "display": "Maria Nohlmans"
        },
        "effectiveDateTime": "2017-08-28T05:35:39Z",
        "specimen": {
          "reference": "urn:uuid:2ce4262e-a9b1-47e6-b530-d6c378a6731b"
        }
      }
    },
    {
      "fullUrl": "urn:uuid:e435bf89-4834-4f67-9b00-5da63bca16e4",
      "resource": {
        "resourceType": "Observation",
        "id": "e435bf89-4834-4f67-9b00-5da63bca16e4",
        "meta": {
          "profile": [
            "http://hl7.eu/fhir/laboratory/StructureDefinition/Observation-resultslab-eu-lab"
          ]
        },
        "performer": [
          {
            "display": "The Central European Lab"
          }
        ],
        "category": [
          {
            "coding": [
              {
                "system": "http://terminology.hl7.org/CodeSystem/observation-category",
                "code": "laboratory"
              }
            ]
          }
        ],
        "code": {
          "coding": [
            {
              "code": "1742-6",
              "system": "http://loinc.org",
              "display": "Alanine aminotransferase [Enzymatic activity/volume] in Serum or Plasma"
            }
          ],
          "text": "Alanine aminotransferase [Enzymatic activity/volume] in Serum or Plasma"
        },
        "valueQuantity": {
          "system": "http://unitsofmeasure.org",
          "value": 59.1,
          "unit": "U/L",
          "code": "U/L"
        },
        "referenceRange": [
          {
            "low": {
              "value": 7,
              "code": "U/L",
              "system": "http://unitsofmeasure.org"
            }
          },
          {
            "high": {
              "value": 40,
              "code": "U/L",
              "system": "http://unitsofmeasure.org"
            }
          }
        ],
        "interpretation": [
          {
            "coding": [
              {
                "code": "H",
                "system": "http://terminology.hl7.org/CodeSystem/v3-ObservationInterpretation",
                "display": "High"
              }
            ]
          }
        ],
        "text": {
          "status": "generated",
          "div": "<div xmlns=\"http://www.w3.org/1999/xhtml\"><table class=\"hl7__eu__lab__report\"><tr><th>Test</th><th>28-Aug-2017</th><th>Reference&#xA0;Range</th><th>Unit</th></tr><tr><td>Alanine aminotransferase [Enzymatic activity/volume] in Serum or Plasma</td><td>59.1</td><td>7 - 40</td><td>H</td><td>U/L</td></tr></table></div>"
        },
        "status": "final",
        "subject": {
          "reference": "urn:uuid:288a910d-e293-4ead-8b66-efedd70ae104",
          "display": "Maria Nohlmans"
        },
        "effectiveDateTime": "2017-08-28T05:35:39Z",
        "specimen": {
          "reference": "urn:uuid:2ce4262e-a9b1-47e6-b530-d6c378a6731b"
        }
      }
    },
    {
      "fullUrl": "urn:uuid:b3386c69-d1be-49e3-9ef9-263432a1f394",
      "resource": {
        "resourceType": "Observation",
        "id": "b3386c69-d1be-49e3-9ef9-263432a1f394",
        "meta": {
          "profile": [
            "http://hl7.eu/fhir/laboratory/StructureDefinition/Observation-resultslab-eu-lab"
          ]
        },
        "performer": [
          {
            "display": "The Central European Lab"
          }
        ],
        "category": [
          {
            "coding": [
              {
                "system": "http://terminology.hl7.org/CodeSystem/observation-category",
                "code": "laboratory"
              }
            ]
          }
        ],
        "code": {
          "coding": [
            {
              "code": "1920-8",
              "system": "http://loinc.org",
              "display": "Aspartate aminotransferase [Enzymatic activity/volume] in Serum or Plasma"
            }
          ],
          "text": "Aspartate aminotransferase [Enzymatic activity/volume] in Serum or Plasma"
        },
        "valueQuantity": {
          "system": "http://unitsofmeasure.org",
          "value": 23.3,
          "unit": "U/L",
          "code": "U/L"
        },
        "referenceRange": [
          {
            "low": {
              "value": 10,
              "code": "U/L",
              "system": "http://unitsofmeasure.org"
            }
          },
          {
            "high": {
              "value": 40,
              "code": "U/L",
              "system": "http://unitsofmeasure.org"
            }
          }
        ],
        "text": {
          "status": "generated",
          "div": "<div xmlns=\"http://www.w3.org/1999/xhtml\"><table class=\"hl7__eu__lab__report\"><tr><th>Test</th><th>28-Aug-2017</th><th>Reference&#xA0;Range</th><th>Unit</th></tr><tr><td>Aspartate aminotransferase [Enzymatic activity/volume] in Serum or Plasma</td><td>23.3</td><td>10 - 40</td><td></td><td>U/L</td></tr></table></div>"
        },
        "status": "final",
        "subject": {
          "reference": "urn:uuid:288a910d-e293-4ead-8b66-efedd70ae104",
          "display": "Maria Nohlmans"
        },
        "effectiveDateTime": "2017-08-28T05:35:39Z",
        "specimen": {
          "reference": "urn:uuid:2ce4262e-a9b1-47e6-b530-d6c378a6731b"
        }
      }
    },
    {
      "fullUrl": "urn:uuid:1886ea28-2ad6-4964-b9ab-fb15daa6aad3",
      "resource": {
        "resourceType": "Observation",
        "id": "1886ea28-2ad6-4964-b9ab-fb15daa6aad3",
        "meta": {
          "profile": [
            "http://hl7.eu/fhir/laboratory/StructureDefinition/Observation-resultslab-eu-lab"
          ]
        },
        "performer": [
          {
            "display": "The Central European Lab"
          }
        ],
        "category": [
          {
            "coding": [
              {
                "system": "http://terminology.hl7.org/CodeSystem/observation-category",
                "code": "laboratory"
              }
            ]
          }
        ],
        "code": {
          "coding": [
            {
              "code": "5767-9",
              "system": "http://loinc.org",
              "display": "Appearance of Urine"
            }
          ],
          "text": "Appearance of Urine"
        },
        "text": {
          "status": "generated",
          "div": "<div xmlns=\"http://www.w3.org/1999/xhtml\"><table class=\"hl7__eu__lab__report\"><tr><th>Test</th><th>28-Aug-2017</th><th>Reference&#xA0;Range</th><th>Unit</th></tr><tr><td>Appearance of Urine</td></tr></table></div>"
        },
        "status": "final",
        "subject": {
          "reference": "urn:uuid:288a910d-e293-4ead-8b66-efedd70ae104",
          "display": "Maria Nohlmans"
        },
        "effectiveDateTime": "2017-08-28T05:35:39Z",
        "specimen": {
          "reference": "urn:uuid:1fb59f0c-fc0e-4a4c-8016-bc2de4fb1c39"
        }
      }
    },
    {
      "fullUrl": "urn:uuid:f848a616-e440-4895-8a39-46bcfa5d4f22",
      "resource": {
        "resourceType": "Observation",
        "id": "f848a616-e440-4895-8a39-46bcfa5d4f22",
        "meta": {
          "profile": [
            "http://hl7.eu/fhir/laboratory/StructureDefinition/Observation-resultslab-eu-lab"
          ]
        },
        "performer": [
          {
            "display": "The Central European Lab"
          }
        ],
        "category": [
          {
            "coding": [
              {
                "system": "http://terminology.hl7.org/CodeSystem/observation-category",
                "code": "laboratory"
              }
            ]
          }
        ],
        "code": {
          "coding": [
            {
              "code": "34533-0",
              "system": "http://loinc.org",
              "display": "Odor of Urine"
            }
          ],
          "text": "Odor of Urine"
        },
        "text": {
          "status": "generated",
          "div": "<div xmlns=\"http://www.w3.org/1999/xhtml\"><table class=\"hl7__eu__lab__report\"><tr><th>Test</th><th>28-Aug-2017</th><th>Reference&#xA0;Range</th><th>Unit</th></tr><tr><td>Odor of Urine</td></tr></table></div>"
        },
        "status": "final",
        "subject": {
          "reference": "urn:uuid:288a910d-e293-4ead-8b66-efedd70ae104",
          "display": "Maria Nohlmans"
        },
        "effectiveDateTime": "2017-08-28T05:35:39Z",
        "specimen": {
          "reference": "urn:uuid:1fb59f0c-fc0e-4a4c-8016-bc2de4fb1c39"
        }
      }
    },
    {
      "fullUrl": "urn:uuid:b379e8ae-7153-4ac5-a3d3-ce76deff440f",
      "resource": {
        "resourceType": "Observation",
        "id": "b379e8ae-7153-4ac5-a3d3-ce76deff440f",
        "meta": {
          "profile": [
            "http://hl7.eu/fhir/laboratory/StructureDefinition/Observation-resultslab-eu-lab"
          ]
        },
        "performer": [
          {
            "display": "The Central European Lab"
          }
        ],
        "category": [
          {
            "coding": [
              {
                "system": "http://terminology.hl7.org/CodeSystem/observation-category",
                "code": "laboratory"
              }
            ]
          }
        ],
        "code": {
          "coding": [
            {
              "code": "32167-9",
              "system": "http://loinc.org",
              "display": "Clarity of Urine"
            }
          ],
          "text": "Clarity of Urine"
        },
        "text": {
          "status": "generated",
          "div": "<div xmlns=\"http://www.w3.org/1999/xhtml\"><table class=\"hl7__eu__lab__report\"><tr><th>Test</th><th>28-Aug-2017</th><th>Reference&#xA0;Range</th><th>Unit</th></tr><tr><td>Clarity of Urine</td></tr></table></div>"
        },
        "status": "final",
        "subject": {
          "reference": "urn:uuid:288a910d-e293-4ead-8b66-efedd70ae104",
          "display": "Maria Nohlmans"
        },
        "effectiveDateTime": "2017-08-28T05:35:39Z",
        "specimen": {
          "reference": "urn:uuid:1fb59f0c-fc0e-4a4c-8016-bc2de4fb1c39"
        }
      }
    },
    {
      "fullUrl": "urn:uuid:dc660347-7b7f-497f-89cd-723db7e14725",
      "resource": {
        "resourceType": "Observation",
        "id": "dc660347-7b7f-497f-89cd-723db7e14725",
        "meta": {
          "profile": [
            "http://hl7.eu/fhir/laboratory/StructureDefinition/Observation-resultslab-eu-lab"
          ]
        },
        "performer": [
          {
            "display": "The Central European Lab"
          }
        ],
        "category": [
          {
            "coding": [
              {
                "system": "http://terminology.hl7.org/CodeSystem/observation-category",
                "code": "laboratory"
              }
            ]
          }
        ],
        "code": {
          "coding": [
            {
              "code": "5778-6",
              "system": "http://loinc.org",
              "display": "Color of Urine"
            }
          ],
          "text": "Color of Urine"
        },
        "text": {
          "status": "generated",
          "div": "<div xmlns=\"http://www.w3.org/1999/xhtml\"><table class=\"hl7__eu__lab__report\"><tr><th>Test</th><th>28-Aug-2017</th><th>Reference&#xA0;Range</th><th>Unit</th></tr><tr><td>Color of Urine</td></tr></table></div>"
        },
        "status": "final",
        "subject": {
          "reference": "urn:uuid:288a910d-e293-4ead-8b66-efedd70ae104",
          "display": "Maria Nohlmans"
        },
        "effectiveDateTime": "2017-08-28T05:35:39Z",
        "specimen": {
          "reference": "urn:uuid:1fb59f0c-fc0e-4a4c-8016-bc2de4fb1c39"
        }
      }
    },
    {
      "fullUrl": "urn:uuid:71556cc8-6c53-4374-8993-8603963e11c3",
      "resource": {
        "resourceType": "Observation",
        "id": "71556cc8-6c53-4374-8993-8603963e11c3",
        "meta": {
          "profile": [
            "http://hl7.eu/fhir/laboratory/StructureDefinition/Observation-resultslab-eu-lab"
          ]
        },
        "performer": [
          {
            "display": "The Central European Lab"
          }
        ],
        "category": [
          {
            "coding": [
              {
                "system": "http://terminology.hl7.org/CodeSystem/observation-category",
                "code": "laboratory"
              }
            ]
          }
        ],
        "code": {
          "coding": [
            {
              "code": "5792-7",
              "system": "http://loinc.org",
              "display": "Glucose [Mass/volume] in Urine by Test strip"
            }
          ],
          "text": "Glucose [Mass/volume] in Urine by Test strip"
        },
        "valueQuantity": {
          "system": "http://unitsofmeasure.org",
          "value": 1.6,
          "unit": "mg/dL",
          "code": "mg/dL"
        },
        "referenceRange": [
          {
            "low": {
              "value": 0.8,
              "code": "mg/dL",
              "system": "http://unitsofmeasure.org"
            }
          },
          {
            "high": {
              "value": 0,
              "code": "mg/dL",
              "system": "http://unitsofmeasure.org"
            }
          }
        ],
        "interpretation": [
          {
            "coding": [
              {
                "code": "H",
                "system": "http://terminology.hl7.org/CodeSystem/v3-ObservationInterpretation",
                "display": "High"
              }
            ]
          }
        ],
        "text": {
          "status": "generated",
          "div": "<div xmlns=\"http://www.w3.org/1999/xhtml\"><table class=\"hl7__eu__lab__report\"><tr><th>Test</th><th>28-Aug-2017</th><th>Reference&#xA0;Range</th><th>Unit</th></tr><tr><td>Glucose [Mass/volume] in Urine by Test strip</td><td>1.6</td><td>0.8 - 0</td><td>H</td><td>mg/dL</td></tr></table></div>"
        },
        "status": "final",
        "subject": {
          "reference": "urn:uuid:288a910d-e293-4ead-8b66-efedd70ae104",
          "display": "Maria Nohlmans"
        },
        "effectiveDateTime": "2017-08-28T05:35:39Z",
        "specimen": {
          "reference": "urn:uuid:1fb59f0c-fc0e-4a4c-8016-bc2de4fb1c39"
        }
      }
    },
    {
      "fullUrl": "urn:uuid:9faf9e83-7793-459d-9fde-19fca9c2a8ac",
      "resource": {
        "resourceType": "Observation",
        "id": "9faf9e83-7793-459d-9fde-19fca9c2a8ac",
        "meta": {
          "profile": [
            "http://hl7.eu/fhir/laboratory/StructureDefinition/Observation-resultslab-eu-lab"
          ]
        },
        "performer": [
          {
            "display": "The Central European Lab"
          }
        ],
        "category": [
          {
            "coding": [
              {
                "system": "http://terminology.hl7.org/CodeSystem/observation-category",
                "code": "laboratory"
              }
            ]
          }
        ],
        "code": {
          "coding": [
            {
              "code": "25428-4",
              "system": "http://loinc.org",
              "display": "Glucose [Presence] in Urine by Test strip"
            }
          ],
          "text": "Glucose [Presence] in Urine by Test strip"
        },
        "text": {
          "status": "generated",
          "div": "<div xmlns=\"http://www.w3.org/1999/xhtml\"><table class=\"hl7__eu__lab__report\"><tr><th>Test</th><th>28-Aug-2017</th><th>Reference&#xA0;Range</th><th>Unit</th></tr><tr><td>Glucose [Presence] in Urine by Test strip</td></tr></table></div>"
        },
        "status": "final",
        "subject": {
          "reference": "urn:uuid:288a910d-e293-4ead-8b66-efedd70ae104",
          "display": "Maria Nohlmans"
        },
        "effectiveDateTime": "2017-08-28T05:35:39Z",
        "specimen": {
          "reference": "urn:uuid:1fb59f0c-fc0e-4a4c-8016-bc2de4fb1c39"
        }
      }
    },
    {
      "fullUrl": "urn:uuid:44e1ac85-7ffa-4424-9a63-9a6f06345222",
      "resource": {
        "resourceType": "Observation",
        "id": "44e1ac85-7ffa-4424-9a63-9a6f06345222",
        "meta": {
          "profile": [
            "http://hl7.eu/fhir/laboratory/StructureDefinition/Observation-resultslab-eu-lab"
          ]
        },
        "performer": [
          {
            "display": "The Central European Lab"
          }
        ],
        "category": [
          {
            "coding": [
              {
                "system": "http://terminology.hl7.org/CodeSystem/observation-category",
                "code": "laboratory"
              }
            ]
          }
        ],
        "code": {
          "coding": [
            {
              "code": "20505-4",
              "system": "http://loinc.org",
              "display": "Bilirubin.total [Mass/volume] in Urine by Test strip"
            }
          ],
          "text": "Bilirubin.total [Mass/volume] in Urine by Test strip"
        },
        "valueQuantity": {
          "system": "http://unitsofmeasure.org",
          "value": 1,
          "unit": "mg/dL",
          "code": "mg/dL"
        },
        "referenceRange": [
          {
            "low": {
              "value": 0,
              "code": "mg/dL",
              "system": "http://unitsofmeasure.org"
            }
          },
          {
            "high": {
              "value": 1.5,
              "code": "mg/dL",
              "system": "http://unitsofmeasure.org"
            }
          }
        ],
        "text": {
          "status": "generated",
          "div": "<div xmlns=\"http://www.w3.org/1999/xhtml\"><table class=\"hl7__eu__lab__report\"><tr><th>Test</th><th>28-Aug-2017</th><th>Reference&#xA0;Range</th><th>Unit</th></tr><tr><td>Bilirubin.total [Mass/volume] in Urine by Test strip</td><td>1.0</td><td>0 - 1.5</td><td></td><td>mg/dL</td></tr></table></div>"
        },
        "status": "final",
        "subject": {
          "reference": "urn:uuid:288a910d-e293-4ead-8b66-efedd70ae104",
          "display": "Maria Nohlmans"
        },
        "effectiveDateTime": "2017-08-28T05:35:39Z",
        "specimen": {
          "reference": "urn:uuid:1fb59f0c-fc0e-4a4c-8016-bc2de4fb1c39"
        }
      }
    },
    {
      "fullUrl": "urn:uuid:3cc718ae-22ff-4f6a-bddf-10b1651f926d",
      "resource": {
        "resourceType": "Observation",
        "id": "3cc718ae-22ff-4f6a-bddf-10b1651f926d",
        "meta": {
          "profile": [
            "http://hl7.eu/fhir/laboratory/StructureDefinition/Observation-resultslab-eu-lab"
          ]
        },
        "performer": [
          {
            "display": "The Central European Lab"
          }
        ],
        "category": [
          {
            "coding": [
              {
                "system": "http://terminology.hl7.org/CodeSystem/observation-category",
                "code": "laboratory"
              }
            ]
          }
        ],
        "code": {
          "coding": [
            {
              "code": "5770-3",
              "system": "http://loinc.org",
              "display": "Bilirubin.total [Presence] in Urine by Test strip"
            }
          ],
          "text": "Bilirubin.total [Presence] in Urine by Test strip"
        },
        "text": {
          "status": "generated",
          "div": "<div xmlns=\"http://www.w3.org/1999/xhtml\"><table class=\"hl7__eu__lab__report\"><tr><th>Test</th><th>28-Aug-2017</th><th>Reference&#xA0;Range</th><th>Unit</th></tr><tr><td>Bilirubin.total [Presence] in Urine by Test strip</td></tr></table></div>"
        },
        "status": "final",
        "subject": {
          "reference": "urn:uuid:288a910d-e293-4ead-8b66-efedd70ae104",
          "display": "Maria Nohlmans"
        },
        "effectiveDateTime": "2017-08-28T05:35:39Z",
        "specimen": {
          "reference": "urn:uuid:1fb59f0c-fc0e-4a4c-8016-bc2de4fb1c39"
        }
      }
    },
    {
      "fullUrl": "urn:uuid:3fee4434-110a-4c75-81b6-0848169326e4",
      "resource": {
        "resourceType": "Observation",
        "id": "3fee4434-110a-4c75-81b6-0848169326e4",
        "meta": {
          "profile": [
            "http://hl7.eu/fhir/laboratory/StructureDefinition/Observation-resultslab-eu-lab"
          ]
        },
        "performer": [
          {
            "display": "The Central European Lab"
          }
        ],
        "category": [
          {
            "coding": [
              {
                "system": "http://terminology.hl7.org/CodeSystem/observation-category",
                "code": "laboratory"
              }
            ]
          }
        ],
        "code": {
          "coding": [
            {
              "code": "5797-6",
              "system": "http://loinc.org",
              "display": "Ketones [Mass/volume] in Urine by Test strip"
            }
          ],
          "text": "Ketones [Mass/volume] in Urine by Test strip"
        },
        "valueQuantity": {
          "system": "http://unitsofmeasure.org",
          "value": 7.3,
          "unit": "mg/dL",
          "code": "mg/dL"
        },
        "referenceRange": [
          {
            "low": {
              "value": 0,
              "code": "mg/dL",
              "system": "http://unitsofmeasure.org"
            }
          },
          {
            "high": {
              "value": 8,
              "code": "mg/dL",
              "system": "http://unitsofmeasure.org"
            }
          }
        ],
        "text": {
          "status": "generated",
          "div": "<div xmlns=\"http://www.w3.org/1999/xhtml\"><table class=\"hl7__eu__lab__report\"><tr><th>Test</th><th>28-Aug-2017</th><th>Reference&#xA0;Range</th><th>Unit</th></tr><tr><td>Ketones [Mass/volume] in Urine by Test strip</td><td>7.3</td><td>0 - 8</td><td></td><td>mg/dL</td></tr></table></div>"
        },
        "status": "final",
        "subject": {
          "reference": "urn:uuid:288a910d-e293-4ead-8b66-efedd70ae104",
          "display": "Maria Nohlmans"
        },
        "effectiveDateTime": "2017-08-28T05:35:39Z",
        "specimen": {
          "reference": "urn:uuid:1fb59f0c-fc0e-4a4c-8016-bc2de4fb1c39"
        }
      }
    },
    {
      "fullUrl": "urn:uuid:1dc25b39-04ce-444f-b753-71f6d339e090",
      "resource": {
        "resourceType": "Observation",
        "id": "1dc25b39-04ce-444f-b753-71f6d339e090",
        "meta": {
          "profile": [
            "http://hl7.eu/fhir/laboratory/StructureDefinition/Observation-resultslab-eu-lab"
          ]
        },
        "performer": [
          {
            "display": "The Central European Lab"
          }
        ],
        "category": [
          {
            "coding": [
              {
                "system": "http://terminology.hl7.org/CodeSystem/observation-category",
                "code": "laboratory"
              }
            ]
          }
        ],
        "code": {
          "coding": [
            {
              "code": "2514-8",
              "system": "http://loinc.org",
              "display": "Ketones [Presence] in Urine by Test strip"
            }
          ],
          "text": "Ketones [Presence] in Urine by Test strip"
        },
        "text": {
          "status": "generated",
          "div": "<div xmlns=\"http://www.w3.org/1999/xhtml\"><table class=\"hl7__eu__lab__report\"><tr><th>Test</th><th>28-Aug-2017</th><th>Reference&#xA0;Range</th><th>Unit</th></tr><tr><td>Ketones [Presence] in Urine by Test strip</td></tr></table></div>"
        },
        "status": "final",
        "subject": {
          "reference": "urn:uuid:288a910d-e293-4ead-8b66-efedd70ae104",
          "display": "Maria Nohlmans"
        },
        "effectiveDateTime": "2017-08-28T05:35:39Z",
        "specimen": {
          "reference": "urn:uuid:1fb59f0c-fc0e-4a4c-8016-bc2de4fb1c39"
        }
      }
    },
    {
      "fullUrl": "urn:uuid:a6931cbf-387e-4c97-89d9-1c0408261e82",
      "resource": {
        "resourceType": "Observation",
        "id": "a6931cbf-387e-4c97-89d9-1c0408261e82",
        "meta": {
          "profile": [
            "http://hl7.eu/fhir/laboratory/StructureDefinition/Observation-resultslab-eu-lab"
          ]
        },
        "performer": [
          {
            "display": "The Central European Lab"
          }
        ],
        "category": [
          {
            "coding": [
              {
                "system": "http://terminology.hl7.org/CodeSystem/observation-category",
                "code": "laboratory"
              }
            ]
          }
        ],
        "code": {
          "coding": [
            {
              "code": "5811-5",
              "system": "http://loinc.org",
              "display": "Specific gravity of Urine by Test strip"
            }
          ],
          "text": "Specific gravity of Urine by Test strip"
        },
        "valueQuantity": {
          "system": "http://unitsofmeasure.org",
          "value": 1,
          "unit": "{nominal}",
          "code": "{nominal}"
        },
        "referenceRange": [
          {
            "low": {
              "value": 1.01,
              "code": "g/mL",
              "system": "http://unitsofmeasure.org"
            }
          },
          {
            "high": {
              "value": 1.03,
              "code": "g/mL",
              "system": "http://unitsofmeasure.org"
            }
          }
        ],
        "interpretation": [
          {
            "coding": [
              {
                "code": "L",
                "system": "http://terminology.hl7.org/CodeSystem/v3-ObservationInterpretation",
                "display": "Low"
              }
            ]
          }
        ],
        "text": {
          "status": "generated",
          "div": "<div xmlns=\"http://www.w3.org/1999/xhtml\"><table class=\"hl7__eu__lab__report\"><tr><th>Test</th><th>28-Aug-2017</th><th>Reference&#xA0;Range</th><th>Unit</th></tr><tr><td>Specific gravity of Urine by Test strip</td><td>1.0</td><td>1.01 - 1.03</td><td>L</td><td>{nominal}</td></tr></table></div>"
        },
        "status": "final",
        "subject": {
          "reference": "urn:uuid:288a910d-e293-4ead-8b66-efedd70ae104",
          "display": "Maria Nohlmans"
        },
        "effectiveDateTime": "2017-08-28T05:35:39Z",
        "specimen": {
          "reference": "urn:uuid:1fb59f0c-fc0e-4a4c-8016-bc2de4fb1c39"
        }
      }
    },
    {
      "fullUrl": "urn:uuid:31ecb52f-0326-4b82-a54f-897adb7007c0",
      "resource": {
        "resourceType": "Observation",
        "id": "31ecb52f-0326-4b82-a54f-897adb7007c0",
        "meta": {
          "profile": [
            "http://hl7.eu/fhir/laboratory/StructureDefinition/Observation-resultslab-eu-lab"
          ]
        },
        "performer": [
          {
            "display": "The Central European Lab"
          }
        ],
        "category": [
          {
            "coding": [
              {
                "system": "http://terminology.hl7.org/CodeSystem/observation-category",
                "code": "laboratory"
              }
            ]
          }
        ],
        "code": {
          "coding": [
            {
              "code": "5803-2",
              "system": "http://loinc.org",
              "display": "pH of Urine by Test strip"
            }
          ],
          "text": "pH of Urine by Test strip"
        },
        "valueQuantity": {
          "system": "http://unitsofmeasure.org",
          "value": 5.8,
          "unit": "pH",
          "code": "pH"
        },
        "referenceRange": [
          {
            "low": {
              "value": 4.6,
              "code": "pH",
              "system": "http://unitsofmeasure.org"
            }
          },
          {
            "high": {
              "value": 7.5,
              "code": "pH",
              "system": "http://unitsofmeasure.org"
            }
          }
        ],
        "text": {
          "status": "generated",
          "div": "<div xmlns=\"http://www.w3.org/1999/xhtml\"><table class=\"hl7__eu__lab__report\"><tr><th>Test</th><th>28-Aug-2017</th><th>Reference&#xA0;Range</th><th>Unit</th></tr><tr><td>pH of Urine by Test strip</td><td>5.8</td><td>4.6 - 7.5</td><td></td><td>pH</td></tr></table></div>"
        },
        "status": "final",
        "subject": {
          "reference": "urn:uuid:288a910d-e293-4ead-8b66-efedd70ae104",
          "display": "Maria Nohlmans"
        },
        "effectiveDateTime": "2017-08-28T05:35:39Z",
        "specimen": {
          "reference": "urn:uuid:1fb59f0c-fc0e-4a4c-8016-bc2de4fb1c39"
        }
      }
    },
    {
      "fullUrl": "urn:uuid:f29d4d8b-2deb-4d9a-9d6b-7806aaf4d365",
      "resource": {
        "resourceType": "Observation",
        "id": "f29d4d8b-2deb-4d9a-9d6b-7806aaf4d365",
        "meta": {
          "profile": [
            "http://hl7.eu/fhir/laboratory/StructureDefinition/Observation-resultslab-eu-lab"
          ]
        },
        "performer": [
          {
            "display": "The Central European Lab"
          }
        ],
        "category": [
          {
            "coding": [
              {
                "system": "http://terminology.hl7.org/CodeSystem/observation-category",
                "code": "laboratory"
              }
            ]
          }
        ],
        "code": {
          "coding": [
            {
              "code": "5804-0",
              "system": "http://loinc.org",
              "display": "Protein [Mass/volume] in Urine by Test strip"
            }
          ],
          "text": "Protein [Mass/volume] in Urine by Test strip"
        },
        "valueQuantity": {
          "system": "http://unitsofmeasure.org",
          "value": 260.2,
          "unit": "mg/dL",
          "code": "mg/dL"
        },
        "referenceRange": [
          {
            "low": {
              "value": 0,
              "code": "mg/dL",
              "system": "http://unitsofmeasure.org"
            }
          },
          {
            "high": {
              "value": 14,
              "code": "mg/dL",
              "system": "http://unitsofmeasure.org"
            }
          }
        ],
        "interpretation": [
          {
            "coding": [
              {
                "code": "H",
                "system": "http://terminology.hl7.org/CodeSystem/v3-ObservationInterpretation",
                "display": "High"
              }
            ]
          }
        ],
        "text": {
          "status": "generated",
          "div": "<div xmlns=\"http://www.w3.org/1999/xhtml\"><table class=\"hl7__eu__lab__report\"><tr><th>Test</th><th>28-Aug-2017</th><th>Reference&#xA0;Range</th><th>Unit</th></tr><tr><td>Protein [Mass/volume] in Urine by Test strip</td><td>260.2</td><td>0 - 14</td><td>H</td><td>mg/dL</td></tr></table></div>"
        },
        "status": "final",
        "subject": {
          "reference": "urn:uuid:288a910d-e293-4ead-8b66-efedd70ae104",
          "display": "Maria Nohlmans"
        },
        "effectiveDateTime": "2017-08-28T05:35:39Z",
        "specimen": {
          "reference": "urn:uuid:1fb59f0c-fc0e-4a4c-8016-bc2de4fb1c39"
        }
      }
    },
    {
      "fullUrl": "urn:uuid:278b87f8-54fb-4c28-a6a0-7f78a5306146",
      "resource": {
        "resourceType": "Observation",
        "id": "278b87f8-54fb-4c28-a6a0-7f78a5306146",
        "meta": {
          "profile": [
            "http://hl7.eu/fhir/laboratory/StructureDefinition/Observation-resultslab-eu-lab"
          ]
        },
        "performer": [
          {
            "display": "The Central European Lab"
          }
        ],
        "category": [
          {
            "coding": [
              {
                "system": "http://terminology.hl7.org/CodeSystem/observation-category",
                "code": "laboratory"
              }
            ]
          }
        ],
        "code": {
          "coding": [
            {
              "code": "20454-5",
              "system": "http://loinc.org",
              "display": "Protein [Presence] in Urine by Test strip"
            }
          ],
          "text": "Protein [Presence] in Urine by Test strip"
        },
        "text": {
          "status": "generated",
          "div": "<div xmlns=\"http://www.w3.org/1999/xhtml\"><table class=\"hl7__eu__lab__report\"><tr><th>Test</th><th>28-Aug-2017</th><th>Reference&#xA0;Range</th><th>Unit</th></tr><tr><td>Protein [Presence] in Urine by Test strip</td></tr></table></div>"
        },
        "status": "final",
        "subject": {
          "reference": "urn:uuid:288a910d-e293-4ead-8b66-efedd70ae104",
          "display": "Maria Nohlmans"
        },
        "effectiveDateTime": "2017-08-28T05:35:39Z",
        "specimen": {
          "reference": "urn:uuid:1fb59f0c-fc0e-4a4c-8016-bc2de4fb1c39"
        }
      }
    },
    {
      "fullUrl": "urn:uuid:99a7b05d-3977-4299-a968-12646cbc6495",
      "resource": {
        "resourceType": "Observation",
        "id": "99a7b05d-3977-4299-a968-12646cbc6495",
        "meta": {
          "profile": [
            "http://hl7.eu/fhir/laboratory/StructureDefinition/Observation-resultslab-eu-lab"
          ]
        },
        "performer": [
          {
            "display": "The Central European Lab"
          }
        ],
        "category": [
          {
            "coding": [
              {
                "system": "http://terminology.hl7.org/CodeSystem/observation-category",
                "code": "laboratory"
              }
            ]
          }
        ],
        "code": {
          "coding": [
            {
              "code": "5802-4",
              "system": "http://loinc.org",
              "display": "Nitrite [Presence] in Urine by Test strip"
            }
          ],
          "text": "Nitrite [Presence] in Urine by Test strip"
        },
        "text": {
          "status": "generated",
          "div": "<div xmlns=\"http://www.w3.org/1999/xhtml\"><table class=\"hl7__eu__lab__report\"><tr><th>Test</th><th>28-Aug-2017</th><th>Reference&#xA0;Range</th><th>Unit</th></tr><tr><td>Nitrite [Presence] in Urine by Test strip</td></tr></table></div>"
        },
        "status": "final",
        "subject": {
          "reference": "urn:uuid:288a910d-e293-4ead-8b66-efedd70ae104",
          "display": "Maria Nohlmans"
        },
        "effectiveDateTime": "2017-08-28T05:35:39Z",
        "specimen": {
          "reference": "urn:uuid:1fb59f0c-fc0e-4a4c-8016-bc2de4fb1c39"
        }
      }
    },
    {
      "fullUrl": "urn:uuid:269b4142-3f91-43ab-9e6e-ac2c83c3fb9c",
      "resource": {
        "resourceType": "Observation",
        "id": "269b4142-3f91-43ab-9e6e-ac2c83c3fb9c",
        "meta": {
          "profile": [
            "http://hl7.eu/fhir/laboratory/StructureDefinition/Observation-resultslab-eu-lab"
          ]
        },
        "performer": [
          {
            "display": "The Central European Lab"
          }
        ],
        "category": [
          {
            "coding": [
              {
                "system": "http://terminology.hl7.org/CodeSystem/observation-category",
                "code": "laboratory"
              }
            ]
          }
        ],
        "code": {
          "coding": [
            {
              "code": "5794-3",
              "system": "http://loinc.org",
              "display": "Hemoglobin [Presence] in Urine by Test strip"
            }
          ],
          "text": "Hemoglobin [Presence] in Urine by Test strip"
        },
        "text": {
          "status": "generated",
          "div": "<div xmlns=\"http://www.w3.org/1999/xhtml\"><table class=\"hl7__eu__lab__report\"><tr><th>Test</th><th>28-Aug-2017</th><th>Reference&#xA0;Range</th><th>Unit</th></tr><tr><td>Hemoglobin [Presence] in Urine by Test strip</td></tr></table></div>"
        },
        "status": "final",
        "subject": {
          "reference": "urn:uuid:288a910d-e293-4ead-8b66-efedd70ae104",
          "display": "Maria Nohlmans"
        },
        "effectiveDateTime": "2017-08-28T05:35:39Z",
        "specimen": {
          "reference": "urn:uuid:1fb59f0c-fc0e-4a4c-8016-bc2de4fb1c39"
        }
      }
    },
    {
      "fullUrl": "urn:uuid:a98bc769-2d09-4948-b2a3-a46e0ed72ff6",
      "resource": {
        "resourceType": "Observation",
        "id": "a98bc769-2d09-4948-b2a3-a46e0ed72ff6",
        "meta": {
          "profile": [
            "http://hl7.eu/fhir/laboratory/StructureDefinition/Observation-resultslab-eu-lab"
          ]
        },
        "performer": [
          {
            "display": "The Central European Lab"
          }
        ],
        "category": [
          {
            "coding": [
              {
                "system": "http://terminology.hl7.org/CodeSystem/observation-category",
                "code": "laboratory"
              }
            ]
          }
        ],
        "code": {
          "coding": [
            {
              "code": "5799-2",
              "system": "http://loinc.org",
              "display": "Leukocyte esterase [Presence] in Urine by Test strip"
            }
          ],
          "text": "Leukocyte esterase [Presence] in Urine by Test strip"
        },
        "text": {
          "status": "generated",
          "div": "<div xmlns=\"http://www.w3.org/1999/xhtml\"><table class=\"hl7__eu__lab__report\"><tr><th>Test</th><th>28-Aug-2017</th><th>Reference&#xA0;Range</th><th>Unit</th></tr><tr><td>Leukocyte esterase [Presence] in Urine by Test strip</td></tr></table></div>"
        },
        "status": "final",
        "subject": {
          "reference": "urn:uuid:288a910d-e293-4ead-8b66-efedd70ae104",
          "display": "Maria Nohlmans"
        },
        "effectiveDateTime": "2017-08-28T05:35:39Z",
        "specimen": {
          "reference": "urn:uuid:1fb59f0c-fc0e-4a4c-8016-bc2de4fb1c39"
        }
      }
    },
    {
      "fullUrl": "urn:uuid:0b339a6b-cc0b-4781-91ff-d386c705f2aa",
      "resource": {
        "resourceType": "Device",
        "id": "0b339a6b-cc0b-4781-91ff-d386c705f2aa",
        "deviceName": [
          {
            "name": "SYNDERAI Synthetic Generator",
            "type": "manufacturer-name"
          }
        ],
        "version": [
          {
            "value": "5.0"
          }
        ],
        "text": {
          "status": "generated",
          "div": "<div xmlns=\"http://www.w3.org/1999/xhtml\">SYNDERAI Synthetic Generator v5.0</div>"
        },
        "status": "active\"",
        "distinctIdentifier": "synderai-generator-50",
        "manufacturer": "SYNDERAI Project"
      }
    },
    {
      "fullUrl": "urn:uuid:117d65f4-69c5-4aa3-a8f3-9d9984218b51",
      "resource": {
        "resourceType": "Provenance",
        "id": "117d65f4-69c5-4aa3-a8f3-9d9984218b51",
        "target": [
          {
            "reference": "Patient/288a910d-e293-4ead-8b66-efedd70ae104"
          },
          {
            "reference": "Bundle/74c39980-96b8-4a1c-b918-c1eb80cafe77"
          },
          {
            "reference": "Composition/23ecc64a-1109-403b-8704-3b2a123875dc"
          },
          {
            "reference": "PractitionerRole/c7d911bd-f0a4-4b21-9f05-d3ddaaa55297"
          },
          {
            "reference": "Practitioner/db92afdf-3359-47cf-b5db-b8ef55840919"
          },
          {
            "reference": "PractitionerRole/705e47bf-cee8-44ba-b268-4073d101d513"
          },
          {
            "reference": "Organization/e23688de-ea24-4fec-89fb-1f9a40ce4304"
          }
        ],
        "activity": {
          "text": "Synthetic Example Data Generation"
        },
        "policy": [
          "https://synderai.net/synderai-synthetic-data-policy"
        ],
        "agent": [
          {
            "type": {
              "text": "author"
            },
            "who": {
              "reference": "Device/0b339a6b-cc0b-4781-91ff-d386c705f2aa"
            }
          }
        ],
        "reason": [
          {
            "text": "Interoperability Testing and Training (non-clinical use)"
          }
        ],
        "text": {
          "status": "generated",
          "div": "<div xmlns=\"http://www.w3.org/1999/xhtml\">Provenance for SYNDERAI Synthetic Example Data Resource</div>"
        },
        "recorded": "2017-08-28T07:35:39Z"
      }
    },
    {
      "fullUrl": "urn:uuid:c7d911bd-f0a4-4b21-9f05-d3ddaaa55297",
      "resource": {
        "resourceType": "PractitionerRole",
        "id": "c7d911bd-f0a4-4b21-9f05-d3ddaaa55297",
        "meta": {
          "profile": [
            "http://hl7.eu/fhir/base/StructureDefinition/practitionerRole-eu"
          ]
        },
        "text": {
          "status": "generated",
          "div": "<div xmlns=\"http://www.w3.org/1999/xhtml\">Laboratory Role Id: c7d911bd-f0a4-4b21-9f05-d3ddaaa55297</div>"
        },
        "practitioner": {
          "reference": "urn:uuid:db92afdf-3359-47cf-b5db-b8ef55840919"
        }
      }
    },
    {
      "fullUrl": "urn:uuid:db92afdf-3359-47cf-b5db-b8ef55840919",
      "resource": {
        "resourceType": "Practitioner",
        "id": "db92afdf-3359-47cf-b5db-b8ef55840919",
        "meta": {
          "profile": [
            "http://hl7.eu/fhir/base/StructureDefinition/practitioner-eu"
          ]
        },
        "identifier": [
          {
            "assigner": {
              "display": "HL7 Europe"
            },
            "system": "urn:oid:2.16.840.1.113883.2.51.999",
            "value": "cde4e2b9-411b-4e0a-891e-1d9b5dfbac54"
          }
        ],
        "name": [
          {
            "prefix": [
              "dr"
            ],
            "given": [
              "Ex"
            ],
            "family": "Ample"
          }
        ],
        "address": [
          {
            "line": [
              "Laboratoire Central Européenne",
              "Boulevard du Jardin Botanique 32"
            ],
            "postalCode": "1000",
            "city": "Brussels",
            "country": "Belgium"
          }
        ],
        "text": {
          "status": "generated",
          "div": "<div xmlns=\"http://www.w3.org/1999/xhtml\">Laboratory: Laboratoire Central Européenne, 1000 Brussels, Belgium</div>"
        }
      }
    }
  ],
  "type": "document",
  "timestamp": "2017-08-28T07:35:39Z"
}
