{
  "resourceType": "Bundle",
  "id": "7b887901-a1eb-4fba-b303-5169ede4370d",
  "meta": {
    "profile": [
      "http://hl7.eu/fhir/laboratory/StructureDefinition/Bundle-eu-lab"
    ]
  },
  "identifier": {
    "assigner": {
      "display": "HL7 Europe"
    },
    "system": "urn:oid:2.16.840.1.113883.2.51.999",
    "value": "45c179ec-b497-4244-b3a9-9845c77a533c"
  },
  "entry": [
    {
      "fullUrl": "urn:uuid:e57b4935-c196-4989-8f41-ddf31b6ce239",
      "resource": {
        "resourceType": "Composition",
        "id": "e57b4935-c196-4989-8f41-ddf31b6ce239",
        "meta": {
          "profile": [
            "http://hl7.eu/fhir/laboratory/StructureDefinition/Composition-eu-lab"
          ]
        },
        "identifier": {
          "assigner": {
            "display": "HL7 Europe"
          },
          "system": "urn:oid:2.16.840.1.113883.2.51.999",
          "value": "333b76cf-d6de-428e-8904-e6dcbf754365"
        },
        "author": [
          {
            "reference": "urn:uuid:38cc4de3-702b-4eaf-9258-f3f5b4f3501a"
          }
        ],
        "category": [
          {
            "coding": [
              {
                "code": "26436-6",
                "system": "http://loinc.org",
                "display": "Laboratory studies (set)"
              }
            ]
          }
        ],
        "type": {
          "coding": [
            {
              "code": "11502-2",
              "system": "http://loinc.org",
              "display": "Laboratory report"
            }
          ],
          "text": "Laboratory Report"
        },
        "section": [
          {
            "code": {
              "coding": [
                {
                  "code": "26436-6",
                  "system": "http://loinc.org",
                  "display": "Laboratory studies (set)"
                }
              ],
              "text": "Laboratory studies"
            },
            "section": [
              {
                "code": {
                  "coding": [
                    {
                      "code": "$18719-5",
                      "system": "http://loinc.org",
                      "display": "Chemistry studies (set)"
                    }
                  ],
                  "text": "Chemistry"
                },
                "entry": [
                  {
                    "reference": "urn:uuid:e4d749c5-dcc0-4ee3-aa57-32282094256d"
                  },
                  {
                    "reference": "urn:uuid:63a4046b-1e1d-4de0-b7bd-d5a490826447"
                  },
                  {
                    "reference": "urn:uuid:9248a017-5e72-487f-bb9e-781162b7407b"
                  },
                  {
                    "reference": "urn:uuid:34959b8c-6d33-4475-bd76-056fb79cf90b"
                  },
                  {
                    "reference": "urn:uuid:d9a56d01-8d65-4bfd-8bd6-5b4ba8f160f3"
                  },
                  {
                    "reference": "urn:uuid:84cf06d0-3b70-4fee-9a62-a509567c5e7c"
                  },
                  {
                    "reference": "urn:uuid:0f510be0-f8dd-4f1d-ad24-ef77ff532b20"
                  },
                  {
                    "reference": "urn:uuid:ac871274-87ea-4dcc-894f-414a65332d58"
                  },
                  {
                    "reference": "urn:uuid:b53fdbc1-1626-4202-9e65-d8a47b5f3af9"
                  },
                  {
                    "reference": "urn:uuid:bc9fff30-e0b3-413c-8e73-5b1dd0e48c7d"
                  },
                  {
                    "reference": "urn:uuid:9f4ebc90-cc77-47da-a95b-df70f0a23a3d"
                  },
                  {
                    "reference": "urn:uuid:4c8421ab-2e6e-471f-b6ad-a5925b7c6db9"
                  },
                  {
                    "reference": "urn:uuid:1723cf0d-029b-47f1-b7ba-e24214b8bed1"
                  },
                  {
                    "reference": "urn:uuid:1ae82163-ac60-4d58-8f22-8d4e5d50d0e3"
                  },
                  {
                    "reference": "urn:uuid:c0182bbf-f8f9-4de0-a1b7-fa5fceba19bf"
                  },
                  {
                    "reference": "urn:uuid:ba2748dc-27a1-4b89-9a41-6f11b41658e0"
                  }
                ],
                "text": {
                  "status": "generated",
                  "div": "<div xmlns=\"http://www.w3.org/1999/xhtml\"><h3>Chemistry</h3><table class=\"hl7__eu__lab__report\"><thead><tr><th>Test</th><th>23-AUG-2016</th><th>Reference&#xA0;Range</th><th>Unit</th></tr></thead><tbody><tr><td>Glucose [Mass/volume] in Blood</td><td>75.3</td><td>70 - 140</td><td>mg/dL</td></tr><tr><td>Urea nitrogen [Mass/volume] in Blood</td><td>10.2</td><td>7 - 30</td><td>mg/dL</td></tr><tr><td>Creatinine [Mass/volume] in Blood</td><td><strong>3.2 H</strong></td><td>0.5 - 1.3</td><td>mg/dL</td></tr><tr><td>Calcium [Mass/volume] in Blood</td><td>9.5</td><td>8.6 - 10.2</td><td>mg/dL</td></tr><tr><td>Sodium [Moles/volume] in Blood</td><td>142.0</td><td>135 - 145</td><td>mmol/L</td></tr><tr><td>Potassium [Moles/volume] in Blood</td><td><strong>5.2 H</strong></td><td>3.5 - 5.1</td><td>mmol/L</td></tr><tr><td>Chloride [Moles/volume] in Blood</td><td>103.8</td><td>98 - 114</td><td>mmol/L</td></tr><tr><td>Carbon dioxide, total [Moles/volume] in Blood</td><td>24.1</td><td>22 - 32</td><td>mmol/L</td></tr><tr><td>Protein [Mass/volume] in Serum or Plasma</td><td>6.7</td><td>6 - 8.3</td><td>g/dL</td></tr><tr><td>Albumin [Mass/volume] in Serum or Plasma</td><td>4.8</td><td>3.5 - 5.5</td><td>g/dL</td></tr><tr><td>Globulin [Mass/volume] in Serum by calculation</td><td>2.1</td><td>2 - 3.5</td><td>g/L</td></tr><tr><td>Bilirubin.total [Mass/volume] in Serum or Plasma</td><td>0.7</td><td>0.3 - 1.2</td><td>mg/dL</td></tr><tr><td>Alkaline phosphatase [Enzymatic activity/volume] in Serum or Plasma</td><td>70.5</td><td>44 - 142</td><td>U/L</td></tr><tr><td>Alanine aminotransferase [Enzymatic activity/volume] in Serum or Plasma</td><td>23.8</td><td>7 - 40</td><td>U/L</td></tr><tr><td>Aspartate aminotransferase [Enzymatic activity/volume] in Serum or Plasma</td><td>21.5</td><td>10 - 40</td><td>U/L</td></tr><tr><td>Ketones [Presence] in Urine by Test strip</td><td>Urine ketone test = +++</td><td></td><td></td></tr></tbody></table></div>"
                },
                "title": "Chemistry"
              },
              {
                "code": {
                  "coding": [
                    {
                      "code": "$18729-4",
                      "system": "http://loinc.org",
                      "display": "Urinalysis studies (set)"
                    }
                  ],
                  "text": "Urinalysis"
                },
                "entry": [
                  {
                    "reference": "urn:uuid:6c50975e-6515-451d-967d-bb5725023bad"
                  },
                  {
                    "reference": "urn:uuid:83a770a8-122b-4c90-b81e-000bfe1b91a5"
                  },
                  {
                    "reference": "urn:uuid:bd30b2bd-beb9-4ad3-82d3-7ad107bf6aee"
                  },
                  {
                    "reference": "urn:uuid:d3850f56-f404-4adc-92b0-7022334c612a"
                  },
                  {
                    "reference": "urn:uuid:888bbfa5-cb69-468a-9c2d-4442274ea7aa"
                  },
                  {
                    "reference": "urn:uuid:2c989f58-2433-40a5-9e74-d7b39c52a64f"
                  },
                  {
                    "reference": "urn:uuid:66944425-18ae-4525-894a-ad47b957c7ba"
                  },
                  {
                    "reference": "urn:uuid:a020e07e-837a-4416-8248-64af54523e63"
                  },
                  {
                    "reference": "urn:uuid:16b7acc8-d2b6-49a8-9e26-3bae37c0a5f3"
                  },
                  {
                    "reference": "urn:uuid:035e9380-67a3-4d6e-9813-c9cd887a98b4"
                  },
                  {
                    "reference": "urn:uuid:42050251-a2d9-4c27-9672-21190c4d4f68"
                  },
                  {
                    "reference": "urn:uuid:ff1a3da9-0ced-4577-87d2-dbb56622d544"
                  }
                ],
                "text": {
                  "status": "generated",
                  "div": "<div xmlns=\"http://www.w3.org/1999/xhtml\"><h3>Urinalysis</h3><table class=\"hl7__eu__lab__report\"><thead><tr><th>Test</th><th>23-AUG-2016</th><th>Reference&#xA0;Range</th><th>Unit</th></tr></thead><tbody><tr><td>Glucose [Mass/volume] in Urine by Test strip</td><td><strong>1.9 H</strong></td><td>0.8 - 0</td><td>mg/dL</td></tr><tr><td>Glucose [Presence] in Urine by Test strip</td><td>++</td><td></td><td></td></tr><tr><td>Bilirubin.total [Mass/volume] in Urine by Test strip</td><td>0.2</td><td>0 - 1.5</td><td>mg/dL</td></tr><tr><td>Bilirubin.total [Presence] in Urine by Test strip</td><td>Finding of bilirubin in urine</td><td></td><td></td></tr><tr><td>Ketones [Mass/volume] in Urine by Test strip</td><td><strong>12.4 H</strong></td><td>0 - 8</td><td>mg/dL</td></tr><tr><td>Specific gravity of Urine by Test strip</td><td><strong>1.0 L</strong></td><td>1.01 - 1.03</td><td>{nominal}</td></tr><tr><td>pH of Urine by Test strip</td><td>5.7</td><td>4.6 - 7.5</td><td>pH</td></tr><tr><td>Protein [Mass/volume] in Urine by Test strip</td><td><strong>315.7 H</strong></td><td>0 - 14</td><td>mg/dL</td></tr><tr><td>Protein [Presence] in Urine by Test strip</td><td>Urine protein test = +++</td><td></td><td></td></tr><tr><td>Nitrite [Presence] in Urine by Test strip</td><td>Urine nitrite negative</td><td></td><td></td></tr><tr><td>Hemoglobin [Presence] in Urine by Test strip</td><td>Urine blood test = negative</td><td></td><td></td></tr><tr><td>Leukocyte esterase [Presence] in Urine by Test strip</td><td>Urine leukocyte test negative</td><td></td><td></td></tr></tbody></table></div>"
                },
                "title": "Urinalysis"
              },
              {
                "code": {
                  "coding": [
                    {
                      "code": "$LP7846-1",
                      "system": "http://loinc.org",
                      "display": "Specimen information"
                    }
                  ],
                  "text": "Specimen information"
                },
                "entry": [
                  {
                    "reference": "urn:uuid:cd52bb92-df4b-4cec-8d44-f3584e2c7591"
                  },
                  {
                    "reference": "urn:uuid:7098e97f-77d8-4b34-8e82-9473e24932aa"
                  },
                  {
                    "reference": "urn:uuid:50396e72-2355-42aa-ada1-ee28a31aa5b5"
                  },
                  {
                    "reference": "urn:uuid:8fd9f3ca-15f5-47c2-a290-be520d4028c4"
                  }
                ],
                "text": {
                  "status": "generated",
                  "div": "<div xmlns=\"http://www.w3.org/1999/xhtml\"><h3>Specimen information</h3><table class=\"hl7__eu__lab__report\"><thead><tr><th>Test</th><th>23-AUG-2016</th><th>Specimen</th><th></th></tr></thead><tbody><tr><td>Appearance of Urine</td><td>Cloudy urine</td><td>Urine</td><td></td></tr><tr><td>Odor of Urine</td><td>Urine smell ammoniacal</td><td>Urine</td><td></td></tr><tr><td>Clarity of Urine</td><td>Translucent</td><td>Urine</td><td></td></tr><tr><td>Color of Urine</td><td>Brown color</td><td>Urine</td><td></td></tr></tbody></table></div>"
                },
                "title": "Specimen information"
              }
            ],
            "title": "Laboratory Report"
          },
          {
            "text": {
              "status": "generated",
              "div": "<div xmlns=\"http://www.w3.org/1999/xhtml\"><h3>Annotation</h3><table class=\"hl7__eu__lab__report\"><tr><th>Conclusion and Recommendations based on this report and previous findings known to us</th></tr><tr><td>The patient shows markedly elevated serum creatinine and mild hyperkalemia, indicating significant renal impairment. Urinalysis reveals proteinuria, glucosuria, ketonuria, low specific gravity, and abnormal urine appearance, suggesting possible nephrotic syndrome or diabetic nephropathy with impaired concentrating ability. No evidence of urinary tract infection. Further clinical correlation and nephrology evaluation are recommended.</td></tr></table></div>"
            },
            "code": {
              "coding": [
                {
                  "system": "http://loinc.org",
                  "code": "48767-8",
                  "display": "Annotation comment"
                }
              ]
            },
            "title": "Annotation comment"
          }
        ],
        "status": "final",
        "subject": {
          "reference": "urn:uuid:75069536-30bb-44bd-8dcb-c7ed6b9d5f39",
          "display": "Maria Nohlmans"
        },
        "date": "2016-08-23T15:51:39Z",
        "title": "Laboratory Report",
        "confidentiality": "N"
      }
    },
    {
      "fullUrl": "urn:uuid:a3059ece-c634-4a60-a8a4-87a41928654d",
      "resource": {
        "resourceType": "DiagnosticReport",
        "id": "a3059ece-c634-4a60-a8a4-87a41928654d",
        "meta": {
          "profile": [
            "http://hl7.eu/fhir/laboratory/StructureDefinition/DiagnosticReport-eu-lab"
          ]
        },
        "identifier": [
          {
            "assigner": {
              "display": "HL7 Europe"
            },
            "system": "urn:oid:2.16.840.1.113883.2.51.999",
            "value": "b8cdda5f-3a47-4999-97b2-5a94d0eeead4"
          }
        ],
        "extension": [
          {
            "url": "http://hl7.org/fhir/5.0/StructureDefinition/extension-DiagnosticReport.composition",
            "valueReference": {
              "reference": "urn:uuid:333b76cf-d6de-428e-8904-e6dcbf754365"
            }
          }
        ],
        "category": [
          {
            "coding": [
              {
                "code": "26436-6",
                "system": "http://loinc.org",
                "display": "Laboratory studies (set)"
              }
            ]
          }
        ],
        "specimen": [
          {
            "reference": "urn:uuid:725a030d-4cb7-48ff-823e-ac719370bf38"
          },
          {
            "reference": "urn:uuid:3942648b-390d-4585-82f1-4f4f01fcf3fc"
          },
          {
            "reference": "urn:uuid:b3f6409a-d2b7-4b5b-89b9-3f2646d5da52"
          },
          {
            "reference": "urn:uuid:685f7824-937a-4d1d-aa0d-4c7c30ab6423"
          }
        ],
        "result": [
          {
            "reference": "urn:uuid:e4d749c5-dcc0-4ee3-aa57-32282094256d"
          },
          {
            "reference": "urn:uuid:63a4046b-1e1d-4de0-b7bd-d5a490826447"
          },
          {
            "reference": "urn:uuid:9248a017-5e72-487f-bb9e-781162b7407b"
          },
          {
            "reference": "urn:uuid:34959b8c-6d33-4475-bd76-056fb79cf90b"
          },
          {
            "reference": "urn:uuid:d9a56d01-8d65-4bfd-8bd6-5b4ba8f160f3"
          },
          {
            "reference": "urn:uuid:84cf06d0-3b70-4fee-9a62-a509567c5e7c"
          },
          {
            "reference": "urn:uuid:0f510be0-f8dd-4f1d-ad24-ef77ff532b20"
          },
          {
            "reference": "urn:uuid:ac871274-87ea-4dcc-894f-414a65332d58"
          },
          {
            "reference": "urn:uuid:b53fdbc1-1626-4202-9e65-d8a47b5f3af9"
          },
          {
            "reference": "urn:uuid:bc9fff30-e0b3-413c-8e73-5b1dd0e48c7d"
          },
          {
            "reference": "urn:uuid:9f4ebc90-cc77-47da-a95b-df70f0a23a3d"
          },
          {
            "reference": "urn:uuid:4c8421ab-2e6e-471f-b6ad-a5925b7c6db9"
          },
          {
            "reference": "urn:uuid:1723cf0d-029b-47f1-b7ba-e24214b8bed1"
          },
          {
            "reference": "urn:uuid:1ae82163-ac60-4d58-8f22-8d4e5d50d0e3"
          },
          {
            "reference": "urn:uuid:c0182bbf-f8f9-4de0-a1b7-fa5fceba19bf"
          },
          {
            "reference": "urn:uuid:cd52bb92-df4b-4cec-8d44-f3584e2c7591"
          },
          {
            "reference": "urn:uuid:7098e97f-77d8-4b34-8e82-9473e24932aa"
          },
          {
            "reference": "urn:uuid:50396e72-2355-42aa-ada1-ee28a31aa5b5"
          },
          {
            "reference": "urn:uuid:8fd9f3ca-15f5-47c2-a290-be520d4028c4"
          },
          {
            "reference": "urn:uuid:6c50975e-6515-451d-967d-bb5725023bad"
          },
          {
            "reference": "urn:uuid:83a770a8-122b-4c90-b81e-000bfe1b91a5"
          },
          {
            "reference": "urn:uuid:bd30b2bd-beb9-4ad3-82d3-7ad107bf6aee"
          },
          {
            "reference": "urn:uuid:d3850f56-f404-4adc-92b0-7022334c612a"
          },
          {
            "reference": "urn:uuid:888bbfa5-cb69-468a-9c2d-4442274ea7aa"
          },
          {
            "reference": "urn:uuid:ba2748dc-27a1-4b89-9a41-6f11b41658e0"
          },
          {
            "reference": "urn:uuid:2c989f58-2433-40a5-9e74-d7b39c52a64f"
          },
          {
            "reference": "urn:uuid:66944425-18ae-4525-894a-ad47b957c7ba"
          },
          {
            "reference": "urn:uuid:a020e07e-837a-4416-8248-64af54523e63"
          },
          {
            "reference": "urn:uuid:16b7acc8-d2b6-49a8-9e26-3bae37c0a5f3"
          },
          {
            "reference": "urn:uuid:035e9380-67a3-4d6e-9813-c9cd887a98b4"
          },
          {
            "reference": "urn:uuid:42050251-a2d9-4c27-9672-21190c4d4f68"
          },
          {
            "reference": "urn:uuid:ff1a3da9-0ced-4577-87d2-dbb56622d544"
          }
        ],
        "status": "registered",
        "code": {
          "coding": [
            {
              "code": "11502-2",
              "system": "http://loinc.org",
              "display": "Laboratory report"
            }
          ]
        },
        "subject": {
          "reference": "urn:uuid:75069536-30bb-44bd-8dcb-c7ed6b9d5f39",
          "display": "Maria Nohlmans"
        }
      }
    },
    {
      "fullUrl": "urn:uuid:75069536-30bb-44bd-8dcb-c7ed6b9d5f39",
      "resource": {
        "resourceType": "Patient",
        "id": "75069536-30bb-44bd-8dcb-c7ed6b9d5f39",
        "meta": {
          "security": [
            {
              "system": "http://terminology.hl7.org/CodeSystem/v3-ActReason",
              "code": "HTEST"
            },
            {
              "system": "http://terminology.hl7.org/CodeSystem/v3-ActReason",
              "code": "TRAIN"
            }
          ],
          "tag": [
            {
              "system": "https://synderai.net/fhir/CodeSystem/tags",
              "code": "synthetic",
              "display": "SYNDERAI Synthetic data"
            }
          ],
          "profile": [
            "http://hl7.eu/fhir/base/StructureDefinition/patient-eu-core"
          ]
        },
        "identifier": [
          {
            "type": {
              "coding": [
                {
                  "code": "PT",
                  "system": "http://terminology.hl7.org/CodeSystem/v2-0203"
                }
              ]
            },
            "system": "http://ec.europa.eu/identifier/eci",
            "value": "6886-506417-1"
          },
          {
            "type": {
              "coding": [
                {
                  "code": "MR",
                  "system": "http://terminology.hl7.org/CodeSystem/v2-0203"
                }
              ]
            },
            "system": "http://local.setting.eu/identifier",
            "value": "2cb21ed6-b617-b1f3-2290-589a710de5ee"
          }
        ],
        "name": [
          {
            "family": "Nohlmans"
          },
          {
            "given": [
              "Maria"
            ]
          },
          {
            "text": "Maria Nohlmans"
          }
        ],
        "address": [
          {
            "line": [
              "Alfons-Wulff-Weg 1"
            ],
            "use": "home",
            "type": "physical",
            "postalCode": "25813",
            "city": "Husum",
            "country": "Germany"
          }
        ],
        "telecom": [
          {
            "system": "phone",
            "value": "+49(0)1911 105501"
          }
        ],
        "extension": [
          {
            "url": "http://hl7.org/fhir/StructureDefinition/patient-nationality",
            "valueCodeableConcept": {
              "coding": [
                {
                  "code": "DE",
                  "system": "http://hl7.org/fhir/ValueSet/country"
                }
              ]
            }
          }
        ],
        "text": {
          "status": "generated",
          "div": "<div xmlns=\"http://www.w3.org/1999/xhtml\"><table class=\"hl7__ips\"><tr><td>Maria Nohlmans</td><td>female</td><td>11-Jun-1947</td></tr></table></div>"
        },
        "gender": "female",
        "birthDate": "1947-06-11"
      }
    },
    {
      "fullUrl": "urn:uuid:98dcc22c-8c19-48f6-a450-a0a1f273d8ca",
      "resource": {
        "resourceType": "ServiceRequest",
        "id": "98dcc22c-8c19-48f6-a450-a0a1f273d8ca",
        "meta": {
          "profile": [
            "http://hl7.eu/fhir/laboratory/StructureDefinition/ServiceRequest-eu-lab"
          ]
        },
        "identifier": [
          {
            "system": "http://example.org",
            "value": "39e2cf90-4300-4aa9-ad0a-7f06ed13df34"
          }
        ],
        "specimen": [
          {
            "reference": "urn:uuid:725a030d-4cb7-48ff-823e-ac719370bf38"
          },
          {
            "reference": "urn:uuid:3942648b-390d-4585-82f1-4f4f01fcf3fc"
          },
          {
            "reference": "urn:uuid:b3f6409a-d2b7-4b5b-89b9-3f2646d5da52"
          },
          {
            "reference": "urn:uuid:685f7824-937a-4d1d-aa0d-4c7c30ab6423"
          }
        ],
        "reasonCode": [
          {
            "coding": [
              {
                "code": "401314000",
                "system": "http://snomed.info/sct",
                "display": "Acute non-ST segment elevation myocardial infarction"
              }
            ]
          },
          {
            "coding": [
              {
                "code": "157141000119108",
                "system": "http://snomed.info/sct",
                "display": "Proteinuria due to type 2 diabetes mellitus"
              }
            ]
          },
          {
            "coding": [
              {
                "code": "237602007",
                "system": "http://snomed.info/sct",
                "display": "Metabolic syndrome X"
              }
            ]
          },
          {
            "coding": [
              {
                "code": "90781000119102",
                "system": "http://snomed.info/sct",
                "display": "Microalbuminuria due to type 2 diabetes mellitus"
              }
            ]
          },
          {
            "coding": [
              {
                "code": "127013003",
                "system": "http://snomed.info/sct",
                "display": "Disorder of kidney due to diabetes mellitus"
              }
            ]
          },
          {
            "coding": [
              {
                "code": "59621000",
                "system": "http://snomed.info/sct",
                "display": "Essential hypertension"
              }
            ]
          },
          {
            "coding": [
              {
                "code": "271737000",
                "system": "http://snomed.info/sct",
                "display": "Anemia"
              }
            ]
          },
          {
            "coding": [
              {
                "code": "15777000",
                "system": "http://snomed.info/sct",
                "display": "Prediabetes"
              }
            ]
          }
        ],
        "status": "active",
        "intent": "order",
        "code": {
          "coding": [
            {
              "code": "108252007",
              "system": "http://snomed.info/sct",
              "display": "Laboratory procedure"
            }
          ]
        },
        "subject": {
          "reference": "urn:uuid:75069536-30bb-44bd-8dcb-c7ed6b9d5f39",
          "display": "Maria Nohlmans"
        },
        "requester": {
          "reference": "urn:uuid:1ef800d9-272b-4a3b-9de5-c6a68d86d5a0"
        }
      }
    },
    {
      "fullUrl": "urn:uuid:1ef800d9-272b-4a3b-9de5-c6a68d86d5a0",
      "resource": {
        "resourceType": "PractitionerRole",
        "id": "1ef800d9-272b-4a3b-9de5-c6a68d86d5a0",
        "meta": {
          "profile": [
            "http://hl7.eu/fhir/base/StructureDefinition/practitionerRole-eu"
          ]
        },
        "text": {
          "status": "generated",
          "div": "<div xmlns=\"http://www.w3.org/1999/xhtml\">Provider Role Id: 1ef800d9-272b-4a3b-9de5-c6a68d86d5a0</div>"
        },
        "organization": {
          "reference": "urn:uuid:a50541d6-6712-4815-8675-ec5bf7e49fd0"
        }
      }
    },
    {
      "fullUrl": "urn:uuid:a50541d6-6712-4815-8675-ec5bf7e49fd0",
      "resource": {
        "resourceType": "Organization",
        "id": "a50541d6-6712-4815-8675-ec5bf7e49fd0",
        "meta": {
          "profile": [
            "http://hl7.eu/fhir/base/StructureDefinition/organization-eu"
          ]
        },
        "identifier": [
          {
            "assigner": {
              "display": "HL7 Europe"
            },
            "system": "urn:oid:2.16.840.1.113883.2.51.999",
            "value": "4152d1f2-b478-47ab-9f6b-f1d7fa6f8ffc"
          }
        ],
        "address": [
          {
            "line": [
              "Brinckmannstraße 35"
            ],
            "city": "Husum",
            "postalCode": "25813",
            "country": "Germany"
          }
        ],
        "text": {
          "status": "generated",
          "div": "<div xmlns=\"http://www.w3.org/1999/xhtml\">Provider Organization: Dr. Wolfram Hussels Kieferorthopäde</div>"
        },
        "name": "Dr. Wolfram Hussels Kieferorthopäde"
      }
    },
    {
      "fullUrl": "urn:uuid:725a030d-4cb7-48ff-823e-ac719370bf38",
      "resource": {
        "resourceType": "Specimen",
        "id": "725a030d-4cb7-48ff-823e-ac719370bf38",
        "meta": {
          "profile": [
            "http://hl7.eu/fhir/laboratory/StructureDefinition/Specimen-eu-lab"
          ]
        },
        "collection": {
          "collectedDateTime": "2016-08-23"
        },
        "text": {
          "status": "generated",
          "div": "<div xmlns=\"http://www.w3.org/1999/xhtml\"><table class=\"hl7__eu__lab__report\"><tr><th>Specimen</th><th>Collection Date</th></tr><tr><td>Whole blood specimen (specimen)</td><td><span class=\"nb\">23-Aug-2016</span></td></tr></table></div>"
        },
        "type": {
          "coding": [
            {
              "code": "258580003",
              "system": "http://snomed.info/sct",
              "display": "Whole blood specimen (specimen)"
            }
          ]
        }
      }
    },
    {
      "fullUrl": "urn:uuid:3942648b-390d-4585-82f1-4f4f01fcf3fc",
      "resource": {
        "resourceType": "Specimen",
        "id": "3942648b-390d-4585-82f1-4f4f01fcf3fc",
        "meta": {
          "profile": [
            "http://hl7.eu/fhir/laboratory/StructureDefinition/Specimen-eu-lab"
          ]
        },
        "collection": {
          "collectedDateTime": "2016-08-23"
        },
        "text": {
          "status": "generated",
          "div": "<div xmlns=\"http://www.w3.org/1999/xhtml\"><table class=\"hl7__eu__lab__report\"><tr><th>Specimen</th><th>Collection Date</th></tr><tr><td>Acellular blood (serum or plasma) specimen</td><td><span class=\"nb\">23-Aug-2016</span></td></tr></table></div>"
        },
        "type": {
          "coding": [
            {
              "code": "122592007",
              "system": "http://snomed.info/sct",
              "display": "Acellular blood (serum or plasma) specimen"
            }
          ]
        }
      }
    },
    {
      "fullUrl": "urn:uuid:b3f6409a-d2b7-4b5b-89b9-3f2646d5da52",
      "resource": {
        "resourceType": "Specimen",
        "id": "b3f6409a-d2b7-4b5b-89b9-3f2646d5da52",
        "meta": {
          "profile": [
            "http://hl7.eu/fhir/laboratory/StructureDefinition/Specimen-eu-lab"
          ]
        },
        "collection": {
          "collectedDateTime": "2016-08-23"
        },
        "text": {
          "status": "generated",
          "div": "<div xmlns=\"http://www.w3.org/1999/xhtml\"><table class=\"hl7__eu__lab__report\"><tr><th>Specimen</th><th>Collection Date</th></tr><tr><td>Serum specimen</td><td><span class=\"nb\">23-Aug-2016</span></td></tr></table></div>"
        },
        "type": {
          "coding": [
            {
              "code": "119364003",
              "system": "http://snomed.info/sct",
              "display": "Serum specimen"
            }
          ]
        }
      }
    },
    {
      "fullUrl": "urn:uuid:685f7824-937a-4d1d-aa0d-4c7c30ab6423",
      "resource": {
        "resourceType": "Specimen",
        "id": "685f7824-937a-4d1d-aa0d-4c7c30ab6423",
        "meta": {
          "profile": [
            "http://hl7.eu/fhir/laboratory/StructureDefinition/Specimen-eu-lab"
          ]
        },
        "collection": {
          "collectedDateTime": "2016-08-23"
        },
        "text": {
          "status": "generated",
          "div": "<div xmlns=\"http://www.w3.org/1999/xhtml\"><table class=\"hl7__eu__lab__report\"><tr><th>Specimen</th><th>Collection Date</th></tr><tr><td>Urine specimen</td><td><span class=\"nb\">23-Aug-2016</span></td></tr></table></div>"
        },
        "type": {
          "coding": [
            {
              "code": "122575003",
              "system": "http://snomed.info/sct",
              "display": "Urine specimen"
            }
          ]
        }
      }
    },
    {
      "fullUrl": "urn:uuid:e4d749c5-dcc0-4ee3-aa57-32282094256d",
      "resource": {
        "resourceType": "Observation",
        "id": "e4d749c5-dcc0-4ee3-aa57-32282094256d",
        "meta": {
          "profile": [
            "http://hl7.eu/fhir/laboratory/StructureDefinition/Observation-resultslab-eu-lab"
          ]
        },
        "performer": [
          {
            "display": "The Central European Lab"
          }
        ],
        "category": [
          {
            "coding": [
              {
                "system": "http://terminology.hl7.org/CodeSystem/observation-category",
                "code": "laboratory"
              }
            ]
          }
        ],
        "code": {
          "coding": [
            {
              "code": "2339-0",
              "system": "http://loinc.org",
              "display": "Glucose [Mass/volume] in Blood"
            }
          ],
          "text": "Glucose [Mass/volume] in Blood"
        },
        "valueQuantity": {
          "system": "http://unitsofmeasure.org",
          "value": 75.3,
          "unit": "mg/dL",
          "code": "mg/dL"
        },
        "referenceRange": [
          {
            "low": {
              "value": 70,
              "code": "mg/dL",
              "system": "http://unitsofmeasure.org"
            }
          },
          {
            "high": {
              "value": 140,
              "code": "mg/dL",
              "system": "http://unitsofmeasure.org"
            }
          }
        ],
        "text": {
          "status": "generated",
          "div": "<div xmlns=\"http://www.w3.org/1999/xhtml\"><table class=\"hl7__eu__lab__report\"><tr><th>Test</th><th>23-Aug-2016</th><th>Reference&#xA0;Range</th><th>Unit</th></tr><tr><td>Glucose [Mass/volume] in Blood</td><td>75.3</td><td>70 - 140</td><td></td><td>mg/dL</td></tr></table></div>"
        },
        "status": "final",
        "subject": {
          "reference": "urn:uuid:75069536-30bb-44bd-8dcb-c7ed6b9d5f39",
          "display": "Maria Nohlmans"
        },
        "effectiveDateTime": "2016-08-23T13:51:39Z",
        "specimen": {
          "reference": "urn:uuid:725a030d-4cb7-48ff-823e-ac719370bf38"
        }
      }
    },
    {
      "fullUrl": "urn:uuid:63a4046b-1e1d-4de0-b7bd-d5a490826447",
      "resource": {
        "resourceType": "Observation",
        "id": "63a4046b-1e1d-4de0-b7bd-d5a490826447",
        "meta": {
          "profile": [
            "http://hl7.eu/fhir/laboratory/StructureDefinition/Observation-resultslab-eu-lab"
          ]
        },
        "performer": [
          {
            "display": "The Central European Lab"
          }
        ],
        "category": [
          {
            "coding": [
              {
                "system": "http://terminology.hl7.org/CodeSystem/observation-category",
                "code": "laboratory"
              }
            ]
          }
        ],
        "code": {
          "coding": [
            {
              "code": "6299-2",
              "system": "http://loinc.org",
              "display": "Urea nitrogen [Mass/volume] in Blood"
            }
          ],
          "text": "Urea nitrogen [Mass/volume] in Blood"
        },
        "valueQuantity": {
          "system": "http://unitsofmeasure.org",
          "value": 10.2,
          "unit": "mg/dL",
          "code": "mg/dL"
        },
        "referenceRange": [
          {
            "low": {
              "value": 7,
              "code": "mg/dL",
              "system": "http://unitsofmeasure.org"
            }
          },
          {
            "high": {
              "value": 30,
              "code": "mg/dL",
              "system": "http://unitsofmeasure.org"
            }
          }
        ],
        "text": {
          "status": "generated",
          "div": "<div xmlns=\"http://www.w3.org/1999/xhtml\"><table class=\"hl7__eu__lab__report\"><tr><th>Test</th><th>23-Aug-2016</th><th>Reference&#xA0;Range</th><th>Unit</th></tr><tr><td>Urea nitrogen [Mass/volume] in Blood</td><td>10.2</td><td>7 - 30</td><td></td><td>mg/dL</td></tr></table></div>"
        },
        "status": "final",
        "subject": {
          "reference": "urn:uuid:75069536-30bb-44bd-8dcb-c7ed6b9d5f39",
          "display": "Maria Nohlmans"
        },
        "effectiveDateTime": "2016-08-23T13:51:39Z",
        "specimen": {
          "reference": "urn:uuid:725a030d-4cb7-48ff-823e-ac719370bf38"
        }
      }
    },
    {
      "fullUrl": "urn:uuid:9248a017-5e72-487f-bb9e-781162b7407b",
      "resource": {
        "resourceType": "Observation",
        "id": "9248a017-5e72-487f-bb9e-781162b7407b",
        "meta": {
          "profile": [
            "http://hl7.eu/fhir/laboratory/StructureDefinition/Observation-resultslab-eu-lab"
          ]
        },
        "performer": [
          {
            "display": "The Central European Lab"
          }
        ],
        "category": [
          {
            "coding": [
              {
                "system": "http://terminology.hl7.org/CodeSystem/observation-category",
                "code": "laboratory"
              }
            ]
          }
        ],
        "code": {
          "coding": [
            {
              "code": "38483-4",
              "system": "http://loinc.org",
              "display": "Creatinine [Mass/volume] in Blood"
            }
          ],
          "text": "Creatinine [Mass/volume] in Blood"
        },
        "valueQuantity": {
          "system": "http://unitsofmeasure.org",
          "value": 3.2,
          "unit": "mg/dL",
          "code": "mg/dL"
        },
        "referenceRange": [
          {
            "low": {
              "value": 0.5,
              "code": "mg/dL",
              "system": "http://unitsofmeasure.org"
            }
          },
          {
            "high": {
              "value": 1.3,
              "code": "mg/dL",
              "system": "http://unitsofmeasure.org"
            }
          }
        ],
        "interpretation": [
          {
            "coding": [
              {
                "code": "H",
                "system": "http://terminology.hl7.org/CodeSystem/v3-ObservationInterpretation",
                "display": "High"
              }
            ]
          }
        ],
        "text": {
          "status": "generated",
          "div": "<div xmlns=\"http://www.w3.org/1999/xhtml\"><table class=\"hl7__eu__lab__report\"><tr><th>Test</th><th>23-Aug-2016</th><th>Reference&#xA0;Range</th><th>Unit</th></tr><tr><td>Creatinine [Mass/volume] in Blood</td><td>3.2</td><td>0.5 - 1.3</td><td>H</td><td>mg/dL</td></tr></table></div>"
        },
        "status": "final",
        "subject": {
          "reference": "urn:uuid:75069536-30bb-44bd-8dcb-c7ed6b9d5f39",
          "display": "Maria Nohlmans"
        },
        "effectiveDateTime": "2016-08-23T13:51:39Z",
        "specimen": {
          "reference": "urn:uuid:725a030d-4cb7-48ff-823e-ac719370bf38"
        }
      }
    },
    {
      "fullUrl": "urn:uuid:34959b8c-6d33-4475-bd76-056fb79cf90b",
      "resource": {
        "resourceType": "Observation",
        "id": "34959b8c-6d33-4475-bd76-056fb79cf90b",
        "meta": {
          "profile": [
            "http://hl7.eu/fhir/laboratory/StructureDefinition/Observation-resultslab-eu-lab"
          ]
        },
        "performer": [
          {
            "display": "The Central European Lab"
          }
        ],
        "category": [
          {
            "coding": [
              {
                "system": "http://terminology.hl7.org/CodeSystem/observation-category",
                "code": "laboratory"
              }
            ]
          }
        ],
        "code": {
          "coding": [
            {
              "code": "49765-1",
              "system": "http://loinc.org",
              "display": "Calcium [Mass/volume] in Blood"
            }
          ],
          "text": "Calcium [Mass/volume] in Blood"
        },
        "valueQuantity": {
          "system": "http://unitsofmeasure.org",
          "value": 9.5,
          "unit": "mg/dL",
          "code": "mg/dL"
        },
        "referenceRange": [
          {
            "low": {
              "value": 8.6,
              "code": "mg/dL",
              "system": "http://unitsofmeasure.org"
            }
          },
          {
            "high": {
              "value": 10.2,
              "code": "mg/dL",
              "system": "http://unitsofmeasure.org"
            }
          }
        ],
        "text": {
          "status": "generated",
          "div": "<div xmlns=\"http://www.w3.org/1999/xhtml\"><table class=\"hl7__eu__lab__report\"><tr><th>Test</th><th>23-Aug-2016</th><th>Reference&#xA0;Range</th><th>Unit</th></tr><tr><td>Calcium [Mass/volume] in Blood</td><td>9.5</td><td>8.6 - 10.2</td><td></td><td>mg/dL</td></tr></table></div>"
        },
        "status": "final",
        "subject": {
          "reference": "urn:uuid:75069536-30bb-44bd-8dcb-c7ed6b9d5f39",
          "display": "Maria Nohlmans"
        },
        "effectiveDateTime": "2016-08-23T13:51:39Z",
        "specimen": {
          "reference": "urn:uuid:725a030d-4cb7-48ff-823e-ac719370bf38"
        }
      }
    },
    {
      "fullUrl": "urn:uuid:d9a56d01-8d65-4bfd-8bd6-5b4ba8f160f3",
      "resource": {
        "resourceType": "Observation",
        "id": "d9a56d01-8d65-4bfd-8bd6-5b4ba8f160f3",
        "meta": {
          "profile": [
            "http://hl7.eu/fhir/laboratory/StructureDefinition/Observation-resultslab-eu-lab"
          ]
        },
        "performer": [
          {
            "display": "The Central European Lab"
          }
        ],
        "category": [
          {
            "coding": [
              {
                "system": "http://terminology.hl7.org/CodeSystem/observation-category",
                "code": "laboratory"
              }
            ]
          }
        ],
        "code": {
          "coding": [
            {
              "code": "2947-0",
              "system": "http://loinc.org",
              "display": "Sodium [Moles/volume] in Blood"
            }
          ],
          "text": "Sodium [Moles/volume] in Blood"
        },
        "valueQuantity": {
          "system": "http://unitsofmeasure.org",
          "value": 142,
          "unit": "mmol/L",
          "code": "mmol/L"
        },
        "referenceRange": [
          {
            "low": {
              "value": 135,
              "code": "mmol/L",
              "system": "http://unitsofmeasure.org"
            }
          },
          {
            "high": {
              "value": 145,
              "code": "mmol/L",
              "system": "http://unitsofmeasure.org"
            }
          }
        ],
        "text": {
          "status": "generated",
          "div": "<div xmlns=\"http://www.w3.org/1999/xhtml\"><table class=\"hl7__eu__lab__report\"><tr><th>Test</th><th>23-Aug-2016</th><th>Reference&#xA0;Range</th><th>Unit</th></tr><tr><td>Sodium [Moles/volume] in Blood</td><td>142.0</td><td>135 - 145</td><td></td><td>mmol/L</td></tr></table></div>"
        },
        "status": "final",
        "subject": {
          "reference": "urn:uuid:75069536-30bb-44bd-8dcb-c7ed6b9d5f39",
          "display": "Maria Nohlmans"
        },
        "effectiveDateTime": "2016-08-23T13:51:39Z",
        "specimen": {
          "reference": "urn:uuid:725a030d-4cb7-48ff-823e-ac719370bf38"
        }
      }
    },
    {
      "fullUrl": "urn:uuid:84cf06d0-3b70-4fee-9a62-a509567c5e7c",
      "resource": {
        "resourceType": "Observation",
        "id": "84cf06d0-3b70-4fee-9a62-a509567c5e7c",
        "meta": {
          "profile": [
            "http://hl7.eu/fhir/laboratory/StructureDefinition/Observation-resultslab-eu-lab"
          ]
        },
        "performer": [
          {
            "display": "The Central European Lab"
          }
        ],
        "category": [
          {
            "coding": [
              {
                "system": "http://terminology.hl7.org/CodeSystem/observation-category",
                "code": "laboratory"
              }
            ]
          }
        ],
        "code": {
          "coding": [
            {
              "code": "6298-4",
              "system": "http://loinc.org",
              "display": "Potassium [Moles/volume] in Blood"
            }
          ],
          "text": "Potassium [Moles/volume] in Blood"
        },
        "valueQuantity": {
          "system": "http://unitsofmeasure.org",
          "value": 5.2,
          "unit": "mmol/L",
          "code": "mmol/L"
        },
        "referenceRange": [
          {
            "low": {
              "value": 3.5,
              "code": "mmol/L",
              "system": "http://unitsofmeasure.org"
            }
          },
          {
            "high": {
              "value": 5.1,
              "code": "mmol/L",
              "system": "http://unitsofmeasure.org"
            }
          }
        ],
        "interpretation": [
          {
            "coding": [
              {
                "code": "H",
                "system": "http://terminology.hl7.org/CodeSystem/v3-ObservationInterpretation",
                "display": "High"
              }
            ]
          }
        ],
        "text": {
          "status": "generated",
          "div": "<div xmlns=\"http://www.w3.org/1999/xhtml\"><table class=\"hl7__eu__lab__report\"><tr><th>Test</th><th>23-Aug-2016</th><th>Reference&#xA0;Range</th><th>Unit</th></tr><tr><td>Potassium [Moles/volume] in Blood</td><td>5.2</td><td>3.5 - 5.1</td><td>H</td><td>mmol/L</td></tr></table></div>"
        },
        "status": "final",
        "subject": {
          "reference": "urn:uuid:75069536-30bb-44bd-8dcb-c7ed6b9d5f39",
          "display": "Maria Nohlmans"
        },
        "effectiveDateTime": "2016-08-23T13:51:39Z",
        "specimen": {
          "reference": "urn:uuid:725a030d-4cb7-48ff-823e-ac719370bf38"
        }
      }
    },
    {
      "fullUrl": "urn:uuid:0f510be0-f8dd-4f1d-ad24-ef77ff532b20",
      "resource": {
        "resourceType": "Observation",
        "id": "0f510be0-f8dd-4f1d-ad24-ef77ff532b20",
        "meta": {
          "profile": [
            "http://hl7.eu/fhir/laboratory/StructureDefinition/Observation-resultslab-eu-lab"
          ]
        },
        "performer": [
          {
            "display": "The Central European Lab"
          }
        ],
        "category": [
          {
            "coding": [
              {
                "system": "http://terminology.hl7.org/CodeSystem/observation-category",
                "code": "laboratory"
              }
            ]
          }
        ],
        "code": {
          "coding": [
            {
              "code": "2069-3",
              "system": "http://loinc.org",
              "display": "Chloride [Moles/volume] in Blood"
            }
          ],
          "text": "Chloride [Moles/volume] in Blood"
        },
        "valueQuantity": {
          "system": "http://unitsofmeasure.org",
          "value": 103.8,
          "unit": "mmol/L",
          "code": "mmol/L"
        },
        "referenceRange": [
          {
            "low": {
              "value": 98,
              "code": "mmol/L",
              "system": "http://unitsofmeasure.org"
            }
          },
          {
            "high": {
              "value": 114,
              "code": "mmol/L",
              "system": "http://unitsofmeasure.org"
            }
          }
        ],
        "text": {
          "status": "generated",
          "div": "<div xmlns=\"http://www.w3.org/1999/xhtml\"><table class=\"hl7__eu__lab__report\"><tr><th>Test</th><th>23-Aug-2016</th><th>Reference&#xA0;Range</th><th>Unit</th></tr><tr><td>Chloride [Moles/volume] in Blood</td><td>103.8</td><td>98 - 114</td><td></td><td>mmol/L</td></tr></table></div>"
        },
        "status": "final",
        "subject": {
          "reference": "urn:uuid:75069536-30bb-44bd-8dcb-c7ed6b9d5f39",
          "display": "Maria Nohlmans"
        },
        "effectiveDateTime": "2016-08-23T13:51:39Z",
        "specimen": {
          "reference": "urn:uuid:725a030d-4cb7-48ff-823e-ac719370bf38"
        }
      }
    },
    {
      "fullUrl": "urn:uuid:ac871274-87ea-4dcc-894f-414a65332d58",
      "resource": {
        "resourceType": "Observation",
        "id": "ac871274-87ea-4dcc-894f-414a65332d58",
        "meta": {
          "profile": [
            "http://hl7.eu/fhir/laboratory/StructureDefinition/Observation-resultslab-eu-lab"
          ]
        },
        "performer": [
          {
            "display": "The Central European Lab"
          }
        ],
        "category": [
          {
            "coding": [
              {
                "system": "http://terminology.hl7.org/CodeSystem/observation-category",
                "code": "laboratory"
              }
            ]
          }
        ],
        "code": {
          "coding": [
            {
              "code": "20565-8",
              "system": "http://loinc.org",
              "display": "Carbon dioxide, total [Moles/volume] in Blood"
            }
          ],
          "text": "Carbon dioxide, total [Moles/volume] in Blood"
        },
        "valueQuantity": {
          "system": "http://unitsofmeasure.org",
          "value": 24.1,
          "unit": "mmol/L",
          "code": "mmol/L"
        },
        "referenceRange": [
          {
            "low": {
              "value": 22,
              "code": "mmol/L",
              "system": "http://unitsofmeasure.org"
            }
          },
          {
            "high": {
              "value": 32,
              "code": "mmol/L",
              "system": "http://unitsofmeasure.org"
            }
          }
        ],
        "text": {
          "status": "generated",
          "div": "<div xmlns=\"http://www.w3.org/1999/xhtml\"><table class=\"hl7__eu__lab__report\"><tr><th>Test</th><th>23-Aug-2016</th><th>Reference&#xA0;Range</th><th>Unit</th></tr><tr><td>Carbon dioxide, total [Moles/volume] in Blood</td><td>24.1</td><td>22 - 32</td><td></td><td>mmol/L</td></tr></table></div>"
        },
        "status": "final",
        "subject": {
          "reference": "urn:uuid:75069536-30bb-44bd-8dcb-c7ed6b9d5f39",
          "display": "Maria Nohlmans"
        },
        "effectiveDateTime": "2016-08-23T13:51:39Z",
        "specimen": {
          "reference": "urn:uuid:725a030d-4cb7-48ff-823e-ac719370bf38"
        }
      }
    },
    {
      "fullUrl": "urn:uuid:b53fdbc1-1626-4202-9e65-d8a47b5f3af9",
      "resource": {
        "resourceType": "Observation",
        "id": "b53fdbc1-1626-4202-9e65-d8a47b5f3af9",
        "meta": {
          "profile": [
            "http://hl7.eu/fhir/laboratory/StructureDefinition/Observation-resultslab-eu-lab"
          ]
        },
        "performer": [
          {
            "display": "The Central European Lab"
          }
        ],
        "category": [
          {
            "coding": [
              {
                "system": "http://terminology.hl7.org/CodeSystem/observation-category",
                "code": "laboratory"
              }
            ]
          }
        ],
        "code": {
          "coding": [
            {
              "code": "2885-2",
              "system": "http://loinc.org",
              "display": "Protein [Mass/volume] in Serum or Plasma"
            }
          ],
          "text": "Protein [Mass/volume] in Serum or Plasma"
        },
        "valueQuantity": {
          "system": "http://unitsofmeasure.org",
          "value": 6.7,
          "unit": "g/dL",
          "code": "g/dL"
        },
        "referenceRange": [
          {
            "low": {
              "value": 6,
              "code": "g/dL",
              "system": "http://unitsofmeasure.org"
            }
          },
          {
            "high": {
              "value": 8.3,
              "code": "g/dL",
              "system": "http://unitsofmeasure.org"
            }
          }
        ],
        "text": {
          "status": "generated",
          "div": "<div xmlns=\"http://www.w3.org/1999/xhtml\"><table class=\"hl7__eu__lab__report\"><tr><th>Test</th><th>23-Aug-2016</th><th>Reference&#xA0;Range</th><th>Unit</th></tr><tr><td>Protein [Mass/volume] in Serum or Plasma</td><td>6.7</td><td>6 - 8.3</td><td></td><td>g/dL</td></tr></table></div>"
        },
        "status": "final",
        "subject": {
          "reference": "urn:uuid:75069536-30bb-44bd-8dcb-c7ed6b9d5f39",
          "display": "Maria Nohlmans"
        },
        "effectiveDateTime": "2016-08-23T13:51:39Z",
        "specimen": {
          "reference": "urn:uuid:3942648b-390d-4585-82f1-4f4f01fcf3fc"
        }
      }
    },
    {
      "fullUrl": "urn:uuid:bc9fff30-e0b3-413c-8e73-5b1dd0e48c7d",
      "resource": {
        "resourceType": "Observation",
        "id": "bc9fff30-e0b3-413c-8e73-5b1dd0e48c7d",
        "meta": {
          "profile": [
            "http://hl7.eu/fhir/laboratory/StructureDefinition/Observation-resultslab-eu-lab"
          ]
        },
        "performer": [
          {
            "display": "The Central European Lab"
          }
        ],
        "category": [
          {
            "coding": [
              {
                "system": "http://terminology.hl7.org/CodeSystem/observation-category",
                "code": "laboratory"
              }
            ]
          }
        ],
        "code": {
          "coding": [
            {
              "code": "1751-7",
              "system": "http://loinc.org",
              "display": "Albumin [Mass/volume] in Serum or Plasma"
            }
          ],
          "text": "Albumin [Mass/volume] in Serum or Plasma"
        },
        "valueQuantity": {
          "system": "http://unitsofmeasure.org",
          "value": 4.8,
          "unit": "g/dL",
          "code": "g/dL"
        },
        "referenceRange": [
          {
            "low": {
              "value": 3.5,
              "code": "g/dL",
              "system": "http://unitsofmeasure.org"
            }
          },
          {
            "high": {
              "value": 5.5,
              "code": "g/dL",
              "system": "http://unitsofmeasure.org"
            }
          }
        ],
        "text": {
          "status": "generated",
          "div": "<div xmlns=\"http://www.w3.org/1999/xhtml\"><table class=\"hl7__eu__lab__report\"><tr><th>Test</th><th>23-Aug-2016</th><th>Reference&#xA0;Range</th><th>Unit</th></tr><tr><td>Albumin [Mass/volume] in Serum or Plasma</td><td>4.8</td><td>3.5 - 5.5</td><td></td><td>g/dL</td></tr></table></div>"
        },
        "status": "final",
        "subject": {
          "reference": "urn:uuid:75069536-30bb-44bd-8dcb-c7ed6b9d5f39",
          "display": "Maria Nohlmans"
        },
        "effectiveDateTime": "2016-08-23T13:51:39Z",
        "specimen": {
          "reference": "urn:uuid:3942648b-390d-4585-82f1-4f4f01fcf3fc"
        }
      }
    },
    {
      "fullUrl": "urn:uuid:9f4ebc90-cc77-47da-a95b-df70f0a23a3d",
      "resource": {
        "resourceType": "Observation",
        "id": "9f4ebc90-cc77-47da-a95b-df70f0a23a3d",
        "meta": {
          "profile": [
            "http://hl7.eu/fhir/laboratory/StructureDefinition/Observation-resultslab-eu-lab"
          ]
        },
        "performer": [
          {
            "display": "The Central European Lab"
          }
        ],
        "category": [
          {
            "coding": [
              {
                "system": "http://terminology.hl7.org/CodeSystem/observation-category",
                "code": "laboratory"
              }
            ]
          }
        ],
        "code": {
          "coding": [
            {
              "code": "10834-0",
              "system": "http://loinc.org",
              "display": "Globulin [Mass/volume] in Serum by calculation"
            }
          ],
          "text": "Globulin [Mass/volume] in Serum by calculation"
        },
        "valueQuantity": {
          "system": "http://unitsofmeasure.org",
          "value": 2.1,
          "unit": "g/L",
          "code": "g/L"
        },
        "referenceRange": [
          {
            "low": {
              "value": 2,
              "code": "g/L",
              "system": "http://unitsofmeasure.org"
            }
          },
          {
            "high": {
              "value": 3.5,
              "code": "g/L",
              "system": "http://unitsofmeasure.org"
            }
          }
        ],
        "text": {
          "status": "generated",
          "div": "<div xmlns=\"http://www.w3.org/1999/xhtml\"><table class=\"hl7__eu__lab__report\"><tr><th>Test</th><th>23-Aug-2016</th><th>Reference&#xA0;Range</th><th>Unit</th></tr><tr><td>Globulin [Mass/volume] in Serum by calculation</td><td>2.1</td><td>2 - 3.5</td><td></td><td>g/L</td></tr></table></div>"
        },
        "status": "final",
        "subject": {
          "reference": "urn:uuid:75069536-30bb-44bd-8dcb-c7ed6b9d5f39",
          "display": "Maria Nohlmans"
        },
        "effectiveDateTime": "2016-08-23T13:51:39Z",
        "specimen": {
          "reference": "urn:uuid:b3f6409a-d2b7-4b5b-89b9-3f2646d5da52"
        }
      }
    },
    {
      "fullUrl": "urn:uuid:4c8421ab-2e6e-471f-b6ad-a5925b7c6db9",
      "resource": {
        "resourceType": "Observation",
        "id": "4c8421ab-2e6e-471f-b6ad-a5925b7c6db9",
        "meta": {
          "profile": [
            "http://hl7.eu/fhir/laboratory/StructureDefinition/Observation-resultslab-eu-lab"
          ]
        },
        "performer": [
          {
            "display": "The Central European Lab"
          }
        ],
        "category": [
          {
            "coding": [
              {
                "system": "http://terminology.hl7.org/CodeSystem/observation-category",
                "code": "laboratory"
              }
            ]
          }
        ],
        "code": {
          "coding": [
            {
              "code": "1975-2",
              "system": "http://loinc.org",
              "display": "Bilirubin.total [Mass/volume] in Serum or Plasma"
            }
          ],
          "text": "Bilirubin.total [Mass/volume] in Serum or Plasma"
        },
        "valueQuantity": {
          "system": "http://unitsofmeasure.org",
          "value": 0.7,
          "unit": "mg/dL",
          "code": "mg/dL"
        },
        "referenceRange": [
          {
            "low": {
              "value": 0.3,
              "code": "mg/dL",
              "system": "http://unitsofmeasure.org"
            }
          },
          {
            "high": {
              "value": 1.2,
              "code": "mg/dL",
              "system": "http://unitsofmeasure.org"
            }
          }
        ],
        "text": {
          "status": "generated",
          "div": "<div xmlns=\"http://www.w3.org/1999/xhtml\"><table class=\"hl7__eu__lab__report\"><tr><th>Test</th><th>23-Aug-2016</th><th>Reference&#xA0;Range</th><th>Unit</th></tr><tr><td>Bilirubin.total [Mass/volume] in Serum or Plasma</td><td>0.7</td><td>0.3 - 1.2</td><td></td><td>mg/dL</td></tr></table></div>"
        },
        "status": "final",
        "subject": {
          "reference": "urn:uuid:75069536-30bb-44bd-8dcb-c7ed6b9d5f39",
          "display": "Maria Nohlmans"
        },
        "effectiveDateTime": "2016-08-23T13:51:39Z",
        "specimen": {
          "reference": "urn:uuid:3942648b-390d-4585-82f1-4f4f01fcf3fc"
        }
      }
    },
    {
      "fullUrl": "urn:uuid:1723cf0d-029b-47f1-b7ba-e24214b8bed1",
      "resource": {
        "resourceType": "Observation",
        "id": "1723cf0d-029b-47f1-b7ba-e24214b8bed1",
        "meta": {
          "profile": [
            "http://hl7.eu/fhir/laboratory/StructureDefinition/Observation-resultslab-eu-lab"
          ]
        },
        "performer": [
          {
            "display": "The Central European Lab"
          }
        ],
        "category": [
          {
            "coding": [
              {
                "system": "http://terminology.hl7.org/CodeSystem/observation-category",
                "code": "laboratory"
              }
            ]
          }
        ],
        "code": {
          "coding": [
            {
              "code": "6768-6",
              "system": "http://loinc.org",
              "display": "Alkaline phosphatase [Enzymatic activity/volume] in Serum or Plasma"
            }
          ],
          "text": "Alkaline phosphatase [Enzymatic activity/volume] in Serum or Plasma"
        },
        "valueQuantity": {
          "system": "http://unitsofmeasure.org",
          "value": 70.5,
          "unit": "U/L",
          "code": "U/L"
        },
        "referenceRange": [
          {
            "low": {
              "value": 44,
              "code": "U/L",
              "system": "http://unitsofmeasure.org"
            }
          },
          {
            "high": {
              "value": 142,
              "code": "U/L",
              "system": "http://unitsofmeasure.org"
            }
          }
        ],
        "text": {
          "status": "generated",
          "div": "<div xmlns=\"http://www.w3.org/1999/xhtml\"><table class=\"hl7__eu__lab__report\"><tr><th>Test</th><th>23-Aug-2016</th><th>Reference&#xA0;Range</th><th>Unit</th></tr><tr><td>Alkaline phosphatase [Enzymatic activity/volume] in Serum or Plasma</td><td>70.5</td><td>44 - 142</td><td></td><td>U/L</td></tr></table></div>"
        },
        "status": "final",
        "subject": {
          "reference": "urn:uuid:75069536-30bb-44bd-8dcb-c7ed6b9d5f39",
          "display": "Maria Nohlmans"
        },
        "effectiveDateTime": "2016-08-23T13:51:39Z",
        "specimen": {
          "reference": "urn:uuid:3942648b-390d-4585-82f1-4f4f01fcf3fc"
        }
      }
    },
    {
      "fullUrl": "urn:uuid:1ae82163-ac60-4d58-8f22-8d4e5d50d0e3",
      "resource": {
        "resourceType": "Observation",
        "id": "1ae82163-ac60-4d58-8f22-8d4e5d50d0e3",
        "meta": {
          "profile": [
            "http://hl7.eu/fhir/laboratory/StructureDefinition/Observation-resultslab-eu-lab"
          ]
        },
        "performer": [
          {
            "display": "The Central European Lab"
          }
        ],
        "category": [
          {
            "coding": [
              {
                "system": "http://terminology.hl7.org/CodeSystem/observation-category",
                "code": "laboratory"
              }
            ]
          }
        ],
        "code": {
          "coding": [
            {
              "code": "1742-6",
              "system": "http://loinc.org",
              "display": "Alanine aminotransferase [Enzymatic activity/volume] in Serum or Plasma"
            }
          ],
          "text": "Alanine aminotransferase [Enzymatic activity/volume] in Serum or Plasma"
        },
        "valueQuantity": {
          "system": "http://unitsofmeasure.org",
          "value": 23.8,
          "unit": "U/L",
          "code": "U/L"
        },
        "referenceRange": [
          {
            "low": {
              "value": 7,
              "code": "U/L",
              "system": "http://unitsofmeasure.org"
            }
          },
          {
            "high": {
              "value": 40,
              "code": "U/L",
              "system": "http://unitsofmeasure.org"
            }
          }
        ],
        "text": {
          "status": "generated",
          "div": "<div xmlns=\"http://www.w3.org/1999/xhtml\"><table class=\"hl7__eu__lab__report\"><tr><th>Test</th><th>23-Aug-2016</th><th>Reference&#xA0;Range</th><th>Unit</th></tr><tr><td>Alanine aminotransferase [Enzymatic activity/volume] in Serum or Plasma</td><td>23.8</td><td>7 - 40</td><td></td><td>U/L</td></tr></table></div>"
        },
        "status": "final",
        "subject": {
          "reference": "urn:uuid:75069536-30bb-44bd-8dcb-c7ed6b9d5f39",
          "display": "Maria Nohlmans"
        },
        "effectiveDateTime": "2016-08-23T13:51:39Z",
        "specimen": {
          "reference": "urn:uuid:3942648b-390d-4585-82f1-4f4f01fcf3fc"
        }
      }
    },
    {
      "fullUrl": "urn:uuid:c0182bbf-f8f9-4de0-a1b7-fa5fceba19bf",
      "resource": {
        "resourceType": "Observation",
        "id": "c0182bbf-f8f9-4de0-a1b7-fa5fceba19bf",
        "meta": {
          "profile": [
            "http://hl7.eu/fhir/laboratory/StructureDefinition/Observation-resultslab-eu-lab"
          ]
        },
        "performer": [
          {
            "display": "The Central European Lab"
          }
        ],
        "category": [
          {
            "coding": [
              {
                "system": "http://terminology.hl7.org/CodeSystem/observation-category",
                "code": "laboratory"
              }
            ]
          }
        ],
        "code": {
          "coding": [
            {
              "code": "1920-8",
              "system": "http://loinc.org",
              "display": "Aspartate aminotransferase [Enzymatic activity/volume] in Serum or Plasma"
            }
          ],
          "text": "Aspartate aminotransferase [Enzymatic activity/volume] in Serum or Plasma"
        },
        "valueQuantity": {
          "system": "http://unitsofmeasure.org",
          "value": 21.5,
          "unit": "U/L",
          "code": "U/L"
        },
        "referenceRange": [
          {
            "low": {
              "value": 10,
              "code": "U/L",
              "system": "http://unitsofmeasure.org"
            }
          },
          {
            "high": {
              "value": 40,
              "code": "U/L",
              "system": "http://unitsofmeasure.org"
            }
          }
        ],
        "text": {
          "status": "generated",
          "div": "<div xmlns=\"http://www.w3.org/1999/xhtml\"><table class=\"hl7__eu__lab__report\"><tr><th>Test</th><th>23-Aug-2016</th><th>Reference&#xA0;Range</th><th>Unit</th></tr><tr><td>Aspartate aminotransferase [Enzymatic activity/volume] in Serum or Plasma</td><td>21.5</td><td>10 - 40</td><td></td><td>U/L</td></tr></table></div>"
        },
        "status": "final",
        "subject": {
          "reference": "urn:uuid:75069536-30bb-44bd-8dcb-c7ed6b9d5f39",
          "display": "Maria Nohlmans"
        },
        "effectiveDateTime": "2016-08-23T13:51:39Z",
        "specimen": {
          "reference": "urn:uuid:3942648b-390d-4585-82f1-4f4f01fcf3fc"
        }
      }
    },
    {
      "fullUrl": "urn:uuid:cd52bb92-df4b-4cec-8d44-f3584e2c7591",
      "resource": {
        "resourceType": "Observation",
        "id": "cd52bb92-df4b-4cec-8d44-f3584e2c7591",
        "meta": {
          "profile": [
            "http://hl7.eu/fhir/laboratory/StructureDefinition/Observation-resultslab-eu-lab"
          ]
        },
        "performer": [
          {
            "display": "The Central European Lab"
          }
        ],
        "category": [
          {
            "coding": [
              {
                "system": "http://terminology.hl7.org/CodeSystem/observation-category",
                "code": "laboratory"
              }
            ]
          }
        ],
        "code": {
          "coding": [
            {
              "code": "5767-9",
              "system": "http://loinc.org",
              "display": "Appearance of Urine"
            }
          ],
          "text": "Appearance of Urine"
        },
        "text": {
          "status": "generated",
          "div": "<div xmlns=\"http://www.w3.org/1999/xhtml\"><table class=\"hl7__eu__lab__report\"><tr><th>Test</th><th>23-Aug-2016</th><th>Reference&#xA0;Range</th><th>Unit</th></tr><tr><td>Appearance of Urine</td></tr></table></div>"
        },
        "status": "final",
        "subject": {
          "reference": "urn:uuid:75069536-30bb-44bd-8dcb-c7ed6b9d5f39",
          "display": "Maria Nohlmans"
        },
        "effectiveDateTime": "2016-08-23T13:51:39Z",
        "specimen": {
          "reference": "urn:uuid:685f7824-937a-4d1d-aa0d-4c7c30ab6423"
        }
      }
    },
    {
      "fullUrl": "urn:uuid:7098e97f-77d8-4b34-8e82-9473e24932aa",
      "resource": {
        "resourceType": "Observation",
        "id": "7098e97f-77d8-4b34-8e82-9473e24932aa",
        "meta": {
          "profile": [
            "http://hl7.eu/fhir/laboratory/StructureDefinition/Observation-resultslab-eu-lab"
          ]
        },
        "performer": [
          {
            "display": "The Central European Lab"
          }
        ],
        "category": [
          {
            "coding": [
              {
                "system": "http://terminology.hl7.org/CodeSystem/observation-category",
                "code": "laboratory"
              }
            ]
          }
        ],
        "code": {
          "coding": [
            {
              "code": "34533-0",
              "system": "http://loinc.org",
              "display": "Odor of Urine"
            }
          ],
          "text": "Odor of Urine"
        },
        "text": {
          "status": "generated",
          "div": "<div xmlns=\"http://www.w3.org/1999/xhtml\"><table class=\"hl7__eu__lab__report\"><tr><th>Test</th><th>23-Aug-2016</th><th>Reference&#xA0;Range</th><th>Unit</th></tr><tr><td>Odor of Urine</td></tr></table></div>"
        },
        "status": "final",
        "subject": {
          "reference": "urn:uuid:75069536-30bb-44bd-8dcb-c7ed6b9d5f39",
          "display": "Maria Nohlmans"
        },
        "effectiveDateTime": "2016-08-23T13:51:39Z",
        "specimen": {
          "reference": "urn:uuid:685f7824-937a-4d1d-aa0d-4c7c30ab6423"
        }
      }
    },
    {
      "fullUrl": "urn:uuid:50396e72-2355-42aa-ada1-ee28a31aa5b5",
      "resource": {
        "resourceType": "Observation",
        "id": "50396e72-2355-42aa-ada1-ee28a31aa5b5",
        "meta": {
          "profile": [
            "http://hl7.eu/fhir/laboratory/StructureDefinition/Observation-resultslab-eu-lab"
          ]
        },
        "performer": [
          {
            "display": "The Central European Lab"
          }
        ],
        "category": [
          {
            "coding": [
              {
                "system": "http://terminology.hl7.org/CodeSystem/observation-category",
                "code": "laboratory"
              }
            ]
          }
        ],
        "code": {
          "coding": [
            {
              "code": "32167-9",
              "system": "http://loinc.org",
              "display": "Clarity of Urine"
            }
          ],
          "text": "Clarity of Urine"
        },
        "text": {
          "status": "generated",
          "div": "<div xmlns=\"http://www.w3.org/1999/xhtml\"><table class=\"hl7__eu__lab__report\"><tr><th>Test</th><th>23-Aug-2016</th><th>Reference&#xA0;Range</th><th>Unit</th></tr><tr><td>Clarity of Urine</td></tr></table></div>"
        },
        "status": "final",
        "subject": {
          "reference": "urn:uuid:75069536-30bb-44bd-8dcb-c7ed6b9d5f39",
          "display": "Maria Nohlmans"
        },
        "effectiveDateTime": "2016-08-23T13:51:39Z",
        "specimen": {
          "reference": "urn:uuid:685f7824-937a-4d1d-aa0d-4c7c30ab6423"
        }
      }
    },
    {
      "fullUrl": "urn:uuid:8fd9f3ca-15f5-47c2-a290-be520d4028c4",
      "resource": {
        "resourceType": "Observation",
        "id": "8fd9f3ca-15f5-47c2-a290-be520d4028c4",
        "meta": {
          "profile": [
            "http://hl7.eu/fhir/laboratory/StructureDefinition/Observation-resultslab-eu-lab"
          ]
        },
        "performer": [
          {
            "display": "The Central European Lab"
          }
        ],
        "category": [
          {
            "coding": [
              {
                "system": "http://terminology.hl7.org/CodeSystem/observation-category",
                "code": "laboratory"
              }
            ]
          }
        ],
        "code": {
          "coding": [
            {
              "code": "5778-6",
              "system": "http://loinc.org",
              "display": "Color of Urine"
            }
          ],
          "text": "Color of Urine"
        },
        "text": {
          "status": "generated",
          "div": "<div xmlns=\"http://www.w3.org/1999/xhtml\"><table class=\"hl7__eu__lab__report\"><tr><th>Test</th><th>23-Aug-2016</th><th>Reference&#xA0;Range</th><th>Unit</th></tr><tr><td>Color of Urine</td></tr></table></div>"
        },
        "status": "final",
        "subject": {
          "reference": "urn:uuid:75069536-30bb-44bd-8dcb-c7ed6b9d5f39",
          "display": "Maria Nohlmans"
        },
        "effectiveDateTime": "2016-08-23T13:51:39Z",
        "specimen": {
          "reference": "urn:uuid:685f7824-937a-4d1d-aa0d-4c7c30ab6423"
        }
      }
    },
    {
      "fullUrl": "urn:uuid:6c50975e-6515-451d-967d-bb5725023bad",
      "resource": {
        "resourceType": "Observation",
        "id": "6c50975e-6515-451d-967d-bb5725023bad",
        "meta": {
          "profile": [
            "http://hl7.eu/fhir/laboratory/StructureDefinition/Observation-resultslab-eu-lab"
          ]
        },
        "performer": [
          {
            "display": "The Central European Lab"
          }
        ],
        "category": [
          {
            "coding": [
              {
                "system": "http://terminology.hl7.org/CodeSystem/observation-category",
                "code": "laboratory"
              }
            ]
          }
        ],
        "code": {
          "coding": [
            {
              "code": "5792-7",
              "system": "http://loinc.org",
              "display": "Glucose [Mass/volume] in Urine by Test strip"
            }
          ],
          "text": "Glucose [Mass/volume] in Urine by Test strip"
        },
        "valueQuantity": {
          "system": "http://unitsofmeasure.org",
          "value": 1.9,
          "unit": "mg/dL",
          "code": "mg/dL"
        },
        "referenceRange": [
          {
            "low": {
              "value": 0.8,
              "code": "mg/dL",
              "system": "http://unitsofmeasure.org"
            }
          },
          {
            "high": {
              "value": 0,
              "code": "mg/dL",
              "system": "http://unitsofmeasure.org"
            }
          }
        ],
        "interpretation": [
          {
            "coding": [
              {
                "code": "H",
                "system": "http://terminology.hl7.org/CodeSystem/v3-ObservationInterpretation",
                "display": "High"
              }
            ]
          }
        ],
        "text": {
          "status": "generated",
          "div": "<div xmlns=\"http://www.w3.org/1999/xhtml\"><table class=\"hl7__eu__lab__report\"><tr><th>Test</th><th>23-Aug-2016</th><th>Reference&#xA0;Range</th><th>Unit</th></tr><tr><td>Glucose [Mass/volume] in Urine by Test strip</td><td>1.9</td><td>0.8 - 0</td><td>H</td><td>mg/dL</td></tr></table></div>"
        },
        "status": "final",
        "subject": {
          "reference": "urn:uuid:75069536-30bb-44bd-8dcb-c7ed6b9d5f39",
          "display": "Maria Nohlmans"
        },
        "effectiveDateTime": "2016-08-23T13:51:39Z",
        "specimen": {
          "reference": "urn:uuid:685f7824-937a-4d1d-aa0d-4c7c30ab6423"
        }
      }
    },
    {
      "fullUrl": "urn:uuid:83a770a8-122b-4c90-b81e-000bfe1b91a5",
      "resource": {
        "resourceType": "Observation",
        "id": "83a770a8-122b-4c90-b81e-000bfe1b91a5",
        "meta": {
          "profile": [
            "http://hl7.eu/fhir/laboratory/StructureDefinition/Observation-resultslab-eu-lab"
          ]
        },
        "performer": [
          {
            "display": "The Central European Lab"
          }
        ],
        "category": [
          {
            "coding": [
              {
                "system": "http://terminology.hl7.org/CodeSystem/observation-category",
                "code": "laboratory"
              }
            ]
          }
        ],
        "code": {
          "coding": [
            {
              "code": "25428-4",
              "system": "http://loinc.org",
              "display": "Glucose [Presence] in Urine by Test strip"
            }
          ],
          "text": "Glucose [Presence] in Urine by Test strip"
        },
        "text": {
          "status": "generated",
          "div": "<div xmlns=\"http://www.w3.org/1999/xhtml\"><table class=\"hl7__eu__lab__report\"><tr><th>Test</th><th>23-Aug-2016</th><th>Reference&#xA0;Range</th><th>Unit</th></tr><tr><td>Glucose [Presence] in Urine by Test strip</td></tr></table></div>"
        },
        "status": "final",
        "subject": {
          "reference": "urn:uuid:75069536-30bb-44bd-8dcb-c7ed6b9d5f39",
          "display": "Maria Nohlmans"
        },
        "effectiveDateTime": "2016-08-23T13:51:39Z",
        "specimen": {
          "reference": "urn:uuid:685f7824-937a-4d1d-aa0d-4c7c30ab6423"
        }
      }
    },
    {
      "fullUrl": "urn:uuid:bd30b2bd-beb9-4ad3-82d3-7ad107bf6aee",
      "resource": {
        "resourceType": "Observation",
        "id": "bd30b2bd-beb9-4ad3-82d3-7ad107bf6aee",
        "meta": {
          "profile": [
            "http://hl7.eu/fhir/laboratory/StructureDefinition/Observation-resultslab-eu-lab"
          ]
        },
        "performer": [
          {
            "display": "The Central European Lab"
          }
        ],
        "category": [
          {
            "coding": [
              {
                "system": "http://terminology.hl7.org/CodeSystem/observation-category",
                "code": "laboratory"
              }
            ]
          }
        ],
        "code": {
          "coding": [
            {
              "code": "20505-4",
              "system": "http://loinc.org",
              "display": "Bilirubin.total [Mass/volume] in Urine by Test strip"
            }
          ],
          "text": "Bilirubin.total [Mass/volume] in Urine by Test strip"
        },
        "valueQuantity": {
          "system": "http://unitsofmeasure.org",
          "value": 0.2,
          "unit": "mg/dL",
          "code": "mg/dL"
        },
        "referenceRange": [
          {
            "low": {
              "value": 0,
              "code": "mg/dL",
              "system": "http://unitsofmeasure.org"
            }
          },
          {
            "high": {
              "value": 1.5,
              "code": "mg/dL",
              "system": "http://unitsofmeasure.org"
            }
          }
        ],
        "text": {
          "status": "generated",
          "div": "<div xmlns=\"http://www.w3.org/1999/xhtml\"><table class=\"hl7__eu__lab__report\"><tr><th>Test</th><th>23-Aug-2016</th><th>Reference&#xA0;Range</th><th>Unit</th></tr><tr><td>Bilirubin.total [Mass/volume] in Urine by Test strip</td><td>0.2</td><td>0 - 1.5</td><td></td><td>mg/dL</td></tr></table></div>"
        },
        "status": "final",
        "subject": {
          "reference": "urn:uuid:75069536-30bb-44bd-8dcb-c7ed6b9d5f39",
          "display": "Maria Nohlmans"
        },
        "effectiveDateTime": "2016-08-23T13:51:39Z",
        "specimen": {
          "reference": "urn:uuid:685f7824-937a-4d1d-aa0d-4c7c30ab6423"
        }
      }
    },
    {
      "fullUrl": "urn:uuid:d3850f56-f404-4adc-92b0-7022334c612a",
      "resource": {
        "resourceType": "Observation",
        "id": "d3850f56-f404-4adc-92b0-7022334c612a",
        "meta": {
          "profile": [
            "http://hl7.eu/fhir/laboratory/StructureDefinition/Observation-resultslab-eu-lab"
          ]
        },
        "performer": [
          {
            "display": "The Central European Lab"
          }
        ],
        "category": [
          {
            "coding": [
              {
                "system": "http://terminology.hl7.org/CodeSystem/observation-category",
                "code": "laboratory"
              }
            ]
          }
        ],
        "code": {
          "coding": [
            {
              "code": "5770-3",
              "system": "http://loinc.org",
              "display": "Bilirubin.total [Presence] in Urine by Test strip"
            }
          ],
          "text": "Bilirubin.total [Presence] in Urine by Test strip"
        },
        "text": {
          "status": "generated",
          "div": "<div xmlns=\"http://www.w3.org/1999/xhtml\"><table class=\"hl7__eu__lab__report\"><tr><th>Test</th><th>23-Aug-2016</th><th>Reference&#xA0;Range</th><th>Unit</th></tr><tr><td>Bilirubin.total [Presence] in Urine by Test strip</td></tr></table></div>"
        },
        "status": "final",
        "subject": {
          "reference": "urn:uuid:75069536-30bb-44bd-8dcb-c7ed6b9d5f39",
          "display": "Maria Nohlmans"
        },
        "effectiveDateTime": "2016-08-23T13:51:39Z",
        "specimen": {
          "reference": "urn:uuid:685f7824-937a-4d1d-aa0d-4c7c30ab6423"
        }
      }
    },
    {
      "fullUrl": "urn:uuid:888bbfa5-cb69-468a-9c2d-4442274ea7aa",
      "resource": {
        "resourceType": "Observation",
        "id": "888bbfa5-cb69-468a-9c2d-4442274ea7aa",
        "meta": {
          "profile": [
            "http://hl7.eu/fhir/laboratory/StructureDefinition/Observation-resultslab-eu-lab"
          ]
        },
        "performer": [
          {
            "display": "The Central European Lab"
          }
        ],
        "category": [
          {
            "coding": [
              {
                "system": "http://terminology.hl7.org/CodeSystem/observation-category",
                "code": "laboratory"
              }
            ]
          }
        ],
        "code": {
          "coding": [
            {
              "code": "5797-6",
              "system": "http://loinc.org",
              "display": "Ketones [Mass/volume] in Urine by Test strip"
            }
          ],
          "text": "Ketones [Mass/volume] in Urine by Test strip"
        },
        "valueQuantity": {
          "system": "http://unitsofmeasure.org",
          "value": 12.4,
          "unit": "mg/dL",
          "code": "mg/dL"
        },
        "referenceRange": [
          {
            "low": {
              "value": 0,
              "code": "mg/dL",
              "system": "http://unitsofmeasure.org"
            }
          },
          {
            "high": {
              "value": 8,
              "code": "mg/dL",
              "system": "http://unitsofmeasure.org"
            }
          }
        ],
        "interpretation": [
          {
            "coding": [
              {
                "code": "H",
                "system": "http://terminology.hl7.org/CodeSystem/v3-ObservationInterpretation",
                "display": "High"
              }
            ]
          }
        ],
        "text": {
          "status": "generated",
          "div": "<div xmlns=\"http://www.w3.org/1999/xhtml\"><table class=\"hl7__eu__lab__report\"><tr><th>Test</th><th>23-Aug-2016</th><th>Reference&#xA0;Range</th><th>Unit</th></tr><tr><td>Ketones [Mass/volume] in Urine by Test strip</td><td>12.4</td><td>0 - 8</td><td>H</td><td>mg/dL</td></tr></table></div>"
        },
        "status": "final",
        "subject": {
          "reference": "urn:uuid:75069536-30bb-44bd-8dcb-c7ed6b9d5f39",
          "display": "Maria Nohlmans"
        },
        "effectiveDateTime": "2016-08-23T13:51:39Z",
        "specimen": {
          "reference": "urn:uuid:685f7824-937a-4d1d-aa0d-4c7c30ab6423"
        }
      }
    },
    {
      "fullUrl": "urn:uuid:ba2748dc-27a1-4b89-9a41-6f11b41658e0",
      "resource": {
        "resourceType": "Observation",
        "id": "ba2748dc-27a1-4b89-9a41-6f11b41658e0",
        "meta": {
          "profile": [
            "http://hl7.eu/fhir/laboratory/StructureDefinition/Observation-resultslab-eu-lab"
          ]
        },
        "performer": [
          {
            "display": "The Central European Lab"
          }
        ],
        "category": [
          {
            "coding": [
              {
                "system": "http://terminology.hl7.org/CodeSystem/observation-category",
                "code": "laboratory"
              }
            ]
          }
        ],
        "code": {
          "coding": [
            {
              "code": "2514-8",
              "system": "http://loinc.org",
              "display": "Ketones [Presence] in Urine by Test strip"
            }
          ],
          "text": "Ketones [Presence] in Urine by Test strip"
        },
        "text": {
          "status": "generated",
          "div": "<div xmlns=\"http://www.w3.org/1999/xhtml\"><table class=\"hl7__eu__lab__report\"><tr><th>Test</th><th>23-Aug-2016</th><th>Reference&#xA0;Range</th><th>Unit</th></tr><tr><td>Ketones [Presence] in Urine by Test strip</td></tr></table></div>"
        },
        "status": "final",
        "subject": {
          "reference": "urn:uuid:75069536-30bb-44bd-8dcb-c7ed6b9d5f39",
          "display": "Maria Nohlmans"
        },
        "effectiveDateTime": "2016-08-23T13:51:39Z",
        "specimen": {
          "reference": "urn:uuid:685f7824-937a-4d1d-aa0d-4c7c30ab6423"
        }
      }
    },
    {
      "fullUrl": "urn:uuid:2c989f58-2433-40a5-9e74-d7b39c52a64f",
      "resource": {
        "resourceType": "Observation",
        "id": "2c989f58-2433-40a5-9e74-d7b39c52a64f",
        "meta": {
          "profile": [
            "http://hl7.eu/fhir/laboratory/StructureDefinition/Observation-resultslab-eu-lab"
          ]
        },
        "performer": [
          {
            "display": "The Central European Lab"
          }
        ],
        "category": [
          {
            "coding": [
              {
                "system": "http://terminology.hl7.org/CodeSystem/observation-category",
                "code": "laboratory"
              }
            ]
          }
        ],
        "code": {
          "coding": [
            {
              "code": "5811-5",
              "system": "http://loinc.org",
              "display": "Specific gravity of Urine by Test strip"
            }
          ],
          "text": "Specific gravity of Urine by Test strip"
        },
        "valueQuantity": {
          "system": "http://unitsofmeasure.org",
          "value": 1,
          "unit": "{nominal}",
          "code": "{nominal}"
        },
        "referenceRange": [
          {
            "low": {
              "value": 1.01,
              "code": "g/mL",
              "system": "http://unitsofmeasure.org"
            }
          },
          {
            "high": {
              "value": 1.03,
              "code": "g/mL",
              "system": "http://unitsofmeasure.org"
            }
          }
        ],
        "interpretation": [
          {
            "coding": [
              {
                "code": "L",
                "system": "http://terminology.hl7.org/CodeSystem/v3-ObservationInterpretation",
                "display": "Low"
              }
            ]
          }
        ],
        "text": {
          "status": "generated",
          "div": "<div xmlns=\"http://www.w3.org/1999/xhtml\"><table class=\"hl7__eu__lab__report\"><tr><th>Test</th><th>23-Aug-2016</th><th>Reference&#xA0;Range</th><th>Unit</th></tr><tr><td>Specific gravity of Urine by Test strip</td><td>1.0</td><td>1.01 - 1.03</td><td>L</td><td>{nominal}</td></tr></table></div>"
        },
        "status": "final",
        "subject": {
          "reference": "urn:uuid:75069536-30bb-44bd-8dcb-c7ed6b9d5f39",
          "display": "Maria Nohlmans"
        },
        "effectiveDateTime": "2016-08-23T13:51:39Z",
        "specimen": {
          "reference": "urn:uuid:685f7824-937a-4d1d-aa0d-4c7c30ab6423"
        }
      }
    },
    {
      "fullUrl": "urn:uuid:66944425-18ae-4525-894a-ad47b957c7ba",
      "resource": {
        "resourceType": "Observation",
        "id": "66944425-18ae-4525-894a-ad47b957c7ba",
        "meta": {
          "profile": [
            "http://hl7.eu/fhir/laboratory/StructureDefinition/Observation-resultslab-eu-lab"
          ]
        },
        "performer": [
          {
            "display": "The Central European Lab"
          }
        ],
        "category": [
          {
            "coding": [
              {
                "system": "http://terminology.hl7.org/CodeSystem/observation-category",
                "code": "laboratory"
              }
            ]
          }
        ],
        "code": {
          "coding": [
            {
              "code": "5803-2",
              "system": "http://loinc.org",
              "display": "pH of Urine by Test strip"
            }
          ],
          "text": "pH of Urine by Test strip"
        },
        "valueQuantity": {
          "system": "http://unitsofmeasure.org",
          "value": 5.7,
          "unit": "pH",
          "code": "pH"
        },
        "referenceRange": [
          {
            "low": {
              "value": 4.6,
              "code": "pH",
              "system": "http://unitsofmeasure.org"
            }
          },
          {
            "high": {
              "value": 7.5,
              "code": "pH",
              "system": "http://unitsofmeasure.org"
            }
          }
        ],
        "text": {
          "status": "generated",
          "div": "<div xmlns=\"http://www.w3.org/1999/xhtml\"><table class=\"hl7__eu__lab__report\"><tr><th>Test</th><th>23-Aug-2016</th><th>Reference&#xA0;Range</th><th>Unit</th></tr><tr><td>pH of Urine by Test strip</td><td>5.7</td><td>4.6 - 7.5</td><td></td><td>pH</td></tr></table></div>"
        },
        "status": "final",
        "subject": {
          "reference": "urn:uuid:75069536-30bb-44bd-8dcb-c7ed6b9d5f39",
          "display": "Maria Nohlmans"
        },
        "effectiveDateTime": "2016-08-23T13:51:39Z",
        "specimen": {
          "reference": "urn:uuid:685f7824-937a-4d1d-aa0d-4c7c30ab6423"
        }
      }
    },
    {
      "fullUrl": "urn:uuid:a020e07e-837a-4416-8248-64af54523e63",
      "resource": {
        "resourceType": "Observation",
        "id": "a020e07e-837a-4416-8248-64af54523e63",
        "meta": {
          "profile": [
            "http://hl7.eu/fhir/laboratory/StructureDefinition/Observation-resultslab-eu-lab"
          ]
        },
        "performer": [
          {
            "display": "The Central European Lab"
          }
        ],
        "category": [
          {
            "coding": [
              {
                "system": "http://terminology.hl7.org/CodeSystem/observation-category",
                "code": "laboratory"
              }
            ]
          }
        ],
        "code": {
          "coding": [
            {
              "code": "5804-0",
              "system": "http://loinc.org",
              "display": "Protein [Mass/volume] in Urine by Test strip"
            }
          ],
          "text": "Protein [Mass/volume] in Urine by Test strip"
        },
        "valueQuantity": {
          "system": "http://unitsofmeasure.org",
          "value": 315.7,
          "unit": "mg/dL",
          "code": "mg/dL"
        },
        "referenceRange": [
          {
            "low": {
              "value": 0,
              "code": "mg/dL",
              "system": "http://unitsofmeasure.org"
            }
          },
          {
            "high": {
              "value": 14,
              "code": "mg/dL",
              "system": "http://unitsofmeasure.org"
            }
          }
        ],
        "interpretation": [
          {
            "coding": [
              {
                "code": "H",
                "system": "http://terminology.hl7.org/CodeSystem/v3-ObservationInterpretation",
                "display": "High"
              }
            ]
          }
        ],
        "text": {
          "status": "generated",
          "div": "<div xmlns=\"http://www.w3.org/1999/xhtml\"><table class=\"hl7__eu__lab__report\"><tr><th>Test</th><th>23-Aug-2016</th><th>Reference&#xA0;Range</th><th>Unit</th></tr><tr><td>Protein [Mass/volume] in Urine by Test strip</td><td>315.7</td><td>0 - 14</td><td>H</td><td>mg/dL</td></tr></table></div>"
        },
        "status": "final",
        "subject": {
          "reference": "urn:uuid:75069536-30bb-44bd-8dcb-c7ed6b9d5f39",
          "display": "Maria Nohlmans"
        },
        "effectiveDateTime": "2016-08-23T13:51:39Z",
        "specimen": {
          "reference": "urn:uuid:685f7824-937a-4d1d-aa0d-4c7c30ab6423"
        }
      }
    },
    {
      "fullUrl": "urn:uuid:16b7acc8-d2b6-49a8-9e26-3bae37c0a5f3",
      "resource": {
        "resourceType": "Observation",
        "id": "16b7acc8-d2b6-49a8-9e26-3bae37c0a5f3",
        "meta": {
          "profile": [
            "http://hl7.eu/fhir/laboratory/StructureDefinition/Observation-resultslab-eu-lab"
          ]
        },
        "performer": [
          {
            "display": "The Central European Lab"
          }
        ],
        "category": [
          {
            "coding": [
              {
                "system": "http://terminology.hl7.org/CodeSystem/observation-category",
                "code": "laboratory"
              }
            ]
          }
        ],
        "code": {
          "coding": [
            {
              "code": "20454-5",
              "system": "http://loinc.org",
              "display": "Protein [Presence] in Urine by Test strip"
            }
          ],
          "text": "Protein [Presence] in Urine by Test strip"
        },
        "text": {
          "status": "generated",
          "div": "<div xmlns=\"http://www.w3.org/1999/xhtml\"><table class=\"hl7__eu__lab__report\"><tr><th>Test</th><th>23-Aug-2016</th><th>Reference&#xA0;Range</th><th>Unit</th></tr><tr><td>Protein [Presence] in Urine by Test strip</td></tr></table></div>"
        },
        "status": "final",
        "subject": {
          "reference": "urn:uuid:75069536-30bb-44bd-8dcb-c7ed6b9d5f39",
          "display": "Maria Nohlmans"
        },
        "effectiveDateTime": "2016-08-23T13:51:39Z",
        "specimen": {
          "reference": "urn:uuid:685f7824-937a-4d1d-aa0d-4c7c30ab6423"
        }
      }
    },
    {
      "fullUrl": "urn:uuid:035e9380-67a3-4d6e-9813-c9cd887a98b4",
      "resource": {
        "resourceType": "Observation",
        "id": "035e9380-67a3-4d6e-9813-c9cd887a98b4",
        "meta": {
          "profile": [
            "http://hl7.eu/fhir/laboratory/StructureDefinition/Observation-resultslab-eu-lab"
          ]
        },
        "performer": [
          {
            "display": "The Central European Lab"
          }
        ],
        "category": [
          {
            "coding": [
              {
                "system": "http://terminology.hl7.org/CodeSystem/observation-category",
                "code": "laboratory"
              }
            ]
          }
        ],
        "code": {
          "coding": [
            {
              "code": "5802-4",
              "system": "http://loinc.org",
              "display": "Nitrite [Presence] in Urine by Test strip"
            }
          ],
          "text": "Nitrite [Presence] in Urine by Test strip"
        },
        "text": {
          "status": "generated",
          "div": "<div xmlns=\"http://www.w3.org/1999/xhtml\"><table class=\"hl7__eu__lab__report\"><tr><th>Test</th><th>23-Aug-2016</th><th>Reference&#xA0;Range</th><th>Unit</th></tr><tr><td>Nitrite [Presence] in Urine by Test strip</td></tr></table></div>"
        },
        "status": "final",
        "subject": {
          "reference": "urn:uuid:75069536-30bb-44bd-8dcb-c7ed6b9d5f39",
          "display": "Maria Nohlmans"
        },
        "effectiveDateTime": "2016-08-23T13:51:39Z",
        "specimen": {
          "reference": "urn:uuid:685f7824-937a-4d1d-aa0d-4c7c30ab6423"
        }
      }
    },
    {
      "fullUrl": "urn:uuid:42050251-a2d9-4c27-9672-21190c4d4f68",
      "resource": {
        "resourceType": "Observation",
        "id": "42050251-a2d9-4c27-9672-21190c4d4f68",
        "meta": {
          "profile": [
            "http://hl7.eu/fhir/laboratory/StructureDefinition/Observation-resultslab-eu-lab"
          ]
        },
        "performer": [
          {
            "display": "The Central European Lab"
          }
        ],
        "category": [
          {
            "coding": [
              {
                "system": "http://terminology.hl7.org/CodeSystem/observation-category",
                "code": "laboratory"
              }
            ]
          }
        ],
        "code": {
          "coding": [
            {
              "code": "5794-3",
              "system": "http://loinc.org",
              "display": "Hemoglobin [Presence] in Urine by Test strip"
            }
          ],
          "text": "Hemoglobin [Presence] in Urine by Test strip"
        },
        "text": {
          "status": "generated",
          "div": "<div xmlns=\"http://www.w3.org/1999/xhtml\"><table class=\"hl7__eu__lab__report\"><tr><th>Test</th><th>23-Aug-2016</th><th>Reference&#xA0;Range</th><th>Unit</th></tr><tr><td>Hemoglobin [Presence] in Urine by Test strip</td></tr></table></div>"
        },
        "status": "final",
        "subject": {
          "reference": "urn:uuid:75069536-30bb-44bd-8dcb-c7ed6b9d5f39",
          "display": "Maria Nohlmans"
        },
        "effectiveDateTime": "2016-08-23T13:51:39Z",
        "specimen": {
          "reference": "urn:uuid:685f7824-937a-4d1d-aa0d-4c7c30ab6423"
        }
      }
    },
    {
      "fullUrl": "urn:uuid:ff1a3da9-0ced-4577-87d2-dbb56622d544",
      "resource": {
        "resourceType": "Observation",
        "id": "ff1a3da9-0ced-4577-87d2-dbb56622d544",
        "meta": {
          "profile": [
            "http://hl7.eu/fhir/laboratory/StructureDefinition/Observation-resultslab-eu-lab"
          ]
        },
        "performer": [
          {
            "display": "The Central European Lab"
          }
        ],
        "category": [
          {
            "coding": [
              {
                "system": "http://terminology.hl7.org/CodeSystem/observation-category",
                "code": "laboratory"
              }
            ]
          }
        ],
        "code": {
          "coding": [
            {
              "code": "5799-2",
              "system": "http://loinc.org",
              "display": "Leukocyte esterase [Presence] in Urine by Test strip"
            }
          ],
          "text": "Leukocyte esterase [Presence] in Urine by Test strip"
        },
        "text": {
          "status": "generated",
          "div": "<div xmlns=\"http://www.w3.org/1999/xhtml\"><table class=\"hl7__eu__lab__report\"><tr><th>Test</th><th>23-Aug-2016</th><th>Reference&#xA0;Range</th><th>Unit</th></tr><tr><td>Leukocyte esterase [Presence] in Urine by Test strip</td></tr></table></div>"
        },
        "status": "final",
        "subject": {
          "reference": "urn:uuid:75069536-30bb-44bd-8dcb-c7ed6b9d5f39",
          "display": "Maria Nohlmans"
        },
        "effectiveDateTime": "2016-08-23T13:51:39Z",
        "specimen": {
          "reference": "urn:uuid:685f7824-937a-4d1d-aa0d-4c7c30ab6423"
        }
      }
    },
    {
      "fullUrl": "urn:uuid:9bb654e7-23e2-4314-8376-f450d2ca6464",
      "resource": {
        "resourceType": "Device",
        "id": "9bb654e7-23e2-4314-8376-f450d2ca6464",
        "deviceName": [
          {
            "name": "SYNDERAI Synthetic Generator",
            "type": "manufacturer-name"
          }
        ],
        "version": [
          {
            "value": "5.0"
          }
        ],
        "text": {
          "status": "generated",
          "div": "<div xmlns=\"http://www.w3.org/1999/xhtml\">SYNDERAI Synthetic Generator v5.0</div>"
        },
        "status": "active\"",
        "distinctIdentifier": "synderai-generator-50",
        "manufacturer": "SYNDERAI Project"
      }
    },
    {
      "fullUrl": "urn:uuid:2ec99ec9-3466-46a4-95c0-ccf61096b713",
      "resource": {
        "resourceType": "Provenance",
        "id": "2ec99ec9-3466-46a4-95c0-ccf61096b713",
        "target": [
          {
            "reference": "Patient/75069536-30bb-44bd-8dcb-c7ed6b9d5f39"
          },
          {
            "reference": "Bundle/7b887901-a1eb-4fba-b303-5169ede4370d"
          },
          {
            "reference": "Composition/e57b4935-c196-4989-8f41-ddf31b6ce239"
          },
          {
            "reference": "PractitionerRole/38cc4de3-702b-4eaf-9258-f3f5b4f3501a"
          },
          {
            "reference": "Practitioner/398e72ed-8d2b-44c5-88b4-fedad6964ed2"
          },
          {
            "reference": "PractitionerRole/1ef800d9-272b-4a3b-9de5-c6a68d86d5a0"
          },
          {
            "reference": "Organization/a50541d6-6712-4815-8675-ec5bf7e49fd0"
          }
        ],
        "activity": {
          "text": "Synthetic Example Data Generation"
        },
        "policy": [
          "https://synderai.net/synderai-synthetic-data-policy"
        ],
        "agent": [
          {
            "type": {
              "text": "author"
            },
            "who": {
              "reference": "Device/9bb654e7-23e2-4314-8376-f450d2ca6464"
            }
          }
        ],
        "reason": [
          {
            "text": "Interoperability Testing and Training (non-clinical use)"
          }
        ],
        "text": {
          "status": "generated",
          "div": "<div xmlns=\"http://www.w3.org/1999/xhtml\">Provenance for SYNDERAI Synthetic Example Data Resource</div>"
        },
        "recorded": "2016-08-23T15:51:39Z"
      }
    },
    {
      "fullUrl": "urn:uuid:38cc4de3-702b-4eaf-9258-f3f5b4f3501a",
      "resource": {
        "resourceType": "PractitionerRole",
        "id": "38cc4de3-702b-4eaf-9258-f3f5b4f3501a",
        "meta": {
          "profile": [
            "http://hl7.eu/fhir/base/StructureDefinition/practitionerRole-eu"
          ]
        },
        "text": {
          "status": "generated",
          "div": "<div xmlns=\"http://www.w3.org/1999/xhtml\">Laboratory Role Id: 38cc4de3-702b-4eaf-9258-f3f5b4f3501a</div>"
        },
        "practitioner": {
          "reference": "urn:uuid:398e72ed-8d2b-44c5-88b4-fedad6964ed2"
        }
      }
    },
    {
      "fullUrl": "urn:uuid:398e72ed-8d2b-44c5-88b4-fedad6964ed2",
      "resource": {
        "resourceType": "Practitioner",
        "id": "398e72ed-8d2b-44c5-88b4-fedad6964ed2",
        "meta": {
          "profile": [
            "http://hl7.eu/fhir/base/StructureDefinition/practitioner-eu"
          ]
        },
        "identifier": [
          {
            "assigner": {
              "display": "HL7 Europe"
            },
            "system": "urn:oid:2.16.840.1.113883.2.51.999",
            "value": "6aed725c-7817-4715-b07d-2985ac211885"
          }
        ],
        "name": [
          {
            "prefix": [
              "dr"
            ],
            "given": [
              "Ex"
            ],
            "family": "Ample"
          }
        ],
        "address": [
          {
            "line": [
              "Laboratoire Central Européenne",
              "Boulevard du Jardin Botanique 32"
            ],
            "postalCode": "1000",
            "city": "Brussels",
            "country": "Belgium"
          }
        ],
        "text": {
          "status": "generated",
          "div": "<div xmlns=\"http://www.w3.org/1999/xhtml\">Laboratory: Laboratoire Central Européenne, 1000 Brussels, Belgium</div>"
        }
      }
    }
  ],
  "type": "document",
  "timestamp": "2016-08-23T15:51:39Z"
}
