{
  "resourceType": "Bundle",
  "id": "1cf6921c-964c-4c8f-b957-8d4ba4fa59ff",
  "meta": {
    "profile": [
      "http://hl7.eu/fhir/laboratory/StructureDefinition/Bundle-eu-lab"
    ]
  },
  "identifier": {
    "assigner": {
      "display": "HL7 Europe"
    },
    "system": "urn:oid:2.16.840.1.113883.2.51.999",
    "value": "21d34bdb-9d82-4e35-82e0-446f8576c000"
  },
  "entry": [
    {
      "fullUrl": "urn:uuid:4cf24120-253f-4436-9835-31176e4cbddb",
      "resource": {
        "resourceType": "Composition",
        "id": "4cf24120-253f-4436-9835-31176e4cbddb",
        "meta": {
          "profile": [
            "http://hl7.eu/fhir/laboratory/StructureDefinition/Composition-eu-lab"
          ]
        },
        "identifier": {
          "assigner": {
            "display": "HL7 Europe"
          },
          "system": "urn:oid:2.16.840.1.113883.2.51.999",
          "value": "73bfb986-312e-457a-829c-974b900eed79"
        },
        "author": [
          {
            "reference": "urn:uuid:602f451a-f968-4adb-8603-a5a91ff5bf9e"
          }
        ],
        "category": [
          {
            "coding": [
              {
                "code": "26436-6",
                "system": "http://loinc.org",
                "display": "Laboratory studies (set)"
              }
            ]
          }
        ],
        "type": {
          "coding": [
            {
              "code": "11502-2",
              "system": "http://loinc.org",
              "display": "Laboratory report"
            }
          ],
          "text": "Laboratory Report"
        },
        "section": [
          {
            "code": {
              "coding": [
                {
                  "code": "26436-6",
                  "system": "http://loinc.org",
                  "display": "Laboratory studies (set)"
                }
              ],
              "text": "Laboratory studies"
            },
            "section": [
              {
                "code": {
                  "coding": [
                    {
                      "code": "$18725-2",
                      "system": "http://loinc.org",
                      "display": "Microbiology studies"
                    }
                  ],
                  "text": "Microbiology Panel"
                },
                "entry": [
                  {
                    "reference": "urn:uuid:1e694566-d6e2-4fb8-a7d9-af62fb4b29cb"
                  }
                ],
                "text": {
                  "status": "generated",
                  "div": "<div xmlns=\"http://www.w3.org/1999/xhtml\"><h3>Microbiology Panel</h3><table class=\"hl7__eu__lab__report\"><thead><tr><th>Test</th><th>17-JUL-2020</th><th>Reference&#xA0;Range</th><th>Unit</th></tr></thead><tbody><tr><td>SARS-CoV-2 (COVID-19) RNA panel - Respiratory system specimen by NAA with probe detection</td><td>Detected</td><td></td><td></td></tr></tbody></table></div>"
                },
                "title": "Microbiology Panel"
              }
            ],
            "title": "Laboratory Report"
          },
          {
            "text": {
              "status": "generated",
              "div": "<div xmlns=\"http://www.w3.org/1999/xhtml\"><h3>Annotation</h3><table class=\"hl7__eu__lab__report\"><tr><th>Conclusion and Recommendations based on this report and previous findings known to us</th></tr><tr><td>SARS-CoV-2 RNA was detected in the respiratory specimen, indicating an active COVID-19 infection. Clinical correlation and appropriate isolation and management are recommended according to current guidelines. No other laboratory abnormalities are reported.</td></tr></table></div>"
            },
            "code": {
              "coding": [
                {
                  "system": "http://loinc.org",
                  "code": "48767-8",
                  "display": "Annotation comment"
                }
              ]
            },
            "title": "Annotation comment"
          }
        ],
        "status": "final",
        "subject": {
          "reference": "urn:uuid:680d9022-7bc0-45ca-91e5-64d204f1c96e",
          "display": "Hynek Kubíčková"
        },
        "date": "2020-07-17T15:31:10Z",
        "title": "Laboratory Report",
        "confidentiality": "N"
      }
    },
    {
      "fullUrl": "urn:uuid:0a389e0c-8a6a-404d-bd59-654f63429b52",
      "resource": {
        "resourceType": "DiagnosticReport",
        "id": "0a389e0c-8a6a-404d-bd59-654f63429b52",
        "meta": {
          "profile": [
            "http://hl7.eu/fhir/laboratory/StructureDefinition/DiagnosticReport-eu-lab"
          ]
        },
        "identifier": [
          {
            "assigner": {
              "display": "HL7 Europe"
            },
            "system": "urn:oid:2.16.840.1.113883.2.51.999",
            "value": "f60ec534-9a46-4fdc-8cf4-d268c9a3a146"
          }
        ],
        "extension": [
          {
            "url": "http://hl7.org/fhir/5.0/StructureDefinition/extension-DiagnosticReport.composition",
            "valueReference": {
              "reference": "urn:uuid:73bfb986-312e-457a-829c-974b900eed79"
            }
          }
        ],
        "category": [
          {
            "coding": [
              {
                "code": "26436-6",
                "system": "http://loinc.org",
                "display": "Laboratory studies (set)"
              }
            ]
          }
        ],
        "specimen": [
          {
            "reference": "urn:uuid:868a26b9-81c9-4a77-aec5-90a7d9b26365"
          }
        ],
        "result": [
          {
            "reference": "urn:uuid:1e694566-d6e2-4fb8-a7d9-af62fb4b29cb"
          }
        ],
        "status": "registered",
        "code": {
          "coding": [
            {
              "code": "11502-2",
              "system": "http://loinc.org",
              "display": "Laboratory report"
            }
          ]
        },
        "subject": {
          "reference": "urn:uuid:680d9022-7bc0-45ca-91e5-64d204f1c96e",
          "display": "Hynek Kubíčková"
        }
      }
    },
    {
      "fullUrl": "urn:uuid:680d9022-7bc0-45ca-91e5-64d204f1c96e",
      "resource": {
        "resourceType": "Patient",
        "id": "680d9022-7bc0-45ca-91e5-64d204f1c96e",
        "meta": {
          "security": [
            {
              "system": "http://terminology.hl7.org/CodeSystem/v3-ActReason",
              "code": "HTEST"
            },
            {
              "system": "http://terminology.hl7.org/CodeSystem/v3-ActReason",
              "code": "TRAIN"
            }
          ],
          "tag": [
            {
              "system": "https://synderai.net/fhir/CodeSystem/tags",
              "code": "synthetic",
              "display": "SYNDERAI Synthetic data"
            }
          ],
          "profile": [
            "http://hl7.eu/fhir/base/StructureDefinition/patient-eu-core"
          ]
        },
        "identifier": [
          {
            "type": {
              "coding": [
                {
                  "code": "PT",
                  "system": "http://terminology.hl7.org/CodeSystem/v2-0203"
                }
              ]
            },
            "system": "http://ec.europa.eu/identifier/eci",
            "value": "9771-756399-9"
          },
          {
            "type": {
              "coding": [
                {
                  "code": "MR",
                  "system": "http://terminology.hl7.org/CodeSystem/v2-0203"
                }
              ]
            },
            "system": "http://local.setting.eu/identifier",
            "value": "0a9c3ea6-b526-4dcc-cde1-545cdfca14b2"
          }
        ],
        "name": [
          {
            "family": "Kubíčková"
          },
          {
            "given": [
              "Hynek"
            ]
          },
          {
            "text": "Hynek Kubíčková"
          }
        ],
        "address": [
          {
            "line": [
              "Vraňanská 9"
            ],
            "use": "home",
            "type": "physical",
            "postalCode": "739 11",
            "city": "Frýdlant nad Ostravicí",
            "country": "Czechia"
          }
        ],
        "telecom": [
          {
            "system": "phone",
            "value": "+420 605 458 784"
          }
        ],
        "extension": [
          {
            "url": "http://hl7.org/fhir/StructureDefinition/patient-nationality",
            "valueCodeableConcept": {
              "coding": [
                {
                  "code": "CZ",
                  "system": "http://hl7.org/fhir/ValueSet/country"
                }
              ]
            }
          }
        ],
        "text": {
          "status": "generated",
          "div": "<div xmlns=\"http://www.w3.org/1999/xhtml\"><table class=\"hl7__ips\"><tr><td>Hynek Kubíčková</td><td>male</td><td>24-Jun-2005</td></tr></table></div>"
        },
        "gender": "male",
        "birthDate": "2005-06-24"
      }
    },
    {
      "fullUrl": "urn:uuid:29a20eb7-a354-44f6-b9fb-bc9dd9b45187",
      "resource": {
        "resourceType": "ServiceRequest",
        "id": "29a20eb7-a354-44f6-b9fb-bc9dd9b45187",
        "meta": {
          "profile": [
            "http://hl7.eu/fhir/laboratory/StructureDefinition/ServiceRequest-eu-lab"
          ]
        },
        "identifier": [
          {
            "system": "http://example.org",
            "value": "e0576ef5-bf21-47ed-a43d-17a0b80c4fe7"
          }
        ],
        "specimen": [
          {
            "reference": "urn:uuid:868a26b9-81c9-4a77-aec5-90a7d9b26365"
          }
        ],
        "status": "active",
        "intent": "order",
        "code": {
          "coding": [
            {
              "code": "108252007",
              "system": "http://snomed.info/sct",
              "display": "Laboratory procedure"
            }
          ]
        },
        "subject": {
          "reference": "urn:uuid:680d9022-7bc0-45ca-91e5-64d204f1c96e",
          "display": "Hynek Kubíčková"
        },
        "requester": {
          "reference": "urn:uuid:fa880e03-28cb-4626-9c4d-13135cd64877"
        }
      }
    },
    {
      "fullUrl": "urn:uuid:fa880e03-28cb-4626-9c4d-13135cd64877",
      "resource": {
        "resourceType": "PractitionerRole",
        "id": "fa880e03-28cb-4626-9c4d-13135cd64877",
        "meta": {
          "profile": [
            "http://hl7.eu/fhir/base/StructureDefinition/practitionerRole-eu"
          ]
        },
        "text": {
          "status": "generated",
          "div": "<div xmlns=\"http://www.w3.org/1999/xhtml\">Provider Role Id: fa880e03-28cb-4626-9c4d-13135cd64877</div>"
        },
        "organization": {
          "reference": "urn:uuid:824f1e7c-6d59-48bd-9c99-e5cb9f2290fe"
        }
      }
    },
    {
      "fullUrl": "urn:uuid:824f1e7c-6d59-48bd-9c99-e5cb9f2290fe",
      "resource": {
        "resourceType": "Organization",
        "id": "824f1e7c-6d59-48bd-9c99-e5cb9f2290fe",
        "meta": {
          "profile": [
            "http://hl7.eu/fhir/base/StructureDefinition/organization-eu"
          ]
        },
        "identifier": [
          {
            "assigner": {
              "display": "HL7 Europe"
            },
            "system": "urn:oid:2.16.840.1.113883.2.51.999",
            "value": "c35a342c-88ac-4aba-9df5-ab8a6de584b8"
          }
        ],
        "address": [
          {
            "city": "Čeladná",
            "postalCode": "739 12",
            "country": "Czechia"
          }
        ],
        "text": {
          "status": "generated",
          "div": "<div xmlns=\"http://www.w3.org/1999/xhtml\">Provider Organization: Beskydské rehabilitační centrum</div>"
        },
        "name": "Beskydské rehabilitační centrum"
      }
    },
    {
      "fullUrl": "urn:uuid:868a26b9-81c9-4a77-aec5-90a7d9b26365",
      "resource": {
        "resourceType": "Specimen",
        "id": "868a26b9-81c9-4a77-aec5-90a7d9b26365",
        "meta": {
          "profile": [
            "http://hl7.eu/fhir/laboratory/StructureDefinition/Specimen-eu-lab"
          ]
        },
        "collection": {
          "collectedDateTime": "2020-07-17"
        },
        "text": {
          "status": "generated",
          "div": "<div xmlns=\"http://www.w3.org/1999/xhtml\"><table class=\"hl7__eu__lab__report\"><tr><th>Specimen</th><th>Collection Date</th></tr><tr><td>Respiratory specimen (specimen)</td><td><span class=\"nb\">17-Jul-2020</span></td></tr></table></div>"
        },
        "type": {
          "coding": [
            {
              "code": "258603007",
              "system": "http://snomed.info/sct",
              "display": "Respiratory specimen (specimen)"
            }
          ]
        }
      }
    },
    {
      "fullUrl": "urn:uuid:1e694566-d6e2-4fb8-a7d9-af62fb4b29cb",
      "resource": {
        "resourceType": "Observation",
        "id": "1e694566-d6e2-4fb8-a7d9-af62fb4b29cb",
        "meta": {
          "profile": [
            "http://hl7.eu/fhir/laboratory/StructureDefinition/Observation-resultslab-eu-lab"
          ]
        },
        "performer": [
          {
            "display": "The Central European Lab"
          }
        ],
        "category": [
          {
            "coding": [
              {
                "system": "http://terminology.hl7.org/CodeSystem/observation-category",
                "code": "laboratory"
              }
            ]
          }
        ],
        "code": {
          "coding": [
            {
              "code": "94531-1",
              "system": "http://loinc.org",
              "display": "SARS-CoV-2 (COVID-19) RNA panel - Respiratory system specimen by NAA with probe detection"
            }
          ],
          "text": "SARS-CoV-2 (COVID-19) RNA panel - Respiratory system specimen by NAA with probe detection"
        },
        "text": {
          "status": "generated",
          "div": "<div xmlns=\"http://www.w3.org/1999/xhtml\"><table class=\"hl7__eu__lab__report\"><tr><th>Test</th><th>17-Jul-2020</th><th>Reference&#xA0;Range</th><th>Unit</th></tr><tr><td>SARS-CoV-2 (COVID-19) RNA panel - Respiratory system specimen by NAA with probe detection</td></tr></table></div>"
        },
        "status": "final",
        "subject": {
          "reference": "urn:uuid:680d9022-7bc0-45ca-91e5-64d204f1c96e",
          "display": "Hynek Kubíčková"
        },
        "effectiveDateTime": "2020-07-17T13:31:10Z",
        "specimen": {
          "reference": "urn:uuid:868a26b9-81c9-4a77-aec5-90a7d9b26365"
        }
      }
    },
    {
      "fullUrl": "urn:uuid:d6dd2e64-3395-4e43-aa65-97d63d2ccfe3",
      "resource": {
        "resourceType": "Device",
        "id": "d6dd2e64-3395-4e43-aa65-97d63d2ccfe3",
        "deviceName": [
          {
            "name": "SYNDERAI Synthetic Generator",
            "type": "manufacturer-name"
          }
        ],
        "version": [
          {
            "value": "5.0"
          }
        ],
        "text": {
          "status": "generated",
          "div": "<div xmlns=\"http://www.w3.org/1999/xhtml\">SYNDERAI Synthetic Generator v5.0</div>"
        },
        "status": "active\"",
        "distinctIdentifier": "synderai-generator-50",
        "manufacturer": "SYNDERAI Project"
      }
    },
    {
      "fullUrl": "urn:uuid:26918dfd-2380-4d8c-b379-4bf54bdd28ea",
      "resource": {
        "resourceType": "Provenance",
        "id": "26918dfd-2380-4d8c-b379-4bf54bdd28ea",
        "target": [
          {
            "reference": "Patient/680d9022-7bc0-45ca-91e5-64d204f1c96e"
          },
          {
            "reference": "Bundle/1cf6921c-964c-4c8f-b957-8d4ba4fa59ff"
          },
          {
            "reference": "Composition/4cf24120-253f-4436-9835-31176e4cbddb"
          },
          {
            "reference": "PractitionerRole/602f451a-f968-4adb-8603-a5a91ff5bf9e"
          },
          {
            "reference": "Practitioner/983cc1e5-dc96-41c2-92f9-20ab013ce5cb"
          },
          {
            "reference": "PractitionerRole/fa880e03-28cb-4626-9c4d-13135cd64877"
          },
          {
            "reference": "Organization/824f1e7c-6d59-48bd-9c99-e5cb9f2290fe"
          }
        ],
        "activity": {
          "text": "Synthetic Example Data Generation"
        },
        "policy": [
          "https://synderai.net/synderai-synthetic-data-policy"
        ],
        "agent": [
          {
            "type": {
              "text": "author"
            },
            "who": {
              "reference": "Device/d6dd2e64-3395-4e43-aa65-97d63d2ccfe3"
            }
          }
        ],
        "reason": [
          {
            "text": "Interoperability Testing and Training (non-clinical use)"
          }
        ],
        "text": {
          "status": "generated",
          "div": "<div xmlns=\"http://www.w3.org/1999/xhtml\">Provenance for SYNDERAI Synthetic Example Data Resource</div>"
        },
        "recorded": "2020-07-17T15:31:10Z"
      }
    },
    {
      "fullUrl": "urn:uuid:602f451a-f968-4adb-8603-a5a91ff5bf9e",
      "resource": {
        "resourceType": "PractitionerRole",
        "id": "602f451a-f968-4adb-8603-a5a91ff5bf9e",
        "meta": {
          "profile": [
            "http://hl7.eu/fhir/base/StructureDefinition/practitionerRole-eu"
          ]
        },
        "text": {
          "status": "generated",
          "div": "<div xmlns=\"http://www.w3.org/1999/xhtml\">Laboratory Role Id: 602f451a-f968-4adb-8603-a5a91ff5bf9e</div>"
        },
        "practitioner": {
          "reference": "urn:uuid:983cc1e5-dc96-41c2-92f9-20ab013ce5cb"
        }
      }
    },
    {
      "fullUrl": "urn:uuid:983cc1e5-dc96-41c2-92f9-20ab013ce5cb",
      "resource": {
        "resourceType": "Practitioner",
        "id": "983cc1e5-dc96-41c2-92f9-20ab013ce5cb",
        "meta": {
          "profile": [
            "http://hl7.eu/fhir/base/StructureDefinition/practitioner-eu"
          ]
        },
        "identifier": [
          {
            "assigner": {
              "display": "HL7 Europe"
            },
            "system": "urn:oid:2.16.840.1.113883.2.51.999",
            "value": "b137e64d-93f4-4ca3-8fe0-3e0a85b040b4"
          }
        ],
        "name": [
          {
            "prefix": [
              "dr"
            ],
            "given": [
              "Ex"
            ],
            "family": "Ample"
          }
        ],
        "address": [
          {
            "line": [
              "Laboratoire Central Européenne",
              "Boulevard du Jardin Botanique 32"
            ],
            "postalCode": "1000",
            "city": "Brussels",
            "country": "Belgium"
          }
        ],
        "text": {
          "status": "generated",
          "div": "<div xmlns=\"http://www.w3.org/1999/xhtml\">Laboratory: Laboratoire Central Européenne, 1000 Brussels, Belgium</div>"
        }
      }
    }
  ],
  "type": "document",
  "timestamp": "2020-07-17T15:31:10Z"
}
