<Bundle xmlns="http://hl7.org/fhir">
   <id value="9873928c-edde-4af6-bc8d-c935172753cb"/>
   <meta>
      <profile value="http://hl7.eu/fhir/laboratory/StructureDefinition/Bundle-eu-lab"/>
   </meta>
   <identifier>
      <system value="urn:oid:2.16.840.1.113883.2.51.999"/>
      <value value="2bf93c94-73ca-4115-8d39-da5fbfc1666d"/>
      <assigner>
         <display value="HL7 Europe"/>
      </assigner>
   </identifier>
   <type value="document"/>
   <timestamp value="2016-03-16T07:19:29Z"/>
   <entry>
      <fullUrl value="urn:uuid:21c9eada-04df-4b66-85f4-54b919d672c2"/>
      <resource>
         <Composition>
            <id value="21c9eada-04df-4b66-85f4-54b919d672c2"/>
            <meta>
               <profile value="http://hl7.eu/fhir/laboratory/StructureDefinition/Composition-eu-lab"/>
            </meta>
            <identifier>
               <system value="urn:oid:2.16.840.1.113883.2.51.999"/>
               <value value="d2ff5a93-5a57-48ab-af46-15a0f2080cfb"/>
               <assigner>
                  <display value="HL7 Europe"/>
               </assigner>
            </identifier>
            <status value="final"/>
            <type>
               <coding>
                  <system value="http://loinc.org"/>
                  <code value="11502-2"/>
                  <display value="Laboratory report"/>
               </coding>
               <text value="Laboratory Report"/>
            </type>
            <category>
               <coding>
                  <system value="http://loinc.org"/>
                  <code value="26436-6"/>
                  <display value="Laboratory studies (set)"/>
               </coding>
            </category>
            <subject>
               <reference value="urn:uuid:d82a0be7-57fe-4215-9b35-4176cae274b1"/>
               <display value="Iva Kratochvílová"/>
            </subject>
            <date value="2016-03-16T07:19:29Z"/>
            <author>
               <reference value="urn:uuid:e6393efb-c276-492f-975e-3a1c9155a312"/>
            </author>
            <title value="Laboratory Report"/>
            <confidentiality value="N"/>
            <section>
               <title value="Laboratory Report"/>
               <code>
                  <coding>
                     <system value="http://loinc.org"/>
                     <code value="26436-6"/>
                     <display value="Laboratory studies (set)"/>
                  </coding>
                  <text value="Laboratory studies"/>
               </code>
               <section>
                  <title value="Chemistry"/>
                  <code>
                     <coding>
                        <system value="http://loinc.org"/>
                        <code value="$18719-5"/>
                        <display value="Chemistry studies (set)"/>
                     </coding>
                     <text value="Chemistry"/>
                  </code>
                  <text>
                     <status value="generated"/>
                     <div xmlns="http://www.w3.org/1999/xhtml">
                        <h3>Chemistry</h3>
                        <table class="hl7__eu__lab__report">
                           <thead>
                              <tr>
                                 <th>Test</th>
                                 <th>16-MAR-2016</th>
                                 <th>Reference Range</th>
                                 <th>Unit</th>
                              </tr>
                           </thead>
                           <tbody>
                              <tr>
                                 <td>Glucose [Mass/volume] in Blood</td>
                                 <td>88.5</td>
                                 <td>70 - 140</td>
                                 <td>mg/dL</td>
                              </tr>
                              <tr>
                                 <td>Urea nitrogen [Mass/volume] in Blood</td>
                                 <td>11.7</td>
                                 <td>7 - 25</td>
                                 <td>mg/dL</td>
                              </tr>
                              <tr>
                                 <td>Creatinine [Mass/volume] in Blood</td>
                                 <td>
                                    <strong>2.5 H</strong>
                                 </td>
                                 <td>0.6 - 1.1</td>
                                 <td>mg/dL</td>
                              </tr>
                              <tr>
                                 <td>Calcium [Mass/volume] in Blood</td>
                                 <td>9.0</td>
                                 <td>8.6 - 10.4</td>
                                 <td>mg/dL</td>
                              </tr>
                              <tr>
                                 <td>Sodium [Moles/volume] in Blood</td>
                                 <td>139.5</td>
                                 <td>135 - 145</td>
                                 <td>mmol/L</td>
                              </tr>
                              <tr>
                                 <td>Potassium [Moles/volume] in Blood</td>
                                 <td>4.7</td>
                                 <td>3.5 - 5.1</td>
                                 <td>mmol/L</td>
                              </tr>
                              <tr>
                                 <td>Chloride [Moles/volume] in Blood</td>
                                 <td>107.9</td>
                                 <td>98 - 110</td>
                                 <td>mmol/L</td>
                              </tr>
                              <tr>
                                 <td>Carbon dioxide, total [Moles/volume] in Blood</td>
                                 <td>25.6</td>
                                 <td>22 - 29</td>
                                 <td>mmol/L</td>
                              </tr>
                              <tr>
                                 <td>Protein [Mass/volume] in Serum or Plasma</td>
                                 <td>7.9</td>
                                 <td>6.6 - 8.3</td>
                                 <td>g/dL</td>
                              </tr>
                              <tr>
                                 <td>Albumin [Mass/volume] in Serum or Plasma</td>
                                 <td>
                                    <strong>5.3 H</strong>
                                 </td>
                                 <td>3.5 - 5</td>
                                 <td>g/dL</td>
                              </tr>
                              <tr>
                                 <td>Globulin [Mass/volume] in Serum by calculation</td>
                                 <td>2.5</td>
                                 <td>2 - 3.5</td>
                                 <td>g/L</td>
                              </tr>
                              <tr>
                                 <td>Bilirubin.total [Mass/volume] in Serum or Plasma</td>
                                 <td>1.0</td>
                                 <td>0.3 - 1.2</td>
                                 <td>mg/dL</td>
                              </tr>
                              <tr>
                                 <td>Alkaline phosphatase [Enzymatic activity/volume] in Serum or Plasma</td>
                                 <td>53.0</td>
                                 <td>39 - 141</td>
                                 <td>U/L</td>
                              </tr>
                              <tr>
                                 <td>Alanine aminotransferase [Enzymatic activity/volume] in Serum or Plasma</td>
                                 <td>23.9</td>
                                 <td>7 - 40</td>
                                 <td>U/L</td>
                              </tr>
                              <tr>
                                 <td>Aspartate aminotransferase [Enzymatic activity/volume] in Serum or Plasma</td>
                                 <td>30.2</td>
                                 <td>10 - 32</td>
                                 <td>U/L</td>
                              </tr>
                              <tr>
                                 <td>Ketones [Presence] in Urine by Test strip</td>
                                 <td>Urine ketone test = +++</td>
                                 <td/>
                                 <td/>
                              </tr>
                           </tbody>
                        </table>
                     </div>
                  </text>
                  <entry>
                     <reference value="urn:uuid:1f3203fa-a1b1-4c00-85b7-1e0165dd6942"/>
                  </entry>
                  <entry>
                     <reference value="urn:uuid:39d60ec4-bb03-4063-9895-29eaa790d731"/>
                  </entry>
                  <entry>
                     <reference value="urn:uuid:552a8b33-7549-4779-af21-29948b4e2ec7"/>
                  </entry>
                  <entry>
                     <reference value="urn:uuid:deeb9b80-007a-4202-9ce0-15b05593b5eb"/>
                  </entry>
                  <entry>
                     <reference value="urn:uuid:7a8d771d-fb1a-490f-8f37-cd37c96618ff"/>
                  </entry>
                  <entry>
                     <reference value="urn:uuid:e3aca161-56c9-4414-83a8-d7c8d2e1c863"/>
                  </entry>
                  <entry>
                     <reference value="urn:uuid:0826a404-998c-4e06-aa04-5a5c086203d5"/>
                  </entry>
                  <entry>
                     <reference value="urn:uuid:00bb0df4-3077-4194-a6e4-8676f420d445"/>
                  </entry>
                  <entry>
                     <reference value="urn:uuid:8335e2f6-111d-4485-a553-b2d5ccb8358e"/>
                  </entry>
                  <entry>
                     <reference value="urn:uuid:28d01ec7-7274-4f39-98d2-e48d37bef3cb"/>
                  </entry>
                  <entry>
                     <reference value="urn:uuid:371d2972-1136-48d9-9614-10446da97a51"/>
                  </entry>
                  <entry>
                     <reference value="urn:uuid:31d859e2-fa0c-4c8c-b370-f2bd93645788"/>
                  </entry>
                  <entry>
                     <reference value="urn:uuid:59856852-33f5-4afe-9ef3-11dd09e1fb58"/>
                  </entry>
                  <entry>
                     <reference value="urn:uuid:e8456bd7-836c-431c-8748-45ba5ac53034"/>
                  </entry>
                  <entry>
                     <reference value="urn:uuid:fb964ab2-09d5-4f92-bbaf-71a55da420e1"/>
                  </entry>
                  <entry>
                     <reference value="urn:uuid:4a738c52-bf3c-4ae8-a91d-700d6756f09b"/>
                  </entry>
               </section>
               <section>
                  <title value="Urinalysis"/>
                  <code>
                     <coding>
                        <system value="http://loinc.org"/>
                        <code value="$18729-4"/>
                        <display value="Urinalysis studies (set)"/>
                     </coding>
                     <text value="Urinalysis"/>
                  </code>
                  <text>
                     <status value="generated"/>
                     <div xmlns="http://www.w3.org/1999/xhtml">
                        <h3>Urinalysis</h3>
                        <table class="hl7__eu__lab__report">
                           <thead>
                              <tr>
                                 <th>Test</th>
                                 <th>16-MAR-2016</th>
                                 <th>Reference Range</th>
                                 <th>Unit</th>
                              </tr>
                           </thead>
                           <tbody>
                              <tr>
                                 <td>Glucose [Mass/volume] in Urine by Test strip</td>
                                 <td>
                                    <strong>1.5 H</strong>
                                 </td>
                                 <td>0 - 0.8</td>
                                 <td>mg/dL</td>
                              </tr>
                              <tr>
                                 <td>Glucose [Presence] in Urine by Test strip</td>
                                 <td>++</td>
                                 <td/>
                                 <td/>
                              </tr>
                              <tr>
                                 <td>Bilirubin.total [Mass/volume] in Urine by Test strip</td>
                                 <td>0.2</td>
                                 <td>0 - 1</td>
                                 <td>mg/dL</td>
                              </tr>
                              <tr>
                                 <td>Bilirubin.total [Presence] in Urine by Test strip</td>
                                 <td>Finding of bilirubin in urine</td>
                                 <td/>
                                 <td/>
                              </tr>
                              <tr>
                                 <td>Ketones [Mass/volume] in Urine by Test strip</td>
                                 <td>
                                    <strong>4.4 H</strong>
                                 </td>
                                 <td>0 - 4</td>
                                 <td>mg/dL</td>
                              </tr>
                              <tr>
                                 <td>Specific gravity of Urine by Test strip</td>
                                 <td>
                                    <strong>1.0 L</strong>
                                 </td>
                                 <td>1.005 - 1.03</td>
                                 <td>{nominal}</td>
                              </tr>
                              <tr>
                                 <td>pH of Urine by Test strip</td>
                                 <td>6.6</td>
                                 <td>4.5 - 7</td>
                                 <td>pH</td>
                              </tr>
                              <tr>
                                 <td>Protein [Mass/volume] in Urine by Test strip</td>
                                 <td>
                                    <strong>421.1 H</strong>
                                 </td>
                                 <td>0 - 145</td>
                                 <td>mg/dL</td>
                              </tr>
                              <tr>
                                 <td>Protein [Presence] in Urine by Test strip</td>
                                 <td>Urine protein test = +++</td>
                                 <td/>
                                 <td/>
                              </tr>
                              <tr>
                                 <td>Nitrite [Presence] in Urine by Test strip</td>
                                 <td>Urine nitrite negative</td>
                                 <td/>
                                 <td/>
                              </tr>
                              <tr>
                                 <td>Hemoglobin [Presence] in Urine by Test strip</td>
                                 <td>Urine blood test = negative</td>
                                 <td/>
                                 <td/>
                              </tr>
                              <tr>
                                 <td>Leukocyte esterase [Presence] in Urine by Test strip</td>
                                 <td>Urine leukocyte test negative</td>
                                 <td/>
                                 <td/>
                              </tr>
                           </tbody>
                        </table>
                     </div>
                  </text>
                  <entry>
                     <reference value="urn:uuid:547bee97-4652-4e00-8a81-661b63c16f52"/>
                  </entry>
                  <entry>
                     <reference value="urn:uuid:0192e163-44ab-4847-9d7a-22c6ff192265"/>
                  </entry>
                  <entry>
                     <reference value="urn:uuid:0e5dacc2-6df4-412c-9e28-551c058d4ef5"/>
                  </entry>
                  <entry>
                     <reference value="urn:uuid:58410cdd-34b1-47c8-8b2e-55b9142f377f"/>
                  </entry>
                  <entry>
                     <reference value="urn:uuid:b4e60b2d-16c2-42f6-8f73-3376c9f0ceaa"/>
                  </entry>
                  <entry>
                     <reference value="urn:uuid:2b523963-d78e-46e8-a667-fb75cec1f33b"/>
                  </entry>
                  <entry>
                     <reference value="urn:uuid:8bac652d-2fdb-4020-aa41-323e256c3974"/>
                  </entry>
                  <entry>
                     <reference value="urn:uuid:85d20559-96ba-4876-b744-302bc83fdb44"/>
                  </entry>
                  <entry>
                     <reference value="urn:uuid:74cdb337-83b8-4e9a-92ea-f553410c041e"/>
                  </entry>
                  <entry>
                     <reference value="urn:uuid:464691aa-fffe-4b6b-91ff-15233a1ccf7a"/>
                  </entry>
                  <entry>
                     <reference value="urn:uuid:c2236970-4154-47ff-80a8-c5ae9e4e6923"/>
                  </entry>
                  <entry>
                     <reference value="urn:uuid:fa4c8a27-6aba-418f-b8b9-5f64c00a807e"/>
                  </entry>
               </section>
               <section>
                  <title value="Specimen information"/>
                  <code>
                     <coding>
                        <system value="http://loinc.org"/>
                        <code value="$LP7846-1"/>
                        <display value="Specimen information"/>
                     </coding>
                     <text value="Specimen information"/>
                  </code>
                  <text>
                     <status value="generated"/>
                     <div xmlns="http://www.w3.org/1999/xhtml">
                        <h3>Specimen information</h3>
                        <table class="hl7__eu__lab__report">
                           <thead>
                              <tr>
                                 <th>Test</th>
                                 <th>16-MAR-2016</th>
                                 <th>Specimen</th>
                                 <th/>
                              </tr>
                           </thead>
                           <tbody>
                              <tr>
                                 <td>Appearance of Urine</td>
                                 <td>Cloudy urine</td>
                                 <td>Urine</td>
                                 <td/>
                              </tr>
                              <tr>
                                 <td>Odor of Urine</td>
                                 <td>Urine smell ammoniacal</td>
                                 <td>Urine</td>
                                 <td/>
                              </tr>
                              <tr>
                                 <td>Clarity of Urine</td>
                                 <td>Translucent</td>
                                 <td>Urine</td>
                                 <td/>
                              </tr>
                              <tr>
                                 <td>Color of Urine</td>
                                 <td>Brown color</td>
                                 <td>Urine</td>
                                 <td/>
                              </tr>
                           </tbody>
                        </table>
                     </div>
                  </text>
                  <entry>
                     <reference value="urn:uuid:c36f1dd5-389c-48da-922a-d9a28bfac410"/>
                  </entry>
                  <entry>
                     <reference value="urn:uuid:0a5ad13c-9cac-4f19-aaa0-8ade47b586dc"/>
                  </entry>
                  <entry>
                     <reference value="urn:uuid:722326cf-64da-4509-b10c-bdcbe400f575"/>
                  </entry>
                  <entry>
                     <reference value="urn:uuid:6b66d623-f233-4794-aa61-d57386dacfae"/>
                  </entry>
               </section>
            </section>
            <section>
               <title value="Annotation comment"/>
               <code>
                  <coding>
                     <system value="http://loinc.org"/>
                     <code value="48767-8"/>
                     <display value="Annotation comment"/>
                  </coding>
               </code>
               <text>
                  <status value="generated"/>
                  <div xmlns="http://www.w3.org/1999/xhtml">
                     <h3>Annotation</h3>
                     <table class="hl7__eu__lab__report">
                        <tr>
                           <th>Conclusion and Recommendations based on this report and previous findings known to us</th>
                        </tr>
                        <tr>
                           <td>The patient shows elevated serum creatinine, proteinuria, glucosuria, and ketonuria, suggesting impaired renal function with possible nephrotic-range protein loss and glycosuria not explained by hyperglycemia. Urine is cloudy, brown, and dilute. No evidence of urinary tract infection or hematuria. Findings are consistent with significant renal impairment; further nephrological evaluation is recommended.</td>
                        </tr>
                     </table>
                  </div>
               </text>
            </section>
         </Composition>
      </resource>
   </entry>
   <entry>
      <fullUrl value="urn:uuid:5300c24c-305e-4f20-9276-15315f78fab0"/>
      <resource>
         <DiagnosticReport>
            <id value="5300c24c-305e-4f20-9276-15315f78fab0"/>
            <meta>
               <profile value="http://hl7.eu/fhir/laboratory/StructureDefinition/DiagnosticReport-eu-lab"/>
            </meta>
            <extension url="http://hl7.org/fhir/5.0/StructureDefinition/extension-DiagnosticReport.composition">
               <valueReference>
                  <reference value="urn:uuid:d2ff5a93-5a57-48ab-af46-15a0f2080cfb"/>
               </valueReference>
            </extension>
            <identifier>
               <system value="urn:oid:2.16.840.1.113883.2.51.999"/>
               <value value="fd8dc501-5c3e-456a-94f3-3e653e36dae6"/>
               <assigner>
                  <display value="HL7 Europe"/>
               </assigner>
            </identifier>
            <status value="registered"/>
            <category>
               <coding>
                  <system value="http://loinc.org"/>
                  <code value="26436-6"/>
                  <display value="Laboratory studies (set)"/>
               </coding>
            </category>
            <code>
               <coding>
                  <system value="http://loinc.org"/>
                  <code value="11502-2"/>
                  <display value="Laboratory report"/>
               </coding>
            </code>
            <subject>
               <reference value="urn:uuid:d82a0be7-57fe-4215-9b35-4176cae274b1"/>
               <display value="Iva Kratochvílová"/>
            </subject>
            <specimen>
               <reference value="urn:uuid:00d63368-2acb-4a3e-9415-c9f4cd62ac1a"/>
            </specimen>
            <specimen>
               <reference value="urn:uuid:bf4dd7c1-9e30-47d8-94b2-fab56ea2d2e0"/>
            </specimen>
            <specimen>
               <reference value="urn:uuid:4a072fd1-7a81-47cc-8386-4ca7a627dd2c"/>
            </specimen>
            <specimen>
               <reference value="urn:uuid:09a0d300-a1d6-4077-9f4a-e85ad70d9437"/>
            </specimen>
            <result>
               <reference value="urn:uuid:1f3203fa-a1b1-4c00-85b7-1e0165dd6942"/>
            </result>
            <result>
               <reference value="urn:uuid:39d60ec4-bb03-4063-9895-29eaa790d731"/>
            </result>
            <result>
               <reference value="urn:uuid:552a8b33-7549-4779-af21-29948b4e2ec7"/>
            </result>
            <result>
               <reference value="urn:uuid:deeb9b80-007a-4202-9ce0-15b05593b5eb"/>
            </result>
            <result>
               <reference value="urn:uuid:7a8d771d-fb1a-490f-8f37-cd37c96618ff"/>
            </result>
            <result>
               <reference value="urn:uuid:e3aca161-56c9-4414-83a8-d7c8d2e1c863"/>
            </result>
            <result>
               <reference value="urn:uuid:0826a404-998c-4e06-aa04-5a5c086203d5"/>
            </result>
            <result>
               <reference value="urn:uuid:00bb0df4-3077-4194-a6e4-8676f420d445"/>
            </result>
            <result>
               <reference value="urn:uuid:8335e2f6-111d-4485-a553-b2d5ccb8358e"/>
            </result>
            <result>
               <reference value="urn:uuid:28d01ec7-7274-4f39-98d2-e48d37bef3cb"/>
            </result>
            <result>
               <reference value="urn:uuid:371d2972-1136-48d9-9614-10446da97a51"/>
            </result>
            <result>
               <reference value="urn:uuid:31d859e2-fa0c-4c8c-b370-f2bd93645788"/>
            </result>
            <result>
               <reference value="urn:uuid:59856852-33f5-4afe-9ef3-11dd09e1fb58"/>
            </result>
            <result>
               <reference value="urn:uuid:e8456bd7-836c-431c-8748-45ba5ac53034"/>
            </result>
            <result>
               <reference value="urn:uuid:fb964ab2-09d5-4f92-bbaf-71a55da420e1"/>
            </result>
            <result>
               <reference value="urn:uuid:c36f1dd5-389c-48da-922a-d9a28bfac410"/>
            </result>
            <result>
               <reference value="urn:uuid:0a5ad13c-9cac-4f19-aaa0-8ade47b586dc"/>
            </result>
            <result>
               <reference value="urn:uuid:722326cf-64da-4509-b10c-bdcbe400f575"/>
            </result>
            <result>
               <reference value="urn:uuid:6b66d623-f233-4794-aa61-d57386dacfae"/>
            </result>
            <result>
               <reference value="urn:uuid:547bee97-4652-4e00-8a81-661b63c16f52"/>
            </result>
            <result>
               <reference value="urn:uuid:0192e163-44ab-4847-9d7a-22c6ff192265"/>
            </result>
            <result>
               <reference value="urn:uuid:0e5dacc2-6df4-412c-9e28-551c058d4ef5"/>
            </result>
            <result>
               <reference value="urn:uuid:58410cdd-34b1-47c8-8b2e-55b9142f377f"/>
            </result>
            <result>
               <reference value="urn:uuid:b4e60b2d-16c2-42f6-8f73-3376c9f0ceaa"/>
            </result>
            <result>
               <reference value="urn:uuid:4a738c52-bf3c-4ae8-a91d-700d6756f09b"/>
            </result>
            <result>
               <reference value="urn:uuid:2b523963-d78e-46e8-a667-fb75cec1f33b"/>
            </result>
            <result>
               <reference value="urn:uuid:8bac652d-2fdb-4020-aa41-323e256c3974"/>
            </result>
            <result>
               <reference value="urn:uuid:85d20559-96ba-4876-b744-302bc83fdb44"/>
            </result>
            <result>
               <reference value="urn:uuid:74cdb337-83b8-4e9a-92ea-f553410c041e"/>
            </result>
            <result>
               <reference value="urn:uuid:464691aa-fffe-4b6b-91ff-15233a1ccf7a"/>
            </result>
            <result>
               <reference value="urn:uuid:c2236970-4154-47ff-80a8-c5ae9e4e6923"/>
            </result>
            <result>
               <reference value="urn:uuid:fa4c8a27-6aba-418f-b8b9-5f64c00a807e"/>
            </result>
         </DiagnosticReport>
      </resource>
   </entry>
   <entry>
      <fullUrl value="urn:uuid:d82a0be7-57fe-4215-9b35-4176cae274b1"/>
      <resource>
         <Patient>
            <id value="d82a0be7-57fe-4215-9b35-4176cae274b1"/>
            <meta>
               <profile value="http://hl7.eu/fhir/base/StructureDefinition/patient-eu-core"/>
               <security>
                  <system value="http://terminology.hl7.org/CodeSystem/v3-ActReason"/>
                  <code value="HTEST"/>
               </security>
               <security>
                  <system value="http://terminology.hl7.org/CodeSystem/v3-ActReason"/>
                  <code value="TRAIN"/>
               </security>
               <tag>
                  <system value="https://synderai.net/fhir/CodeSystem/tags"/>
                  <code value="synthetic"/>
                  <display value="SYNDERAI Synthetic data"/>
               </tag>
            </meta>
            <text>
               <status value="generated"/>
               <div xmlns="http://www.w3.org/1999/xhtml">
                  <table class="hl7__ips">
                     <tr>
                        <td>Iva Kratochvílová</td>
                        <td>female</td>
                        <td>17-Sep-1964</td>
                     </tr>
                  </table>
               </div>
            </text>
            <extension url="http://hl7.org/fhir/StructureDefinition/patient-nationality">
               <valueCodeableConcept>
                  <coding>
                     <system value="http://hl7.org/fhir/ValueSet/country"/>
                     <code value="CZ"/>
                  </coding>
               </valueCodeableConcept>
            </extension>
            <identifier>
               <type>
                  <coding>
                     <system value="http://terminology.hl7.org/CodeSystem/v2-0203"/>
                     <code value="PT"/>
                  </coding>
               </type>
               <system value="http://ec.europa.eu/identifier/eci"/>
               <value value="4380-389488-0"/>
            </identifier>
            <identifier>
               <type>
                  <coding>
                     <system value="http://terminology.hl7.org/CodeSystem/v2-0203"/>
                     <code value="MR"/>
                  </coding>
               </type>
               <system value="http://local.setting.eu/identifier"/>
               <value value="f8f9ebdc-03dd-2fc0-819c-affa4ffd7f67"/>
            </identifier>
            <name>
               <family value="Kratochvílová"/>
            </name>
            <name>
               <given value="Iva"/>
            </name>
            <name>
               <text value="Iva Kratochvílová"/>
            </name>
            <telecom>
               <system value="phone"/>
               <value value="00420 607 985 072"/>
            </telecom>
            <gender value="female"/>
            <birthDate value="1964-09-17"/>
            <address>
               <use value="home"/>
               <type value="physical"/>
               <line value="Žofie Podlipské 4"/>
               <city value="Postoloprty"/>
               <postalCode value="27324"/>
               <country value="Czechia"/>
            </address>
         </Patient>
      </resource>
   </entry>
   <entry>
      <fullUrl value="urn:uuid:39806038-e9e8-4ab4-acb3-5fa858341fb1"/>
      <resource>
         <ServiceRequest>
            <id value="39806038-e9e8-4ab4-acb3-5fa858341fb1"/>
            <meta>
               <profile value="http://hl7.eu/fhir/laboratory/StructureDefinition/ServiceRequest-eu-lab"/>
            </meta>
            <identifier>
               <system value="http://example.org"/>
               <value value="65ae6275-20a8-41c0-898e-6745d0509bf2"/>
            </identifier>
            <status value="active"/>
            <intent value="order"/>
            <code>
               <coding>
                  <system value="http://snomed.info/sct"/>
                  <code value="108252007"/>
                  <display value="Laboratory procedure"/>
               </coding>
            </code>
            <subject>
               <reference value="urn:uuid:d82a0be7-57fe-4215-9b35-4176cae274b1"/>
               <display value="Iva Kratochvílová"/>
            </subject>
            <requester>
               <reference value="urn:uuid:4836ede7-d9a8-408d-a732-051c47a7855e"/>
            </requester>
            <reasonCode>
               <coding>
                  <system value="http://snomed.info/sct"/>
                  <code value="431856006"/>
                  <display value="Chronic kidney disease stage 2"/>
               </coding>
            </reasonCode>
            <reasonCode>
               <coding>
                  <system value="http://snomed.info/sct"/>
                  <code value="431855005"/>
                  <display value="Chronic kidney disease stage 1"/>
               </coding>
            </reasonCode>
            <reasonCode>
               <coding>
                  <system value="http://snomed.info/sct"/>
                  <code value="237602007"/>
                  <display value="Metabolic syndrome X"/>
               </coding>
            </reasonCode>
            <reasonCode>
               <coding>
                  <system value="http://snomed.info/sct"/>
                  <code value="91302008"/>
                  <display value="Sepsis"/>
               </coding>
            </reasonCode>
            <reasonCode>
               <coding>
                  <system value="http://snomed.info/sct"/>
                  <code value="271737000"/>
                  <display value="Anemia"/>
               </coding>
            </reasonCode>
            <reasonCode>
               <coding>
                  <system value="http://snomed.info/sct"/>
                  <code value="15777000"/>
                  <display value="Prediabetes"/>
               </coding>
            </reasonCode>
            <reasonCode>
               <coding>
                  <system value="http://snomed.info/sct"/>
                  <code value="157141000119108"/>
                  <display value="Proteinuria due to type 2 diabetes mellitus"/>
               </coding>
            </reasonCode>
            <reasonCode>
               <coding>
                  <system value="http://snomed.info/sct"/>
                  <code value="90781000119102"/>
                  <display value="Microalbuminuria due to type 2 diabetes mellitus"/>
               </coding>
            </reasonCode>
            <reasonCode>
               <coding>
                  <system value="http://snomed.info/sct"/>
                  <code value="239872002"/>
                  <display value="Osteoarthritis of hip"/>
               </coding>
            </reasonCode>
            <reasonCode>
               <coding>
                  <system value="http://snomed.info/sct"/>
                  <code value="40055000"/>
                  <display value="Chronic sinusitis"/>
               </coding>
            </reasonCode>
            <reasonCode>
               <coding>
                  <system value="http://snomed.info/sct"/>
                  <code value="127013003"/>
                  <display value="Disorder of kidney due to diabetes mellitus"/>
               </coding>
            </reasonCode>
            <reasonCode>
               <coding>
                  <system value="http://snomed.info/sct"/>
                  <code value="59621000"/>
                  <display value="Essential hypertension"/>
               </coding>
            </reasonCode>
            <specimen>
               <reference value="urn:uuid:00d63368-2acb-4a3e-9415-c9f4cd62ac1a"/>
            </specimen>
            <specimen>
               <reference value="urn:uuid:bf4dd7c1-9e30-47d8-94b2-fab56ea2d2e0"/>
            </specimen>
            <specimen>
               <reference value="urn:uuid:4a072fd1-7a81-47cc-8386-4ca7a627dd2c"/>
            </specimen>
            <specimen>
               <reference value="urn:uuid:09a0d300-a1d6-4077-9f4a-e85ad70d9437"/>
            </specimen>
         </ServiceRequest>
      </resource>
   </entry>
   <entry>
      <fullUrl value="urn:uuid:4836ede7-d9a8-408d-a732-051c47a7855e"/>
      <resource>
         <PractitionerRole>
            <id value="4836ede7-d9a8-408d-a732-051c47a7855e"/>
            <meta>
               <profile value="http://hl7.eu/fhir/base/StructureDefinition/practitionerRole-eu"/>
            </meta>
            <text>
               <status value="generated"/>
               <div xmlns="http://www.w3.org/1999/xhtml">Provider Role Id: 4836ede7-d9a8-408d-a732-051c47a7855e</div>
            </text>
            <organization>
               <reference value="urn:uuid:daa3e136-4af0-40ee-9228-a8f29474d53e"/>
            </organization>
         </PractitionerRole>
      </resource>
   </entry>
   <entry>
      <fullUrl value="urn:uuid:daa3e136-4af0-40ee-9228-a8f29474d53e"/>
      <resource>
         <Organization>
            <id value="daa3e136-4af0-40ee-9228-a8f29474d53e"/>
            <meta>
               <profile value="http://hl7.eu/fhir/base/StructureDefinition/organization-eu"/>
            </meta>
            <text>
               <status value="generated"/>
               <div xmlns="http://www.w3.org/1999/xhtml">Provider Organization: Nemocnice s poliklinikou Kadaň</div>
            </text>
            <identifier>
               <system value="urn:oid:2.16.840.1.113883.2.51.999"/>
               <value value="51f95ef5-5d73-4c7e-9ecf-1d959952ae21"/>
               <assigner>
                  <display value="HL7 Europe"/>
               </assigner>
            </identifier>
            <name value="Nemocnice s poliklinikou Kadaň"/>
            <address>
               <city value="Kadaň"/>
               <postalCode value="432 01"/>
               <country value="Czechia"/>
            </address>
         </Organization>
      </resource>
   </entry>
   <entry>
      <fullUrl value="urn:uuid:00d63368-2acb-4a3e-9415-c9f4cd62ac1a"/>
      <resource>
         <Specimen>
            <id value="00d63368-2acb-4a3e-9415-c9f4cd62ac1a"/>
            <meta>
               <profile value="http://hl7.eu/fhir/laboratory/StructureDefinition/Specimen-eu-lab"/>
            </meta>
            <text>
               <status value="generated"/>
               <div xmlns="http://www.w3.org/1999/xhtml">
                  <table class="hl7__eu__lab__report">
                     <tr>
                        <th>Specimen</th>
                        <th>Collection Date</th>
                     </tr>
                     <tr>
                        <td>Whole blood specimen (specimen)</td>
                        <td>
                           <span class="nb">16-Mar-2016</span>
                        </td>
                     </tr>
                  </table>
               </div>
            </text>
            <type>
               <coding>
                  <system value="http://snomed.info/sct"/>
                  <code value="258580003"/>
                  <display value="Whole blood specimen (specimen)"/>
               </coding>
            </type>
            <collection>
               <collectedDateTime value="2016-03-16"/>
            </collection>
         </Specimen>
      </resource>
   </entry>
   <entry>
      <fullUrl value="urn:uuid:bf4dd7c1-9e30-47d8-94b2-fab56ea2d2e0"/>
      <resource>
         <Specimen>
            <id value="bf4dd7c1-9e30-47d8-94b2-fab56ea2d2e0"/>
            <meta>
               <profile value="http://hl7.eu/fhir/laboratory/StructureDefinition/Specimen-eu-lab"/>
            </meta>
            <text>
               <status value="generated"/>
               <div xmlns="http://www.w3.org/1999/xhtml">
                  <table class="hl7__eu__lab__report">
                     <tr>
                        <th>Specimen</th>
                        <th>Collection Date</th>
                     </tr>
                     <tr>
                        <td>Acellular blood (serum or plasma) specimen</td>
                        <td>
                           <span class="nb">16-Mar-2016</span>
                        </td>
                     </tr>
                  </table>
               </div>
            </text>
            <type>
               <coding>
                  <system value="http://snomed.info/sct"/>
                  <code value="122592007"/>
                  <display value="Acellular blood (serum or plasma) specimen"/>
               </coding>
            </type>
            <collection>
               <collectedDateTime value="2016-03-16"/>
            </collection>
         </Specimen>
      </resource>
   </entry>
   <entry>
      <fullUrl value="urn:uuid:4a072fd1-7a81-47cc-8386-4ca7a627dd2c"/>
      <resource>
         <Specimen>
            <id value="4a072fd1-7a81-47cc-8386-4ca7a627dd2c"/>
            <meta>
               <profile value="http://hl7.eu/fhir/laboratory/StructureDefinition/Specimen-eu-lab"/>
            </meta>
            <text>
               <status value="generated"/>
               <div xmlns="http://www.w3.org/1999/xhtml">
                  <table class="hl7__eu__lab__report">
                     <tr>
                        <th>Specimen</th>
                        <th>Collection Date</th>
                     </tr>
                     <tr>
                        <td>Serum specimen</td>
                        <td>
                           <span class="nb">16-Mar-2016</span>
                        </td>
                     </tr>
                  </table>
               </div>
            </text>
            <type>
               <coding>
                  <system value="http://snomed.info/sct"/>
                  <code value="119364003"/>
                  <display value="Serum specimen"/>
               </coding>
            </type>
            <collection>
               <collectedDateTime value="2016-03-16"/>
            </collection>
         </Specimen>
      </resource>
   </entry>
   <entry>
      <fullUrl value="urn:uuid:09a0d300-a1d6-4077-9f4a-e85ad70d9437"/>
      <resource>
         <Specimen>
            <id value="09a0d300-a1d6-4077-9f4a-e85ad70d9437"/>
            <meta>
               <profile value="http://hl7.eu/fhir/laboratory/StructureDefinition/Specimen-eu-lab"/>
            </meta>
            <text>
               <status value="generated"/>
               <div xmlns="http://www.w3.org/1999/xhtml">
                  <table class="hl7__eu__lab__report">
                     <tr>
                        <th>Specimen</th>
                        <th>Collection Date</th>
                     </tr>
                     <tr>
                        <td>Urine specimen</td>
                        <td>
                           <span class="nb">16-Mar-2016</span>
                        </td>
                     </tr>
                  </table>
               </div>
            </text>
            <type>
               <coding>
                  <system value="http://snomed.info/sct"/>
                  <code value="122575003"/>
                  <display value="Urine specimen"/>
               </coding>
            </type>
            <collection>
               <collectedDateTime value="2016-03-16"/>
            </collection>
         </Specimen>
      </resource>
   </entry>
   <entry>
      <fullUrl value="urn:uuid:1f3203fa-a1b1-4c00-85b7-1e0165dd6942"/>
      <resource>
         <Observation>
            <id value="1f3203fa-a1b1-4c00-85b7-1e0165dd6942"/>
            <meta>
               <profile value="http://hl7.eu/fhir/laboratory/StructureDefinition/Observation-resultslab-eu-lab"/>
            </meta>
            <text>
               <status value="generated"/>
               <div xmlns="http://www.w3.org/1999/xhtml">
                  <table class="hl7__eu__lab__report">
                     <tr>
                        <th>Test</th>
                        <th>16-Mar-2016</th>
                        <th>Reference Range</th>
                        <th>Unit</th>
                     </tr>
                     <tr>
                        <td>Glucose [Mass/volume] in Blood</td>
                        <td>88.5</td>
                        <td>70 - 140</td>
                        <td/>
                        <td>mg/dL</td>
                     </tr>
                  </table>
               </div>
            </text>
            <status value="final"/>
            <category>
               <coding>
                  <system value="http://terminology.hl7.org/CodeSystem/observation-category"/>
                  <code value="laboratory"/>
               </coding>
            </category>
            <code>
               <coding>
                  <system value="http://loinc.org"/>
                  <code value="2339-0"/>
                  <display value="Glucose [Mass/volume] in Blood"/>
               </coding>
               <text value="Glucose [Mass/volume] in Blood"/>
            </code>
            <subject>
               <reference value="urn:uuid:d82a0be7-57fe-4215-9b35-4176cae274b1"/>
               <display value="Iva Kratochvílová"/>
            </subject>
            <effectiveDateTime value="2016-03-16T06:19:29Z"/>
            <performer>
               <display value="The Central European Lab"/>
            </performer>
            <valueQuantity>
               <value value="88.5"/>
               <unit value="mg/dL"/>
               <system value="http://unitsofmeasure.org"/>
               <code value="mg/dL"/>
            </valueQuantity>
            <specimen>
               <reference value="urn:uuid:00d63368-2acb-4a3e-9415-c9f4cd62ac1a"/>
            </specimen>
            <referenceRange>
               <low>
                  <value value="70"/>
                  <system value="http://unitsofmeasure.org"/>
                  <code value="mg/dL"/>
               </low>
            </referenceRange>
            <referenceRange>
               <high>
                  <value value="140"/>
                  <system value="http://unitsofmeasure.org"/>
                  <code value="mg/dL"/>
               </high>
            </referenceRange>
         </Observation>
      </resource>
   </entry>
   <entry>
      <fullUrl value="urn:uuid:39d60ec4-bb03-4063-9895-29eaa790d731"/>
      <resource>
         <Observation>
            <id value="39d60ec4-bb03-4063-9895-29eaa790d731"/>
            <meta>
               <profile value="http://hl7.eu/fhir/laboratory/StructureDefinition/Observation-resultslab-eu-lab"/>
            </meta>
            <text>
               <status value="generated"/>
               <div xmlns="http://www.w3.org/1999/xhtml">
                  <table class="hl7__eu__lab__report">
                     <tr>
                        <th>Test</th>
                        <th>16-Mar-2016</th>
                        <th>Reference Range</th>
                        <th>Unit</th>
                     </tr>
                     <tr>
                        <td>Urea nitrogen [Mass/volume] in Blood</td>
                        <td>11.7</td>
                        <td>7 - 25</td>
                        <td/>
                        <td>mg/dL</td>
                     </tr>
                  </table>
               </div>
            </text>
            <status value="final"/>
            <category>
               <coding>
                  <system value="http://terminology.hl7.org/CodeSystem/observation-category"/>
                  <code value="laboratory"/>
               </coding>
            </category>
            <code>
               <coding>
                  <system value="http://loinc.org"/>
                  <code value="6299-2"/>
                  <display value="Urea nitrogen [Mass/volume] in Blood"/>
               </coding>
               <text value="Urea nitrogen [Mass/volume] in Blood"/>
            </code>
            <subject>
               <reference value="urn:uuid:d82a0be7-57fe-4215-9b35-4176cae274b1"/>
               <display value="Iva Kratochvílová"/>
            </subject>
            <effectiveDateTime value="2016-03-16T06:19:29Z"/>
            <performer>
               <display value="The Central European Lab"/>
            </performer>
            <valueQuantity>
               <value value="11.7"/>
               <unit value="mg/dL"/>
               <system value="http://unitsofmeasure.org"/>
               <code value="mg/dL"/>
            </valueQuantity>
            <specimen>
               <reference value="urn:uuid:00d63368-2acb-4a3e-9415-c9f4cd62ac1a"/>
            </specimen>
            <referenceRange>
               <low>
                  <value value="7"/>
                  <system value="http://unitsofmeasure.org"/>
                  <code value="mg/dL"/>
               </low>
            </referenceRange>
            <referenceRange>
               <high>
                  <value value="25"/>
                  <system value="http://unitsofmeasure.org"/>
                  <code value="mg/dL"/>
               </high>
            </referenceRange>
         </Observation>
      </resource>
   </entry>
   <entry>
      <fullUrl value="urn:uuid:552a8b33-7549-4779-af21-29948b4e2ec7"/>
      <resource>
         <Observation>
            <id value="552a8b33-7549-4779-af21-29948b4e2ec7"/>
            <meta>
               <profile value="http://hl7.eu/fhir/laboratory/StructureDefinition/Observation-resultslab-eu-lab"/>
            </meta>
            <text>
               <status value="generated"/>
               <div xmlns="http://www.w3.org/1999/xhtml">
                  <table class="hl7__eu__lab__report">
                     <tr>
                        <th>Test</th>
                        <th>16-Mar-2016</th>
                        <th>Reference Range</th>
                        <th>Unit</th>
                     </tr>
                     <tr>
                        <td>Creatinine [Mass/volume] in Blood</td>
                        <td>2.5</td>
                        <td>0.6 - 1.1</td>
                        <td>H</td>
                        <td>mg/dL</td>
                     </tr>
                  </table>
               </div>
            </text>
            <status value="final"/>
            <category>
               <coding>
                  <system value="http://terminology.hl7.org/CodeSystem/observation-category"/>
                  <code value="laboratory"/>
               </coding>
            </category>
            <code>
               <coding>
                  <system value="http://loinc.org"/>
                  <code value="38483-4"/>
                  <display value="Creatinine [Mass/volume] in Blood"/>
               </coding>
               <text value="Creatinine [Mass/volume] in Blood"/>
            </code>
            <subject>
               <reference value="urn:uuid:d82a0be7-57fe-4215-9b35-4176cae274b1"/>
               <display value="Iva Kratochvílová"/>
            </subject>
            <effectiveDateTime value="2016-03-16T06:19:29Z"/>
            <performer>
               <display value="The Central European Lab"/>
            </performer>
            <valueQuantity>
               <value value="2.5"/>
               <unit value="mg/dL"/>
               <system value="http://unitsofmeasure.org"/>
               <code value="mg/dL"/>
            </valueQuantity>
            <interpretation>
               <coding>
                  <system value="http://terminology.hl7.org/CodeSystem/v3-ObservationInterpretation"/>
                  <code value="H"/>
                  <display value="High"/>
               </coding>
            </interpretation>
            <specimen>
               <reference value="urn:uuid:00d63368-2acb-4a3e-9415-c9f4cd62ac1a"/>
            </specimen>
            <referenceRange>
               <low>
                  <value value="0.6"/>
                  <system value="http://unitsofmeasure.org"/>
                  <code value="mg/dL"/>
               </low>
            </referenceRange>
            <referenceRange>
               <high>
                  <value value="1.1"/>
                  <system value="http://unitsofmeasure.org"/>
                  <code value="mg/dL"/>
               </high>
            </referenceRange>
         </Observation>
      </resource>
   </entry>
   <entry>
      <fullUrl value="urn:uuid:deeb9b80-007a-4202-9ce0-15b05593b5eb"/>
      <resource>
         <Observation>
            <id value="deeb9b80-007a-4202-9ce0-15b05593b5eb"/>
            <meta>
               <profile value="http://hl7.eu/fhir/laboratory/StructureDefinition/Observation-resultslab-eu-lab"/>
            </meta>
            <text>
               <status value="generated"/>
               <div xmlns="http://www.w3.org/1999/xhtml">
                  <table class="hl7__eu__lab__report">
                     <tr>
                        <th>Test</th>
                        <th>16-Mar-2016</th>
                        <th>Reference Range</th>
                        <th>Unit</th>
                     </tr>
                     <tr>
                        <td>Calcium [Mass/volume] in Blood</td>
                        <td>9.0</td>
                        <td>8.6 - 10.4</td>
                        <td/>
                        <td>mg/dL</td>
                     </tr>
                  </table>
               </div>
            </text>
            <status value="final"/>
            <category>
               <coding>
                  <system value="http://terminology.hl7.org/CodeSystem/observation-category"/>
                  <code value="laboratory"/>
               </coding>
            </category>
            <code>
               <coding>
                  <system value="http://loinc.org"/>
                  <code value="49765-1"/>
                  <display value="Calcium [Mass/volume] in Blood"/>
               </coding>
               <text value="Calcium [Mass/volume] in Blood"/>
            </code>
            <subject>
               <reference value="urn:uuid:d82a0be7-57fe-4215-9b35-4176cae274b1"/>
               <display value="Iva Kratochvílová"/>
            </subject>
            <effectiveDateTime value="2016-03-16T06:19:29Z"/>
            <performer>
               <display value="The Central European Lab"/>
            </performer>
            <valueQuantity>
               <value value="9"/>
               <unit value="mg/dL"/>
               <system value="http://unitsofmeasure.org"/>
               <code value="mg/dL"/>
            </valueQuantity>
            <specimen>
               <reference value="urn:uuid:00d63368-2acb-4a3e-9415-c9f4cd62ac1a"/>
            </specimen>
            <referenceRange>
               <low>
                  <value value="8.6"/>
                  <system value="http://unitsofmeasure.org"/>
                  <code value="mg/dL"/>
               </low>
            </referenceRange>
            <referenceRange>
               <high>
                  <value value="10.4"/>
                  <system value="http://unitsofmeasure.org"/>
                  <code value="mg/dL"/>
               </high>
            </referenceRange>
         </Observation>
      </resource>
   </entry>
   <entry>
      <fullUrl value="urn:uuid:7a8d771d-fb1a-490f-8f37-cd37c96618ff"/>
      <resource>
         <Observation>
            <id value="7a8d771d-fb1a-490f-8f37-cd37c96618ff"/>
            <meta>
               <profile value="http://hl7.eu/fhir/laboratory/StructureDefinition/Observation-resultslab-eu-lab"/>
            </meta>
            <text>
               <status value="generated"/>
               <div xmlns="http://www.w3.org/1999/xhtml">
                  <table class="hl7__eu__lab__report">
                     <tr>
                        <th>Test</th>
                        <th>16-Mar-2016</th>
                        <th>Reference Range</th>
                        <th>Unit</th>
                     </tr>
                     <tr>
                        <td>Sodium [Moles/volume] in Blood</td>
                        <td>139.5</td>
                        <td>135 - 145</td>
                        <td/>
                        <td>mmol/L</td>
                     </tr>
                  </table>
               </div>
            </text>
            <status value="final"/>
            <category>
               <coding>
                  <system value="http://terminology.hl7.org/CodeSystem/observation-category"/>
                  <code value="laboratory"/>
               </coding>
            </category>
            <code>
               <coding>
                  <system value="http://loinc.org"/>
                  <code value="2947-0"/>
                  <display value="Sodium [Moles/volume] in Blood"/>
               </coding>
               <text value="Sodium [Moles/volume] in Blood"/>
            </code>
            <subject>
               <reference value="urn:uuid:d82a0be7-57fe-4215-9b35-4176cae274b1"/>
               <display value="Iva Kratochvílová"/>
            </subject>
            <effectiveDateTime value="2016-03-16T06:19:29Z"/>
            <performer>
               <display value="The Central European Lab"/>
            </performer>
            <valueQuantity>
               <value value="139.5"/>
               <unit value="mmol/L"/>
               <system value="http://unitsofmeasure.org"/>
               <code value="mmol/L"/>
            </valueQuantity>
            <specimen>
               <reference value="urn:uuid:00d63368-2acb-4a3e-9415-c9f4cd62ac1a"/>
            </specimen>
            <referenceRange>
               <low>
                  <value value="135"/>
                  <system value="http://unitsofmeasure.org"/>
                  <code value="mmol/L"/>
               </low>
            </referenceRange>
            <referenceRange>
               <high>
                  <value value="145"/>
                  <system value="http://unitsofmeasure.org"/>
                  <code value="mmol/L"/>
               </high>
            </referenceRange>
         </Observation>
      </resource>
   </entry>
   <entry>
      <fullUrl value="urn:uuid:e3aca161-56c9-4414-83a8-d7c8d2e1c863"/>
      <resource>
         <Observation>
            <id value="e3aca161-56c9-4414-83a8-d7c8d2e1c863"/>
            <meta>
               <profile value="http://hl7.eu/fhir/laboratory/StructureDefinition/Observation-resultslab-eu-lab"/>
            </meta>
            <text>
               <status value="generated"/>
               <div xmlns="http://www.w3.org/1999/xhtml">
                  <table class="hl7__eu__lab__report">
                     <tr>
                        <th>Test</th>
                        <th>16-Mar-2016</th>
                        <th>Reference Range</th>
                        <th>Unit</th>
                     </tr>
                     <tr>
                        <td>Potassium [Moles/volume] in Blood</td>
                        <td>4.7</td>
                        <td>3.5 - 5.1</td>
                        <td/>
                        <td>mmol/L</td>
                     </tr>
                  </table>
               </div>
            </text>
            <status value="final"/>
            <category>
               <coding>
                  <system value="http://terminology.hl7.org/CodeSystem/observation-category"/>
                  <code value="laboratory"/>
               </coding>
            </category>
            <code>
               <coding>
                  <system value="http://loinc.org"/>
                  <code value="6298-4"/>
                  <display value="Potassium [Moles/volume] in Blood"/>
               </coding>
               <text value="Potassium [Moles/volume] in Blood"/>
            </code>
            <subject>
               <reference value="urn:uuid:d82a0be7-57fe-4215-9b35-4176cae274b1"/>
               <display value="Iva Kratochvílová"/>
            </subject>
            <effectiveDateTime value="2016-03-16T06:19:29Z"/>
            <performer>
               <display value="The Central European Lab"/>
            </performer>
            <valueQuantity>
               <value value="4.7"/>
               <unit value="mmol/L"/>
               <system value="http://unitsofmeasure.org"/>
               <code value="mmol/L"/>
            </valueQuantity>
            <specimen>
               <reference value="urn:uuid:00d63368-2acb-4a3e-9415-c9f4cd62ac1a"/>
            </specimen>
            <referenceRange>
               <low>
                  <value value="3.5"/>
                  <system value="http://unitsofmeasure.org"/>
                  <code value="mmol/L"/>
               </low>
            </referenceRange>
            <referenceRange>
               <high>
                  <value value="5.1"/>
                  <system value="http://unitsofmeasure.org"/>
                  <code value="mmol/L"/>
               </high>
            </referenceRange>
         </Observation>
      </resource>
   </entry>
   <entry>
      <fullUrl value="urn:uuid:0826a404-998c-4e06-aa04-5a5c086203d5"/>
      <resource>
         <Observation>
            <id value="0826a404-998c-4e06-aa04-5a5c086203d5"/>
            <meta>
               <profile value="http://hl7.eu/fhir/laboratory/StructureDefinition/Observation-resultslab-eu-lab"/>
            </meta>
            <text>
               <status value="generated"/>
               <div xmlns="http://www.w3.org/1999/xhtml">
                  <table class="hl7__eu__lab__report">
                     <tr>
                        <th>Test</th>
                        <th>16-Mar-2016</th>
                        <th>Reference Range</th>
                        <th>Unit</th>
                     </tr>
                     <tr>
                        <td>Chloride [Moles/volume] in Blood</td>
                        <td>107.9</td>
                        <td>98 - 110</td>
                        <td/>
                        <td>mmol/L</td>
                     </tr>
                  </table>
               </div>
            </text>
            <status value="final"/>
            <category>
               <coding>
                  <system value="http://terminology.hl7.org/CodeSystem/observation-category"/>
                  <code value="laboratory"/>
               </coding>
            </category>
            <code>
               <coding>
                  <system value="http://loinc.org"/>
                  <code value="2069-3"/>
                  <display value="Chloride [Moles/volume] in Blood"/>
               </coding>
               <text value="Chloride [Moles/volume] in Blood"/>
            </code>
            <subject>
               <reference value="urn:uuid:d82a0be7-57fe-4215-9b35-4176cae274b1"/>
               <display value="Iva Kratochvílová"/>
            </subject>
            <effectiveDateTime value="2016-03-16T06:19:29Z"/>
            <performer>
               <display value="The Central European Lab"/>
            </performer>
            <valueQuantity>
               <value value="107.9"/>
               <unit value="mmol/L"/>
               <system value="http://unitsofmeasure.org"/>
               <code value="mmol/L"/>
            </valueQuantity>
            <specimen>
               <reference value="urn:uuid:00d63368-2acb-4a3e-9415-c9f4cd62ac1a"/>
            </specimen>
            <referenceRange>
               <low>
                  <value value="98"/>
                  <system value="http://unitsofmeasure.org"/>
                  <code value="mmol/L"/>
               </low>
            </referenceRange>
            <referenceRange>
               <high>
                  <value value="110"/>
                  <system value="http://unitsofmeasure.org"/>
                  <code value="mmol/L"/>
               </high>
            </referenceRange>
         </Observation>
      </resource>
   </entry>
   <entry>
      <fullUrl value="urn:uuid:00bb0df4-3077-4194-a6e4-8676f420d445"/>
      <resource>
         <Observation>
            <id value="00bb0df4-3077-4194-a6e4-8676f420d445"/>
            <meta>
               <profile value="http://hl7.eu/fhir/laboratory/StructureDefinition/Observation-resultslab-eu-lab"/>
            </meta>
            <text>
               <status value="generated"/>
               <div xmlns="http://www.w3.org/1999/xhtml">
                  <table class="hl7__eu__lab__report">
                     <tr>
                        <th>Test</th>
                        <th>16-Mar-2016</th>
                        <th>Reference Range</th>
                        <th>Unit</th>
                     </tr>
                     <tr>
                        <td>Carbon dioxide, total [Moles/volume] in Blood</td>
                        <td>25.6</td>
                        <td>22 - 29</td>
                        <td/>
                        <td>mmol/L</td>
                     </tr>
                  </table>
               </div>
            </text>
            <status value="final"/>
            <category>
               <coding>
                  <system value="http://terminology.hl7.org/CodeSystem/observation-category"/>
                  <code value="laboratory"/>
               </coding>
            </category>
            <code>
               <coding>
                  <system value="http://loinc.org"/>
                  <code value="20565-8"/>
                  <display value="Carbon dioxide, total [Moles/volume] in Blood"/>
               </coding>
               <text value="Carbon dioxide, total [Moles/volume] in Blood"/>
            </code>
            <subject>
               <reference value="urn:uuid:d82a0be7-57fe-4215-9b35-4176cae274b1"/>
               <display value="Iva Kratochvílová"/>
            </subject>
            <effectiveDateTime value="2016-03-16T06:19:29Z"/>
            <performer>
               <display value="The Central European Lab"/>
            </performer>
            <valueQuantity>
               <value value="25.6"/>
               <unit value="mmol/L"/>
               <system value="http://unitsofmeasure.org"/>
               <code value="mmol/L"/>
            </valueQuantity>
            <specimen>
               <reference value="urn:uuid:00d63368-2acb-4a3e-9415-c9f4cd62ac1a"/>
            </specimen>
            <referenceRange>
               <low>
                  <value value="22"/>
                  <system value="http://unitsofmeasure.org"/>
                  <code value="mmol/L"/>
               </low>
            </referenceRange>
            <referenceRange>
               <high>
                  <value value="29"/>
                  <system value="http://unitsofmeasure.org"/>
                  <code value="mmol/L"/>
               </high>
            </referenceRange>
         </Observation>
      </resource>
   </entry>
   <entry>
      <fullUrl value="urn:uuid:8335e2f6-111d-4485-a553-b2d5ccb8358e"/>
      <resource>
         <Observation>
            <id value="8335e2f6-111d-4485-a553-b2d5ccb8358e"/>
            <meta>
               <profile value="http://hl7.eu/fhir/laboratory/StructureDefinition/Observation-resultslab-eu-lab"/>
            </meta>
            <text>
               <status value="generated"/>
               <div xmlns="http://www.w3.org/1999/xhtml">
                  <table class="hl7__eu__lab__report">
                     <tr>
                        <th>Test</th>
                        <th>16-Mar-2016</th>
                        <th>Reference Range</th>
                        <th>Unit</th>
                     </tr>
                     <tr>
                        <td>Protein [Mass/volume] in Serum or Plasma</td>
                        <td>7.9</td>
                        <td>6.6 - 8.3</td>
                        <td/>
                        <td>g/dL</td>
                     </tr>
                  </table>
               </div>
            </text>
            <status value="final"/>
            <category>
               <coding>
                  <system value="http://terminology.hl7.org/CodeSystem/observation-category"/>
                  <code value="laboratory"/>
               </coding>
            </category>
            <code>
               <coding>
                  <system value="http://loinc.org"/>
                  <code value="2885-2"/>
                  <display value="Protein [Mass/volume] in Serum or Plasma"/>
               </coding>
               <text value="Protein [Mass/volume] in Serum or Plasma"/>
            </code>
            <subject>
               <reference value="urn:uuid:d82a0be7-57fe-4215-9b35-4176cae274b1"/>
               <display value="Iva Kratochvílová"/>
            </subject>
            <effectiveDateTime value="2016-03-16T06:19:29Z"/>
            <performer>
               <display value="The Central European Lab"/>
            </performer>
            <valueQuantity>
               <value value="7.9"/>
               <unit value="g/dL"/>
               <system value="http://unitsofmeasure.org"/>
               <code value="g/dL"/>
            </valueQuantity>
            <specimen>
               <reference value="urn:uuid:bf4dd7c1-9e30-47d8-94b2-fab56ea2d2e0"/>
            </specimen>
            <referenceRange>
               <low>
                  <value value="6.6"/>
                  <system value="http://unitsofmeasure.org"/>
                  <code value="g/dL"/>
               </low>
            </referenceRange>
            <referenceRange>
               <high>
                  <value value="8.3"/>
                  <system value="http://unitsofmeasure.org"/>
                  <code value="g/dL"/>
               </high>
            </referenceRange>
         </Observation>
      </resource>
   </entry>
   <entry>
      <fullUrl value="urn:uuid:28d01ec7-7274-4f39-98d2-e48d37bef3cb"/>
      <resource>
         <Observation>
            <id value="28d01ec7-7274-4f39-98d2-e48d37bef3cb"/>
            <meta>
               <profile value="http://hl7.eu/fhir/laboratory/StructureDefinition/Observation-resultslab-eu-lab"/>
            </meta>
            <text>
               <status value="generated"/>
               <div xmlns="http://www.w3.org/1999/xhtml">
                  <table class="hl7__eu__lab__report">
                     <tr>
                        <th>Test</th>
                        <th>16-Mar-2016</th>
                        <th>Reference Range</th>
                        <th>Unit</th>
                     </tr>
                     <tr>
                        <td>Albumin [Mass/volume] in Serum or Plasma</td>
                        <td>5.3</td>
                        <td>3.5 - 5</td>
                        <td>H</td>
                        <td>g/dL</td>
                     </tr>
                  </table>
               </div>
            </text>
            <status value="final"/>
            <category>
               <coding>
                  <system value="http://terminology.hl7.org/CodeSystem/observation-category"/>
                  <code value="laboratory"/>
               </coding>
            </category>
            <code>
               <coding>
                  <system value="http://loinc.org"/>
                  <code value="1751-7"/>
                  <display value="Albumin [Mass/volume] in Serum or Plasma"/>
               </coding>
               <text value="Albumin [Mass/volume] in Serum or Plasma"/>
            </code>
            <subject>
               <reference value="urn:uuid:d82a0be7-57fe-4215-9b35-4176cae274b1"/>
               <display value="Iva Kratochvílová"/>
            </subject>
            <effectiveDateTime value="2016-03-16T06:19:29Z"/>
            <performer>
               <display value="The Central European Lab"/>
            </performer>
            <valueQuantity>
               <value value="5.3"/>
               <unit value="g/dL"/>
               <system value="http://unitsofmeasure.org"/>
               <code value="g/dL"/>
            </valueQuantity>
            <interpretation>
               <coding>
                  <system value="http://terminology.hl7.org/CodeSystem/v3-ObservationInterpretation"/>
                  <code value="H"/>
                  <display value="High"/>
               </coding>
            </interpretation>
            <specimen>
               <reference value="urn:uuid:bf4dd7c1-9e30-47d8-94b2-fab56ea2d2e0"/>
            </specimen>
            <referenceRange>
               <low>
                  <value value="3.5"/>
                  <system value="http://unitsofmeasure.org"/>
                  <code value="g/dL"/>
               </low>
            </referenceRange>
            <referenceRange>
               <high>
                  <value value="5"/>
                  <system value="http://unitsofmeasure.org"/>
                  <code value="g/dL"/>
               </high>
            </referenceRange>
         </Observation>
      </resource>
   </entry>
   <entry>
      <fullUrl value="urn:uuid:371d2972-1136-48d9-9614-10446da97a51"/>
      <resource>
         <Observation>
            <id value="371d2972-1136-48d9-9614-10446da97a51"/>
            <meta>
               <profile value="http://hl7.eu/fhir/laboratory/StructureDefinition/Observation-resultslab-eu-lab"/>
            </meta>
            <text>
               <status value="generated"/>
               <div xmlns="http://www.w3.org/1999/xhtml">
                  <table class="hl7__eu__lab__report">
                     <tr>
                        <th>Test</th>
                        <th>16-Mar-2016</th>
                        <th>Reference Range</th>
                        <th>Unit</th>
                     </tr>
                     <tr>
                        <td>Globulin [Mass/volume] in Serum by calculation</td>
                        <td>2.5</td>
                        <td>2 - 3.5</td>
                        <td/>
                        <td>g/L</td>
                     </tr>
                  </table>
               </div>
            </text>
            <status value="final"/>
            <category>
               <coding>
                  <system value="http://terminology.hl7.org/CodeSystem/observation-category"/>
                  <code value="laboratory"/>
               </coding>
            </category>
            <code>
               <coding>
                  <system value="http://loinc.org"/>
                  <code value="10834-0"/>
                  <display value="Globulin [Mass/volume] in Serum by calculation"/>
               </coding>
               <text value="Globulin [Mass/volume] in Serum by calculation"/>
            </code>
            <subject>
               <reference value="urn:uuid:d82a0be7-57fe-4215-9b35-4176cae274b1"/>
               <display value="Iva Kratochvílová"/>
            </subject>
            <effectiveDateTime value="2016-03-16T06:19:29Z"/>
            <performer>
               <display value="The Central European Lab"/>
            </performer>
            <valueQuantity>
               <value value="2.5"/>
               <unit value="g/L"/>
               <system value="http://unitsofmeasure.org"/>
               <code value="g/L"/>
            </valueQuantity>
            <specimen>
               <reference value="urn:uuid:4a072fd1-7a81-47cc-8386-4ca7a627dd2c"/>
            </specimen>
            <referenceRange>
               <low>
                  <value value="2"/>
                  <system value="http://unitsofmeasure.org"/>
                  <code value="g/L"/>
               </low>
            </referenceRange>
            <referenceRange>
               <high>
                  <value value="3.5"/>
                  <system value="http://unitsofmeasure.org"/>
                  <code value="g/L"/>
               </high>
            </referenceRange>
         </Observation>
      </resource>
   </entry>
   <entry>
      <fullUrl value="urn:uuid:31d859e2-fa0c-4c8c-b370-f2bd93645788"/>
      <resource>
         <Observation>
            <id value="31d859e2-fa0c-4c8c-b370-f2bd93645788"/>
            <meta>
               <profile value="http://hl7.eu/fhir/laboratory/StructureDefinition/Observation-resultslab-eu-lab"/>
            </meta>
            <text>
               <status value="generated"/>
               <div xmlns="http://www.w3.org/1999/xhtml">
                  <table class="hl7__eu__lab__report">
                     <tr>
                        <th>Test</th>
                        <th>16-Mar-2016</th>
                        <th>Reference Range</th>
                        <th>Unit</th>
                     </tr>
                     <tr>
                        <td>Bilirubin.total [Mass/volume] in Serum or Plasma</td>
                        <td>1.0</td>
                        <td>0.3 - 1.2</td>
                        <td/>
                        <td>mg/dL</td>
                     </tr>
                  </table>
               </div>
            </text>
            <status value="final"/>
            <category>
               <coding>
                  <system value="http://terminology.hl7.org/CodeSystem/observation-category"/>
                  <code value="laboratory"/>
               </coding>
            </category>
            <code>
               <coding>
                  <system value="http://loinc.org"/>
                  <code value="1975-2"/>
                  <display value="Bilirubin.total [Mass/volume] in Serum or Plasma"/>
               </coding>
               <text value="Bilirubin.total [Mass/volume] in Serum or Plasma"/>
            </code>
            <subject>
               <reference value="urn:uuid:d82a0be7-57fe-4215-9b35-4176cae274b1"/>
               <display value="Iva Kratochvílová"/>
            </subject>
            <effectiveDateTime value="2016-03-16T06:19:29Z"/>
            <performer>
               <display value="The Central European Lab"/>
            </performer>
            <valueQuantity>
               <value value="1"/>
               <unit value="mg/dL"/>
               <system value="http://unitsofmeasure.org"/>
               <code value="mg/dL"/>
            </valueQuantity>
            <specimen>
               <reference value="urn:uuid:bf4dd7c1-9e30-47d8-94b2-fab56ea2d2e0"/>
            </specimen>
            <referenceRange>
               <low>
                  <value value="0.3"/>
                  <system value="http://unitsofmeasure.org"/>
                  <code value="mg/dL"/>
               </low>
            </referenceRange>
            <referenceRange>
               <high>
                  <value value="1.2"/>
                  <system value="http://unitsofmeasure.org"/>
                  <code value="mg/dL"/>
               </high>
            </referenceRange>
         </Observation>
      </resource>
   </entry>
   <entry>
      <fullUrl value="urn:uuid:59856852-33f5-4afe-9ef3-11dd09e1fb58"/>
      <resource>
         <Observation>
            <id value="59856852-33f5-4afe-9ef3-11dd09e1fb58"/>
            <meta>
               <profile value="http://hl7.eu/fhir/laboratory/StructureDefinition/Observation-resultslab-eu-lab"/>
            </meta>
            <text>
               <status value="generated"/>
               <div xmlns="http://www.w3.org/1999/xhtml">
                  <table class="hl7__eu__lab__report">
                     <tr>
                        <th>Test</th>
                        <th>16-Mar-2016</th>
                        <th>Reference Range</th>
                        <th>Unit</th>
                     </tr>
                     <tr>
                        <td>Alkaline phosphatase [Enzymatic activity/volume] in Serum or Plasma</td>
                        <td>53.0</td>
                        <td>39 - 141</td>
                        <td/>
                        <td>U/L</td>
                     </tr>
                  </table>
               </div>
            </text>
            <status value="final"/>
            <category>
               <coding>
                  <system value="http://terminology.hl7.org/CodeSystem/observation-category"/>
                  <code value="laboratory"/>
               </coding>
            </category>
            <code>
               <coding>
                  <system value="http://loinc.org"/>
                  <code value="6768-6"/>
                  <display value="Alkaline phosphatase [Enzymatic activity/volume] in Serum or Plasma"/>
               </coding>
               <text value="Alkaline phosphatase [Enzymatic activity/volume] in Serum or Plasma"/>
            </code>
            <subject>
               <reference value="urn:uuid:d82a0be7-57fe-4215-9b35-4176cae274b1"/>
               <display value="Iva Kratochvílová"/>
            </subject>
            <effectiveDateTime value="2016-03-16T06:19:29Z"/>
            <performer>
               <display value="The Central European Lab"/>
            </performer>
            <valueQuantity>
               <value value="53"/>
               <unit value="U/L"/>
               <system value="http://unitsofmeasure.org"/>
               <code value="U/L"/>
            </valueQuantity>
            <specimen>
               <reference value="urn:uuid:bf4dd7c1-9e30-47d8-94b2-fab56ea2d2e0"/>
            </specimen>
            <referenceRange>
               <low>
                  <value value="39"/>
                  <system value="http://unitsofmeasure.org"/>
                  <code value="U/L"/>
               </low>
            </referenceRange>
            <referenceRange>
               <high>
                  <value value="141"/>
                  <system value="http://unitsofmeasure.org"/>
                  <code value="U/L"/>
               </high>
            </referenceRange>
         </Observation>
      </resource>
   </entry>
   <entry>
      <fullUrl value="urn:uuid:e8456bd7-836c-431c-8748-45ba5ac53034"/>
      <resource>
         <Observation>
            <id value="e8456bd7-836c-431c-8748-45ba5ac53034"/>
            <meta>
               <profile value="http://hl7.eu/fhir/laboratory/StructureDefinition/Observation-resultslab-eu-lab"/>
            </meta>
            <text>
               <status value="generated"/>
               <div xmlns="http://www.w3.org/1999/xhtml">
                  <table class="hl7__eu__lab__report">
                     <tr>
                        <th>Test</th>
                        <th>16-Mar-2016</th>
                        <th>Reference Range</th>
                        <th>Unit</th>
                     </tr>
                     <tr>
                        <td>Alanine aminotransferase [Enzymatic activity/volume] in Serum or Plasma</td>
                        <td>23.9</td>
                        <td>7 - 40</td>
                        <td/>
                        <td>U/L</td>
                     </tr>
                  </table>
               </div>
            </text>
            <status value="final"/>
            <category>
               <coding>
                  <system value="http://terminology.hl7.org/CodeSystem/observation-category"/>
                  <code value="laboratory"/>
               </coding>
            </category>
            <code>
               <coding>
                  <system value="http://loinc.org"/>
                  <code value="1742-6"/>
                  <display value="Alanine aminotransferase [Enzymatic activity/volume] in Serum or Plasma"/>
               </coding>
               <text value="Alanine aminotransferase [Enzymatic activity/volume] in Serum or Plasma"/>
            </code>
            <subject>
               <reference value="urn:uuid:d82a0be7-57fe-4215-9b35-4176cae274b1"/>
               <display value="Iva Kratochvílová"/>
            </subject>
            <effectiveDateTime value="2016-03-16T06:19:29Z"/>
            <performer>
               <display value="The Central European Lab"/>
            </performer>
            <valueQuantity>
               <value value="23.9"/>
               <unit value="U/L"/>
               <system value="http://unitsofmeasure.org"/>
               <code value="U/L"/>
            </valueQuantity>
            <specimen>
               <reference value="urn:uuid:bf4dd7c1-9e30-47d8-94b2-fab56ea2d2e0"/>
            </specimen>
            <referenceRange>
               <low>
                  <value value="7"/>
                  <system value="http://unitsofmeasure.org"/>
                  <code value="U/L"/>
               </low>
            </referenceRange>
            <referenceRange>
               <high>
                  <value value="40"/>
                  <system value="http://unitsofmeasure.org"/>
                  <code value="U/L"/>
               </high>
            </referenceRange>
         </Observation>
      </resource>
   </entry>
   <entry>
      <fullUrl value="urn:uuid:fb964ab2-09d5-4f92-bbaf-71a55da420e1"/>
      <resource>
         <Observation>
            <id value="fb964ab2-09d5-4f92-bbaf-71a55da420e1"/>
            <meta>
               <profile value="http://hl7.eu/fhir/laboratory/StructureDefinition/Observation-resultslab-eu-lab"/>
            </meta>
            <text>
               <status value="generated"/>
               <div xmlns="http://www.w3.org/1999/xhtml">
                  <table class="hl7__eu__lab__report">
                     <tr>
                        <th>Test</th>
                        <th>16-Mar-2016</th>
                        <th>Reference Range</th>
                        <th>Unit</th>
                     </tr>
                     <tr>
                        <td>Aspartate aminotransferase [Enzymatic activity/volume] in Serum or Plasma</td>
                        <td>30.2</td>
                        <td>10 - 32</td>
                        <td/>
                        <td>U/L</td>
                     </tr>
                  </table>
               </div>
            </text>
            <status value="final"/>
            <category>
               <coding>
                  <system value="http://terminology.hl7.org/CodeSystem/observation-category"/>
                  <code value="laboratory"/>
               </coding>
            </category>
            <code>
               <coding>
                  <system value="http://loinc.org"/>
                  <code value="1920-8"/>
                  <display value="Aspartate aminotransferase [Enzymatic activity/volume] in Serum or Plasma"/>
               </coding>
               <text value="Aspartate aminotransferase [Enzymatic activity/volume] in Serum or Plasma"/>
            </code>
            <subject>
               <reference value="urn:uuid:d82a0be7-57fe-4215-9b35-4176cae274b1"/>
               <display value="Iva Kratochvílová"/>
            </subject>
            <effectiveDateTime value="2016-03-16T06:19:29Z"/>
            <performer>
               <display value="The Central European Lab"/>
            </performer>
            <valueQuantity>
               <value value="30.2"/>
               <unit value="U/L"/>
               <system value="http://unitsofmeasure.org"/>
               <code value="U/L"/>
            </valueQuantity>
            <specimen>
               <reference value="urn:uuid:bf4dd7c1-9e30-47d8-94b2-fab56ea2d2e0"/>
            </specimen>
            <referenceRange>
               <low>
                  <value value="10"/>
                  <system value="http://unitsofmeasure.org"/>
                  <code value="U/L"/>
               </low>
            </referenceRange>
            <referenceRange>
               <high>
                  <value value="32"/>
                  <system value="http://unitsofmeasure.org"/>
                  <code value="U/L"/>
               </high>
            </referenceRange>
         </Observation>
      </resource>
   </entry>
   <entry>
      <fullUrl value="urn:uuid:c36f1dd5-389c-48da-922a-d9a28bfac410"/>
      <resource>
         <Observation>
            <id value="c36f1dd5-389c-48da-922a-d9a28bfac410"/>
            <meta>
               <profile value="http://hl7.eu/fhir/laboratory/StructureDefinition/Observation-resultslab-eu-lab"/>
            </meta>
            <text>
               <status value="generated"/>
               <div xmlns="http://www.w3.org/1999/xhtml">
                  <table class="hl7__eu__lab__report">
                     <tr>
                        <th>Test</th>
                        <th>16-Mar-2016</th>
                        <th>Reference Range</th>
                        <th>Unit</th>
                     </tr>
                     <tr>
                        <td>Appearance of Urine</td>
                     </tr>
                  </table>
               </div>
            </text>
            <status value="final"/>
            <category>
               <coding>
                  <system value="http://terminology.hl7.org/CodeSystem/observation-category"/>
                  <code value="laboratory"/>
               </coding>
            </category>
            <code>
               <coding>
                  <system value="http://loinc.org"/>
                  <code value="5767-9"/>
                  <display value="Appearance of Urine"/>
               </coding>
               <text value="Appearance of Urine"/>
            </code>
            <subject>
               <reference value="urn:uuid:d82a0be7-57fe-4215-9b35-4176cae274b1"/>
               <display value="Iva Kratochvílová"/>
            </subject>
            <effectiveDateTime value="2016-03-16T06:19:29Z"/>
            <performer>
               <display value="The Central European Lab"/>
            </performer>
            <specimen>
               <reference value="urn:uuid:09a0d300-a1d6-4077-9f4a-e85ad70d9437"/>
            </specimen>
         </Observation>
      </resource>
   </entry>
   <entry>
      <fullUrl value="urn:uuid:0a5ad13c-9cac-4f19-aaa0-8ade47b586dc"/>
      <resource>
         <Observation>
            <id value="0a5ad13c-9cac-4f19-aaa0-8ade47b586dc"/>
            <meta>
               <profile value="http://hl7.eu/fhir/laboratory/StructureDefinition/Observation-resultslab-eu-lab"/>
            </meta>
            <text>
               <status value="generated"/>
               <div xmlns="http://www.w3.org/1999/xhtml">
                  <table class="hl7__eu__lab__report">
                     <tr>
                        <th>Test</th>
                        <th>16-Mar-2016</th>
                        <th>Reference Range</th>
                        <th>Unit</th>
                     </tr>
                     <tr>
                        <td>Odor of Urine</td>
                     </tr>
                  </table>
               </div>
            </text>
            <status value="final"/>
            <category>
               <coding>
                  <system value="http://terminology.hl7.org/CodeSystem/observation-category"/>
                  <code value="laboratory"/>
               </coding>
            </category>
            <code>
               <coding>
                  <system value="http://loinc.org"/>
                  <code value="34533-0"/>
                  <display value="Odor of Urine"/>
               </coding>
               <text value="Odor of Urine"/>
            </code>
            <subject>
               <reference value="urn:uuid:d82a0be7-57fe-4215-9b35-4176cae274b1"/>
               <display value="Iva Kratochvílová"/>
            </subject>
            <effectiveDateTime value="2016-03-16T06:19:29Z"/>
            <performer>
               <display value="The Central European Lab"/>
            </performer>
            <specimen>
               <reference value="urn:uuid:09a0d300-a1d6-4077-9f4a-e85ad70d9437"/>
            </specimen>
         </Observation>
      </resource>
   </entry>
   <entry>
      <fullUrl value="urn:uuid:722326cf-64da-4509-b10c-bdcbe400f575"/>
      <resource>
         <Observation>
            <id value="722326cf-64da-4509-b10c-bdcbe400f575"/>
            <meta>
               <profile value="http://hl7.eu/fhir/laboratory/StructureDefinition/Observation-resultslab-eu-lab"/>
            </meta>
            <text>
               <status value="generated"/>
               <div xmlns="http://www.w3.org/1999/xhtml">
                  <table class="hl7__eu__lab__report">
                     <tr>
                        <th>Test</th>
                        <th>16-Mar-2016</th>
                        <th>Reference Range</th>
                        <th>Unit</th>
                     </tr>
                     <tr>
                        <td>Clarity of Urine</td>
                     </tr>
                  </table>
               </div>
            </text>
            <status value="final"/>
            <category>
               <coding>
                  <system value="http://terminology.hl7.org/CodeSystem/observation-category"/>
                  <code value="laboratory"/>
               </coding>
            </category>
            <code>
               <coding>
                  <system value="http://loinc.org"/>
                  <code value="32167-9"/>
                  <display value="Clarity of Urine"/>
               </coding>
               <text value="Clarity of Urine"/>
            </code>
            <subject>
               <reference value="urn:uuid:d82a0be7-57fe-4215-9b35-4176cae274b1"/>
               <display value="Iva Kratochvílová"/>
            </subject>
            <effectiveDateTime value="2016-03-16T06:19:29Z"/>
            <performer>
               <display value="The Central European Lab"/>
            </performer>
            <specimen>
               <reference value="urn:uuid:09a0d300-a1d6-4077-9f4a-e85ad70d9437"/>
            </specimen>
         </Observation>
      </resource>
   </entry>
   <entry>
      <fullUrl value="urn:uuid:6b66d623-f233-4794-aa61-d57386dacfae"/>
      <resource>
         <Observation>
            <id value="6b66d623-f233-4794-aa61-d57386dacfae"/>
            <meta>
               <profile value="http://hl7.eu/fhir/laboratory/StructureDefinition/Observation-resultslab-eu-lab"/>
            </meta>
            <text>
               <status value="generated"/>
               <div xmlns="http://www.w3.org/1999/xhtml">
                  <table class="hl7__eu__lab__report">
                     <tr>
                        <th>Test</th>
                        <th>16-Mar-2016</th>
                        <th>Reference Range</th>
                        <th>Unit</th>
                     </tr>
                     <tr>
                        <td>Color of Urine</td>
                     </tr>
                  </table>
               </div>
            </text>
            <status value="final"/>
            <category>
               <coding>
                  <system value="http://terminology.hl7.org/CodeSystem/observation-category"/>
                  <code value="laboratory"/>
               </coding>
            </category>
            <code>
               <coding>
                  <system value="http://loinc.org"/>
                  <code value="5778-6"/>
                  <display value="Color of Urine"/>
               </coding>
               <text value="Color of Urine"/>
            </code>
            <subject>
               <reference value="urn:uuid:d82a0be7-57fe-4215-9b35-4176cae274b1"/>
               <display value="Iva Kratochvílová"/>
            </subject>
            <effectiveDateTime value="2016-03-16T06:19:29Z"/>
            <performer>
               <display value="The Central European Lab"/>
            </performer>
            <specimen>
               <reference value="urn:uuid:09a0d300-a1d6-4077-9f4a-e85ad70d9437"/>
            </specimen>
         </Observation>
      </resource>
   </entry>
   <entry>
      <fullUrl value="urn:uuid:547bee97-4652-4e00-8a81-661b63c16f52"/>
      <resource>
         <Observation>
            <id value="547bee97-4652-4e00-8a81-661b63c16f52"/>
            <meta>
               <profile value="http://hl7.eu/fhir/laboratory/StructureDefinition/Observation-resultslab-eu-lab"/>
            </meta>
            <text>
               <status value="generated"/>
               <div xmlns="http://www.w3.org/1999/xhtml">
                  <table class="hl7__eu__lab__report">
                     <tr>
                        <th>Test</th>
                        <th>16-Mar-2016</th>
                        <th>Reference Range</th>
                        <th>Unit</th>
                     </tr>
                     <tr>
                        <td>Glucose [Mass/volume] in Urine by Test strip</td>
                        <td>1.5</td>
                        <td>0 - 0.8</td>
                        <td>H</td>
                        <td>mg/dL</td>
                     </tr>
                  </table>
               </div>
            </text>
            <status value="final"/>
            <category>
               <coding>
                  <system value="http://terminology.hl7.org/CodeSystem/observation-category"/>
                  <code value="laboratory"/>
               </coding>
            </category>
            <code>
               <coding>
                  <system value="http://loinc.org"/>
                  <code value="5792-7"/>
                  <display value="Glucose [Mass/volume] in Urine by Test strip"/>
               </coding>
               <text value="Glucose [Mass/volume] in Urine by Test strip"/>
            </code>
            <subject>
               <reference value="urn:uuid:d82a0be7-57fe-4215-9b35-4176cae274b1"/>
               <display value="Iva Kratochvílová"/>
            </subject>
            <effectiveDateTime value="2016-03-16T06:19:29Z"/>
            <performer>
               <display value="The Central European Lab"/>
            </performer>
            <valueQuantity>
               <value value="1.5"/>
               <unit value="mg/dL"/>
               <system value="http://unitsofmeasure.org"/>
               <code value="mg/dL"/>
            </valueQuantity>
            <interpretation>
               <coding>
                  <system value="http://terminology.hl7.org/CodeSystem/v3-ObservationInterpretation"/>
                  <code value="H"/>
                  <display value="High"/>
               </coding>
            </interpretation>
            <specimen>
               <reference value="urn:uuid:09a0d300-a1d6-4077-9f4a-e85ad70d9437"/>
            </specimen>
            <referenceRange>
               <low>
                  <value value="0"/>
                  <system value="http://unitsofmeasure.org"/>
                  <code value="mg/dL"/>
               </low>
            </referenceRange>
            <referenceRange>
               <high>
                  <value value="0.8"/>
                  <system value="http://unitsofmeasure.org"/>
                  <code value="mg/dL"/>
               </high>
            </referenceRange>
         </Observation>
      </resource>
   </entry>
   <entry>
      <fullUrl value="urn:uuid:0192e163-44ab-4847-9d7a-22c6ff192265"/>
      <resource>
         <Observation>
            <id value="0192e163-44ab-4847-9d7a-22c6ff192265"/>
            <meta>
               <profile value="http://hl7.eu/fhir/laboratory/StructureDefinition/Observation-resultslab-eu-lab"/>
            </meta>
            <text>
               <status value="generated"/>
               <div xmlns="http://www.w3.org/1999/xhtml">
                  <table class="hl7__eu__lab__report">
                     <tr>
                        <th>Test</th>
                        <th>16-Mar-2016</th>
                        <th>Reference Range</th>
                        <th>Unit</th>
                     </tr>
                     <tr>
                        <td>Glucose [Presence] in Urine by Test strip</td>
                     </tr>
                  </table>
               </div>
            </text>
            <status value="final"/>
            <category>
               <coding>
                  <system value="http://terminology.hl7.org/CodeSystem/observation-category"/>
                  <code value="laboratory"/>
               </coding>
            </category>
            <code>
               <coding>
                  <system value="http://loinc.org"/>
                  <code value="25428-4"/>
                  <display value="Glucose [Presence] in Urine by Test strip"/>
               </coding>
               <text value="Glucose [Presence] in Urine by Test strip"/>
            </code>
            <subject>
               <reference value="urn:uuid:d82a0be7-57fe-4215-9b35-4176cae274b1"/>
               <display value="Iva Kratochvílová"/>
            </subject>
            <effectiveDateTime value="2016-03-16T06:19:29Z"/>
            <performer>
               <display value="The Central European Lab"/>
            </performer>
            <specimen>
               <reference value="urn:uuid:09a0d300-a1d6-4077-9f4a-e85ad70d9437"/>
            </specimen>
         </Observation>
      </resource>
   </entry>
   <entry>
      <fullUrl value="urn:uuid:0e5dacc2-6df4-412c-9e28-551c058d4ef5"/>
      <resource>
         <Observation>
            <id value="0e5dacc2-6df4-412c-9e28-551c058d4ef5"/>
            <meta>
               <profile value="http://hl7.eu/fhir/laboratory/StructureDefinition/Observation-resultslab-eu-lab"/>
            </meta>
            <text>
               <status value="generated"/>
               <div xmlns="http://www.w3.org/1999/xhtml">
                  <table class="hl7__eu__lab__report">
                     <tr>
                        <th>Test</th>
                        <th>16-Mar-2016</th>
                        <th>Reference Range</th>
                        <th>Unit</th>
                     </tr>
                     <tr>
                        <td>Bilirubin.total [Mass/volume] in Urine by Test strip</td>
                        <td>0.2</td>
                        <td>0 - 1</td>
                        <td/>
                        <td>mg/dL</td>
                     </tr>
                  </table>
               </div>
            </text>
            <status value="final"/>
            <category>
               <coding>
                  <system value="http://terminology.hl7.org/CodeSystem/observation-category"/>
                  <code value="laboratory"/>
               </coding>
            </category>
            <code>
               <coding>
                  <system value="http://loinc.org"/>
                  <code value="20505-4"/>
                  <display value="Bilirubin.total [Mass/volume] in Urine by Test strip"/>
               </coding>
               <text value="Bilirubin.total [Mass/volume] in Urine by Test strip"/>
            </code>
            <subject>
               <reference value="urn:uuid:d82a0be7-57fe-4215-9b35-4176cae274b1"/>
               <display value="Iva Kratochvílová"/>
            </subject>
            <effectiveDateTime value="2016-03-16T06:19:29Z"/>
            <performer>
               <display value="The Central European Lab"/>
            </performer>
            <valueQuantity>
               <value value="0.2"/>
               <unit value="mg/dL"/>
               <system value="http://unitsofmeasure.org"/>
               <code value="mg/dL"/>
            </valueQuantity>
            <specimen>
               <reference value="urn:uuid:09a0d300-a1d6-4077-9f4a-e85ad70d9437"/>
            </specimen>
            <referenceRange>
               <low>
                  <value value="0"/>
                  <system value="http://unitsofmeasure.org"/>
                  <code value="mg/dL"/>
               </low>
            </referenceRange>
            <referenceRange>
               <high>
                  <value value="1"/>
                  <system value="http://unitsofmeasure.org"/>
                  <code value="mg/dL"/>
               </high>
            </referenceRange>
         </Observation>
      </resource>
   </entry>
   <entry>
      <fullUrl value="urn:uuid:58410cdd-34b1-47c8-8b2e-55b9142f377f"/>
      <resource>
         <Observation>
            <id value="58410cdd-34b1-47c8-8b2e-55b9142f377f"/>
            <meta>
               <profile value="http://hl7.eu/fhir/laboratory/StructureDefinition/Observation-resultslab-eu-lab"/>
            </meta>
            <text>
               <status value="generated"/>
               <div xmlns="http://www.w3.org/1999/xhtml">
                  <table class="hl7__eu__lab__report">
                     <tr>
                        <th>Test</th>
                        <th>16-Mar-2016</th>
                        <th>Reference Range</th>
                        <th>Unit</th>
                     </tr>
                     <tr>
                        <td>Bilirubin.total [Presence] in Urine by Test strip</td>
                     </tr>
                  </table>
               </div>
            </text>
            <status value="final"/>
            <category>
               <coding>
                  <system value="http://terminology.hl7.org/CodeSystem/observation-category"/>
                  <code value="laboratory"/>
               </coding>
            </category>
            <code>
               <coding>
                  <system value="http://loinc.org"/>
                  <code value="5770-3"/>
                  <display value="Bilirubin.total [Presence] in Urine by Test strip"/>
               </coding>
               <text value="Bilirubin.total [Presence] in Urine by Test strip"/>
            </code>
            <subject>
               <reference value="urn:uuid:d82a0be7-57fe-4215-9b35-4176cae274b1"/>
               <display value="Iva Kratochvílová"/>
            </subject>
            <effectiveDateTime value="2016-03-16T06:19:29Z"/>
            <performer>
               <display value="The Central European Lab"/>
            </performer>
            <specimen>
               <reference value="urn:uuid:09a0d300-a1d6-4077-9f4a-e85ad70d9437"/>
            </specimen>
         </Observation>
      </resource>
   </entry>
   <entry>
      <fullUrl value="urn:uuid:b4e60b2d-16c2-42f6-8f73-3376c9f0ceaa"/>
      <resource>
         <Observation>
            <id value="b4e60b2d-16c2-42f6-8f73-3376c9f0ceaa"/>
            <meta>
               <profile value="http://hl7.eu/fhir/laboratory/StructureDefinition/Observation-resultslab-eu-lab"/>
            </meta>
            <text>
               <status value="generated"/>
               <div xmlns="http://www.w3.org/1999/xhtml">
                  <table class="hl7__eu__lab__report">
                     <tr>
                        <th>Test</th>
                        <th>16-Mar-2016</th>
                        <th>Reference Range</th>
                        <th>Unit</th>
                     </tr>
                     <tr>
                        <td>Ketones [Mass/volume] in Urine by Test strip</td>
                        <td>4.4</td>
                        <td>0 - 4</td>
                        <td>H</td>
                        <td>mg/dL</td>
                     </tr>
                  </table>
               </div>
            </text>
            <status value="final"/>
            <category>
               <coding>
                  <system value="http://terminology.hl7.org/CodeSystem/observation-category"/>
                  <code value="laboratory"/>
               </coding>
            </category>
            <code>
               <coding>
                  <system value="http://loinc.org"/>
                  <code value="5797-6"/>
                  <display value="Ketones [Mass/volume] in Urine by Test strip"/>
               </coding>
               <text value="Ketones [Mass/volume] in Urine by Test strip"/>
            </code>
            <subject>
               <reference value="urn:uuid:d82a0be7-57fe-4215-9b35-4176cae274b1"/>
               <display value="Iva Kratochvílová"/>
            </subject>
            <effectiveDateTime value="2016-03-16T06:19:29Z"/>
            <performer>
               <display value="The Central European Lab"/>
            </performer>
            <valueQuantity>
               <value value="4.4"/>
               <unit value="mg/dL"/>
               <system value="http://unitsofmeasure.org"/>
               <code value="mg/dL"/>
            </valueQuantity>
            <interpretation>
               <coding>
                  <system value="http://terminology.hl7.org/CodeSystem/v3-ObservationInterpretation"/>
                  <code value="H"/>
                  <display value="High"/>
               </coding>
            </interpretation>
            <specimen>
               <reference value="urn:uuid:09a0d300-a1d6-4077-9f4a-e85ad70d9437"/>
            </specimen>
            <referenceRange>
               <low>
                  <value value="0"/>
                  <system value="http://unitsofmeasure.org"/>
                  <code value="mg/dL"/>
               </low>
            </referenceRange>
            <referenceRange>
               <high>
                  <value value="4"/>
                  <system value="http://unitsofmeasure.org"/>
                  <code value="mg/dL"/>
               </high>
            </referenceRange>
         </Observation>
      </resource>
   </entry>
   <entry>
      <fullUrl value="urn:uuid:4a738c52-bf3c-4ae8-a91d-700d6756f09b"/>
      <resource>
         <Observation>
            <id value="4a738c52-bf3c-4ae8-a91d-700d6756f09b"/>
            <meta>
               <profile value="http://hl7.eu/fhir/laboratory/StructureDefinition/Observation-resultslab-eu-lab"/>
            </meta>
            <text>
               <status value="generated"/>
               <div xmlns="http://www.w3.org/1999/xhtml">
                  <table class="hl7__eu__lab__report">
                     <tr>
                        <th>Test</th>
                        <th>16-Mar-2016</th>
                        <th>Reference Range</th>
                        <th>Unit</th>
                     </tr>
                     <tr>
                        <td>Ketones [Presence] in Urine by Test strip</td>
                     </tr>
                  </table>
               </div>
            </text>
            <status value="final"/>
            <category>
               <coding>
                  <system value="http://terminology.hl7.org/CodeSystem/observation-category"/>
                  <code value="laboratory"/>
               </coding>
            </category>
            <code>
               <coding>
                  <system value="http://loinc.org"/>
                  <code value="2514-8"/>
                  <display value="Ketones [Presence] in Urine by Test strip"/>
               </coding>
               <text value="Ketones [Presence] in Urine by Test strip"/>
            </code>
            <subject>
               <reference value="urn:uuid:d82a0be7-57fe-4215-9b35-4176cae274b1"/>
               <display value="Iva Kratochvílová"/>
            </subject>
            <effectiveDateTime value="2016-03-16T06:19:29Z"/>
            <performer>
               <display value="The Central European Lab"/>
            </performer>
            <specimen>
               <reference value="urn:uuid:09a0d300-a1d6-4077-9f4a-e85ad70d9437"/>
            </specimen>
         </Observation>
      </resource>
   </entry>
   <entry>
      <fullUrl value="urn:uuid:2b523963-d78e-46e8-a667-fb75cec1f33b"/>
      <resource>
         <Observation>
            <id value="2b523963-d78e-46e8-a667-fb75cec1f33b"/>
            <meta>
               <profile value="http://hl7.eu/fhir/laboratory/StructureDefinition/Observation-resultslab-eu-lab"/>
            </meta>
            <text>
               <status value="generated"/>
               <div xmlns="http://www.w3.org/1999/xhtml">
                  <table class="hl7__eu__lab__report">
                     <tr>
                        <th>Test</th>
                        <th>16-Mar-2016</th>
                        <th>Reference Range</th>
                        <th>Unit</th>
                     </tr>
                     <tr>
                        <td>Specific gravity of Urine by Test strip</td>
                        <td>1.0</td>
                        <td>1.005 - 1.03</td>
                        <td>L</td>
                        <td>{nominal}</td>
                     </tr>
                  </table>
               </div>
            </text>
            <status value="final"/>
            <category>
               <coding>
                  <system value="http://terminology.hl7.org/CodeSystem/observation-category"/>
                  <code value="laboratory"/>
               </coding>
            </category>
            <code>
               <coding>
                  <system value="http://loinc.org"/>
                  <code value="5811-5"/>
                  <display value="Specific gravity of Urine by Test strip"/>
               </coding>
               <text value="Specific gravity of Urine by Test strip"/>
            </code>
            <subject>
               <reference value="urn:uuid:d82a0be7-57fe-4215-9b35-4176cae274b1"/>
               <display value="Iva Kratochvílová"/>
            </subject>
            <effectiveDateTime value="2016-03-16T06:19:29Z"/>
            <performer>
               <display value="The Central European Lab"/>
            </performer>
            <valueQuantity>
               <value value="1"/>
               <unit value="{nominal}"/>
               <system value="http://unitsofmeasure.org"/>
               <code value="{nominal}"/>
            </valueQuantity>
            <interpretation>
               <coding>
                  <system value="http://terminology.hl7.org/CodeSystem/v3-ObservationInterpretation"/>
                  <code value="L"/>
                  <display value="Low"/>
               </coding>
            </interpretation>
            <specimen>
               <reference value="urn:uuid:09a0d300-a1d6-4077-9f4a-e85ad70d9437"/>
            </specimen>
            <referenceRange>
               <low>
                  <value value="1.005"/>
                  <system value="http://unitsofmeasure.org"/>
                  <code value="g/mL"/>
               </low>
            </referenceRange>
            <referenceRange>
               <high>
                  <value value="1.03"/>
                  <system value="http://unitsofmeasure.org"/>
                  <code value="g/mL"/>
               </high>
            </referenceRange>
         </Observation>
      </resource>
   </entry>
   <entry>
      <fullUrl value="urn:uuid:8bac652d-2fdb-4020-aa41-323e256c3974"/>
      <resource>
         <Observation>
            <id value="8bac652d-2fdb-4020-aa41-323e256c3974"/>
            <meta>
               <profile value="http://hl7.eu/fhir/laboratory/StructureDefinition/Observation-resultslab-eu-lab"/>
            </meta>
            <text>
               <status value="generated"/>
               <div xmlns="http://www.w3.org/1999/xhtml">
                  <table class="hl7__eu__lab__report">
                     <tr>
                        <th>Test</th>
                        <th>16-Mar-2016</th>
                        <th>Reference Range</th>
                        <th>Unit</th>
                     </tr>
                     <tr>
                        <td>pH of Urine by Test strip</td>
                        <td>6.6</td>
                        <td>4.5 - 7</td>
                        <td/>
                        <td>pH</td>
                     </tr>
                  </table>
               </div>
            </text>
            <status value="final"/>
            <category>
               <coding>
                  <system value="http://terminology.hl7.org/CodeSystem/observation-category"/>
                  <code value="laboratory"/>
               </coding>
            </category>
            <code>
               <coding>
                  <system value="http://loinc.org"/>
                  <code value="5803-2"/>
                  <display value="pH of Urine by Test strip"/>
               </coding>
               <text value="pH of Urine by Test strip"/>
            </code>
            <subject>
               <reference value="urn:uuid:d82a0be7-57fe-4215-9b35-4176cae274b1"/>
               <display value="Iva Kratochvílová"/>
            </subject>
            <effectiveDateTime value="2016-03-16T06:19:29Z"/>
            <performer>
               <display value="The Central European Lab"/>
            </performer>
            <valueQuantity>
               <value value="6.6"/>
               <unit value="pH"/>
               <system value="http://unitsofmeasure.org"/>
               <code value="pH"/>
            </valueQuantity>
            <specimen>
               <reference value="urn:uuid:09a0d300-a1d6-4077-9f4a-e85ad70d9437"/>
            </specimen>
            <referenceRange>
               <low>
                  <value value="4.5"/>
                  <system value="http://unitsofmeasure.org"/>
                  <code value="pH"/>
               </low>
            </referenceRange>
            <referenceRange>
               <high>
                  <value value="7"/>
                  <system value="http://unitsofmeasure.org"/>
                  <code value="pH"/>
               </high>
            </referenceRange>
         </Observation>
      </resource>
   </entry>
   <entry>
      <fullUrl value="urn:uuid:85d20559-96ba-4876-b744-302bc83fdb44"/>
      <resource>
         <Observation>
            <id value="85d20559-96ba-4876-b744-302bc83fdb44"/>
            <meta>
               <profile value="http://hl7.eu/fhir/laboratory/StructureDefinition/Observation-resultslab-eu-lab"/>
            </meta>
            <text>
               <status value="generated"/>
               <div xmlns="http://www.w3.org/1999/xhtml">
                  <table class="hl7__eu__lab__report">
                     <tr>
                        <th>Test</th>
                        <th>16-Mar-2016</th>
                        <th>Reference Range</th>
                        <th>Unit</th>
                     </tr>
                     <tr>
                        <td>Protein [Mass/volume] in Urine by Test strip</td>
                        <td>421.1</td>
                        <td>0 - 145</td>
                        <td>H</td>
                        <td>mg/dL</td>
                     </tr>
                  </table>
               </div>
            </text>
            <status value="final"/>
            <category>
               <coding>
                  <system value="http://terminology.hl7.org/CodeSystem/observation-category"/>
                  <code value="laboratory"/>
               </coding>
            </category>
            <code>
               <coding>
                  <system value="http://loinc.org"/>
                  <code value="5804-0"/>
                  <display value="Protein [Mass/volume] in Urine by Test strip"/>
               </coding>
               <text value="Protein [Mass/volume] in Urine by Test strip"/>
            </code>
            <subject>
               <reference value="urn:uuid:d82a0be7-57fe-4215-9b35-4176cae274b1"/>
               <display value="Iva Kratochvílová"/>
            </subject>
            <effectiveDateTime value="2016-03-16T06:19:29Z"/>
            <performer>
               <display value="The Central European Lab"/>
            </performer>
            <valueQuantity>
               <value value="421.1"/>
               <unit value="mg/dL"/>
               <system value="http://unitsofmeasure.org"/>
               <code value="mg/dL"/>
            </valueQuantity>
            <interpretation>
               <coding>
                  <system value="http://terminology.hl7.org/CodeSystem/v3-ObservationInterpretation"/>
                  <code value="H"/>
                  <display value="High"/>
               </coding>
            </interpretation>
            <specimen>
               <reference value="urn:uuid:09a0d300-a1d6-4077-9f4a-e85ad70d9437"/>
            </specimen>
            <referenceRange>
               <low>
                  <value value="0"/>
                  <system value="http://unitsofmeasure.org"/>
                  <code value="mg/dL"/>
               </low>
            </referenceRange>
            <referenceRange>
               <high>
                  <value value="145"/>
                  <system value="http://unitsofmeasure.org"/>
                  <code value="mg/dL"/>
               </high>
            </referenceRange>
         </Observation>
      </resource>
   </entry>
   <entry>
      <fullUrl value="urn:uuid:74cdb337-83b8-4e9a-92ea-f553410c041e"/>
      <resource>
         <Observation>
            <id value="74cdb337-83b8-4e9a-92ea-f553410c041e"/>
            <meta>
               <profile value="http://hl7.eu/fhir/laboratory/StructureDefinition/Observation-resultslab-eu-lab"/>
            </meta>
            <text>
               <status value="generated"/>
               <div xmlns="http://www.w3.org/1999/xhtml">
                  <table class="hl7__eu__lab__report">
                     <tr>
                        <th>Test</th>
                        <th>16-Mar-2016</th>
                        <th>Reference Range</th>
                        <th>Unit</th>
                     </tr>
                     <tr>
                        <td>Protein [Presence] in Urine by Test strip</td>
                     </tr>
                  </table>
               </div>
            </text>
            <status value="final"/>
            <category>
               <coding>
                  <system value="http://terminology.hl7.org/CodeSystem/observation-category"/>
                  <code value="laboratory"/>
               </coding>
            </category>
            <code>
               <coding>
                  <system value="http://loinc.org"/>
                  <code value="20454-5"/>
                  <display value="Protein [Presence] in Urine by Test strip"/>
               </coding>
               <text value="Protein [Presence] in Urine by Test strip"/>
            </code>
            <subject>
               <reference value="urn:uuid:d82a0be7-57fe-4215-9b35-4176cae274b1"/>
               <display value="Iva Kratochvílová"/>
            </subject>
            <effectiveDateTime value="2016-03-16T06:19:29Z"/>
            <performer>
               <display value="The Central European Lab"/>
            </performer>
            <specimen>
               <reference value="urn:uuid:09a0d300-a1d6-4077-9f4a-e85ad70d9437"/>
            </specimen>
         </Observation>
      </resource>
   </entry>
   <entry>
      <fullUrl value="urn:uuid:464691aa-fffe-4b6b-91ff-15233a1ccf7a"/>
      <resource>
         <Observation>
            <id value="464691aa-fffe-4b6b-91ff-15233a1ccf7a"/>
            <meta>
               <profile value="http://hl7.eu/fhir/laboratory/StructureDefinition/Observation-resultslab-eu-lab"/>
            </meta>
            <text>
               <status value="generated"/>
               <div xmlns="http://www.w3.org/1999/xhtml">
                  <table class="hl7__eu__lab__report">
                     <tr>
                        <th>Test</th>
                        <th>16-Mar-2016</th>
                        <th>Reference Range</th>
                        <th>Unit</th>
                     </tr>
                     <tr>
                        <td>Nitrite [Presence] in Urine by Test strip</td>
                     </tr>
                  </table>
               </div>
            </text>
            <status value="final"/>
            <category>
               <coding>
                  <system value="http://terminology.hl7.org/CodeSystem/observation-category"/>
                  <code value="laboratory"/>
               </coding>
            </category>
            <code>
               <coding>
                  <system value="http://loinc.org"/>
                  <code value="5802-4"/>
                  <display value="Nitrite [Presence] in Urine by Test strip"/>
               </coding>
               <text value="Nitrite [Presence] in Urine by Test strip"/>
            </code>
            <subject>
               <reference value="urn:uuid:d82a0be7-57fe-4215-9b35-4176cae274b1"/>
               <display value="Iva Kratochvílová"/>
            </subject>
            <effectiveDateTime value="2016-03-16T06:19:29Z"/>
            <performer>
               <display value="The Central European Lab"/>
            </performer>
            <specimen>
               <reference value="urn:uuid:09a0d300-a1d6-4077-9f4a-e85ad70d9437"/>
            </specimen>
         </Observation>
      </resource>
   </entry>
   <entry>
      <fullUrl value="urn:uuid:c2236970-4154-47ff-80a8-c5ae9e4e6923"/>
      <resource>
         <Observation>
            <id value="c2236970-4154-47ff-80a8-c5ae9e4e6923"/>
            <meta>
               <profile value="http://hl7.eu/fhir/laboratory/StructureDefinition/Observation-resultslab-eu-lab"/>
            </meta>
            <text>
               <status value="generated"/>
               <div xmlns="http://www.w3.org/1999/xhtml">
                  <table class="hl7__eu__lab__report">
                     <tr>
                        <th>Test</th>
                        <th>16-Mar-2016</th>
                        <th>Reference Range</th>
                        <th>Unit</th>
                     </tr>
                     <tr>
                        <td>Hemoglobin [Presence] in Urine by Test strip</td>
                     </tr>
                  </table>
               </div>
            </text>
            <status value="final"/>
            <category>
               <coding>
                  <system value="http://terminology.hl7.org/CodeSystem/observation-category"/>
                  <code value="laboratory"/>
               </coding>
            </category>
            <code>
               <coding>
                  <system value="http://loinc.org"/>
                  <code value="5794-3"/>
                  <display value="Hemoglobin [Presence] in Urine by Test strip"/>
               </coding>
               <text value="Hemoglobin [Presence] in Urine by Test strip"/>
            </code>
            <subject>
               <reference value="urn:uuid:d82a0be7-57fe-4215-9b35-4176cae274b1"/>
               <display value="Iva Kratochvílová"/>
            </subject>
            <effectiveDateTime value="2016-03-16T06:19:29Z"/>
            <performer>
               <display value="The Central European Lab"/>
            </performer>
            <specimen>
               <reference value="urn:uuid:09a0d300-a1d6-4077-9f4a-e85ad70d9437"/>
            </specimen>
         </Observation>
      </resource>
   </entry>
   <entry>
      <fullUrl value="urn:uuid:fa4c8a27-6aba-418f-b8b9-5f64c00a807e"/>
      <resource>
         <Observation>
            <id value="fa4c8a27-6aba-418f-b8b9-5f64c00a807e"/>
            <meta>
               <profile value="http://hl7.eu/fhir/laboratory/StructureDefinition/Observation-resultslab-eu-lab"/>
            </meta>
            <text>
               <status value="generated"/>
               <div xmlns="http://www.w3.org/1999/xhtml">
                  <table class="hl7__eu__lab__report">
                     <tr>
                        <th>Test</th>
                        <th>16-Mar-2016</th>
                        <th>Reference Range</th>
                        <th>Unit</th>
                     </tr>
                     <tr>
                        <td>Leukocyte esterase [Presence] in Urine by Test strip</td>
                     </tr>
                  </table>
               </div>
            </text>
            <status value="final"/>
            <category>
               <coding>
                  <system value="http://terminology.hl7.org/CodeSystem/observation-category"/>
                  <code value="laboratory"/>
               </coding>
            </category>
            <code>
               <coding>
                  <system value="http://loinc.org"/>
                  <code value="5799-2"/>
                  <display value="Leukocyte esterase [Presence] in Urine by Test strip"/>
               </coding>
               <text value="Leukocyte esterase [Presence] in Urine by Test strip"/>
            </code>
            <subject>
               <reference value="urn:uuid:d82a0be7-57fe-4215-9b35-4176cae274b1"/>
               <display value="Iva Kratochvílová"/>
            </subject>
            <effectiveDateTime value="2016-03-16T06:19:29Z"/>
            <performer>
               <display value="The Central European Lab"/>
            </performer>
            <specimen>
               <reference value="urn:uuid:09a0d300-a1d6-4077-9f4a-e85ad70d9437"/>
            </specimen>
         </Observation>
      </resource>
   </entry>
   <entry>
      <fullUrl value="urn:uuid:8096fc8b-ad56-4b50-bcd3-c7fa459e932f"/>
      <resource>
         <Device>
            <id value="8096fc8b-ad56-4b50-bcd3-c7fa459e932f"/>
            <text>
               <status value="generated"/>
               <div xmlns="http://www.w3.org/1999/xhtml">SYNDERAI Synthetic Generator v5.0</div>
            </text>
            <status value="active&#34;"/>
            <distinctIdentifier value="synderai-generator-50"/>
            <manufacturer value="SYNDERAI Project"/>
            <deviceName>
               <name value="SYNDERAI Synthetic Generator"/>
               <type value="manufacturer-name"/>
            </deviceName>
            <version>
               <value value="5.0"/>
            </version>
         </Device>
      </resource>
   </entry>
   <entry>
      <fullUrl value="urn:uuid:86994de6-0853-4367-a184-67dd16a1f803"/>
      <resource>
         <Provenance>
            <id value="86994de6-0853-4367-a184-67dd16a1f803"/>
            <text>
               <status value="generated"/>
               <div xmlns="http://www.w3.org/1999/xhtml">Provenance for SYNDERAI Synthetic Example Data Resource</div>
            </text>
            <target>
               <reference value="Patient/d82a0be7-57fe-4215-9b35-4176cae274b1"/>
            </target>
            <target>
               <reference value="Bundle/9873928c-edde-4af6-bc8d-c935172753cb"/>
            </target>
            <target>
               <reference value="Composition/21c9eada-04df-4b66-85f4-54b919d672c2"/>
            </target>
            <target>
               <reference value="PractitionerRole/e6393efb-c276-492f-975e-3a1c9155a312"/>
            </target>
            <target>
               <reference value="Practitioner/e42c416d-b744-436f-a76d-40ffd0689094"/>
            </target>
            <target>
               <reference value="PractitionerRole/4836ede7-d9a8-408d-a732-051c47a7855e"/>
            </target>
            <target>
               <reference value="Organization/daa3e136-4af0-40ee-9228-a8f29474d53e"/>
            </target>
            <recorded value="2016-03-16T07:19:29Z"/>
            <policy value="https://synderai.net/synderai-synthetic-data-policy"/>
            <reason>
               <text value="Interoperability Testing and Training (non-clinical use)"/>
            </reason>
            <activity>
               <text value="Synthetic Example Data Generation"/>
            </activity>
            <agent>
               <type>
                  <text value="author"/>
               </type>
               <who>
                  <reference value="Device/8096fc8b-ad56-4b50-bcd3-c7fa459e932f"/>
               </who>
            </agent>
         </Provenance>
      </resource>
   </entry>
   <entry>
      <fullUrl value="urn:uuid:e6393efb-c276-492f-975e-3a1c9155a312"/>
      <resource>
         <PractitionerRole>
            <id value="e6393efb-c276-492f-975e-3a1c9155a312"/>
            <meta>
               <profile value="http://hl7.eu/fhir/base/StructureDefinition/practitionerRole-eu"/>
            </meta>
            <text>
               <status value="generated"/>
               <div xmlns="http://www.w3.org/1999/xhtml">Laboratory Role Id: e6393efb-c276-492f-975e-3a1c9155a312</div>
            </text>
            <practitioner>
               <reference value="urn:uuid:e42c416d-b744-436f-a76d-40ffd0689094"/>
            </practitioner>
         </PractitionerRole>
      </resource>
   </entry>
   <entry>
      <fullUrl value="urn:uuid:e42c416d-b744-436f-a76d-40ffd0689094"/>
      <resource>
         <Practitioner>
            <id value="e42c416d-b744-436f-a76d-40ffd0689094"/>
            <meta>
               <profile value="http://hl7.eu/fhir/base/StructureDefinition/practitioner-eu"/>
            </meta>
            <text>
               <status value="generated"/>
               <div xmlns="http://www.w3.org/1999/xhtml">Laboratory: Laboratoire Central Européenne, 1000 Brussels, Belgium</div>
            </text>
            <identifier>
               <system value="urn:oid:2.16.840.1.113883.2.51.999"/>
               <value value="c8485a50-9199-48b3-b7e9-0c85dda1e815"/>
               <assigner>
                  <display value="HL7 Europe"/>
               </assigner>
            </identifier>
            <name>
               <family value="Ample"/>
               <given value="Ex"/>
               <prefix value="dr"/>
            </name>
            <address>
               <line value="Laboratoire Central Européenne"/>
               <line value="Boulevard du Jardin Botanique 32"/>
               <city value="Brussels"/>
               <postalCode value="1000"/>
               <country value="Belgium"/>
            </address>
         </Practitioner>
      </resource>
   </entry>
</Bundle>