{
  "resourceType": "Bundle",
  "id": "6e68767f-e669-42e5-a6d5-25a040280566",
  "meta": {
    "profile": [
      "http://hl7.eu/fhir/laboratory/StructureDefinition/Bundle-eu-lab"
    ]
  },
  "identifier": {
    "assigner": {
      "display": "HL7 Europe"
    },
    "system": "urn:oid:2.16.840.1.113883.2.51.999",
    "value": "86968e26-9d78-413a-ac14-d06e76783fec"
  },
  "entry": [
    {
      "fullUrl": "urn:uuid:985d3480-ba85-4a4c-b886-e80bfcfd0196",
      "resource": {
        "resourceType": "Composition",
        "id": "985d3480-ba85-4a4c-b886-e80bfcfd0196",
        "meta": {
          "profile": [
            "http://hl7.eu/fhir/laboratory/StructureDefinition/Composition-eu-lab"
          ]
        },
        "identifier": {
          "assigner": {
            "display": "HL7 Europe"
          },
          "system": "urn:oid:2.16.840.1.113883.2.51.999",
          "value": "a7edc1cf-b873-4a3f-96a9-2775e54565e3"
        },
        "author": [
          {
            "reference": "urn:uuid:bd64adf1-d954-40c5-878d-ab992d1a64d6"
          }
        ],
        "category": [
          {
            "coding": [
              {
                "code": "26436-6",
                "system": "http://loinc.org",
                "display": "Laboratory studies (set)"
              }
            ]
          }
        ],
        "type": {
          "coding": [
            {
              "code": "11502-2",
              "system": "http://loinc.org",
              "display": "Laboratory report"
            }
          ],
          "text": "Laboratory Report"
        },
        "section": [
          {
            "code": {
              "coding": [
                {
                  "code": "26436-6",
                  "system": "http://loinc.org",
                  "display": "Laboratory studies (set)"
                }
              ],
              "text": "Laboratory studies"
            },
            "section": [
              {
                "code": {
                  "coding": [
                    {
                      "code": "$18723-7",
                      "system": "http://loinc.org",
                      "display": "Hematology studies (set)"
                    }
                  ],
                  "text": "Hematology"
                },
                "entry": [
                  {
                    "reference": "urn:uuid:f8386e9d-5733-4d62-a3b5-7d808c98d46e"
                  },
                  {
                    "reference": "urn:uuid:74f04829-004d-46f1-875d-b98b71ccccf9"
                  },
                  {
                    "reference": "urn:uuid:615cbd38-ceb3-4a38-9769-7513d1c711dd"
                  },
                  {
                    "reference": "urn:uuid:bdbcd494-df42-4c64-a052-286734219aa5"
                  },
                  {
                    "reference": "urn:uuid:32966cfb-e0ca-403e-8cbb-47cda1174692"
                  },
                  {
                    "reference": "urn:uuid:14dc2a4f-0f85-4e7f-94e6-ef5eb365f2f4"
                  },
                  {
                    "reference": "urn:uuid:600a72a6-0e9d-4a4d-8329-f73e5de4132d"
                  },
                  {
                    "reference": "urn:uuid:f73e0235-34a8-409e-b857-b1866bf6102c"
                  },
                  {
                    "reference": "urn:uuid:e1a88202-68d6-4fba-ba75-4fc6b431bd4f"
                  },
                  {
                    "reference": "urn:uuid:943beb9e-05ac-4926-9a40-c444730a8755"
                  },
                  {
                    "reference": "urn:uuid:91ce23bb-67f1-4989-857b-13b5f14a6689"
                  }
                ],
                "text": {
                  "status": "generated",
                  "div": "<div xmlns=\"http://www.w3.org/1999/xhtml\"><h3>Hematology</h3><table class=\"hl7__eu__lab__report\"><thead><tr><th>Test</th><th>25-FEB-2023</th><th>Reference&#xA0;Range</th><th>Unit</th></tr></thead><tbody><tr><td>Leukocytes [#/volume] in Blood by Automated count</td><td>7.0</td><td>3.4 - 10.5</td><td>10*3/uL</td></tr><tr><td>Erythrocytes [#/volume] in Blood by Automated count</td><td>4.9</td><td>4.2 - 5.2</td><td>10*6/uL</td></tr><tr><td>Hemoglobin [Mass/volume] in Blood</td><td>13.7</td><td>12 - 16</td><td>g/dL</td></tr><tr><td>Hematocrit [Volume Fraction] of Blood by Automated count</td><td>48.1</td><td>38 - 54</td><td>%</td></tr><tr><td>MCV [Entitic volume] by Automated count</td><td>82.5</td><td>82 - 98</td><td>fL</td></tr><tr><td>MCH [Entitic mass] by Automated count</td><td>28.2</td><td>27 - 33</td><td>pg</td></tr><tr><td>MCHC [Mass/volume] by Automated count</td><td><strong>35.9 H</strong></td><td>32 - 35.5</td><td>g/dL</td></tr><tr><td>Erythrocyte distribution width [Entitic volume] by Automated count</td><td>44.2</td><td>36 - 56</td><td>fL</td></tr><tr><td>Platelets [#/volume] in Blood by Automated count</td><td>379.8</td><td>150 - 450</td><td>10*3/uL</td></tr><tr><td>Platelet distribution width [Entitic volume] in Blood by Automated count</td><td>268.5</td><td>150 - 450</td><td>fL</td></tr><tr><td>Platelet mean volume [Entitic volume] in Blood by Automated count</td><td>11.5</td><td>7.4 - 13.8</td><td>fL</td></tr></tbody></table></div>"
                },
                "title": "Hematology"
              },
              {
                "code": {
                  "coding": [
                    {
                      "code": "$18719-5",
                      "system": "http://loinc.org",
                      "display": "Chemistry studies (set)"
                    }
                  ],
                  "text": "Chemistry"
                },
                "entry": [
                  {
                    "reference": "urn:uuid:484a9c13-c47e-45d8-a738-8c3074a59c0c"
                  },
                  {
                    "reference": "urn:uuid:adef5ff6-3c3b-47dd-b06e-36ba377a63f0"
                  },
                  {
                    "reference": "urn:uuid:9327acf9-c525-4d09-b8bf-3bf8cf2d0a55"
                  },
                  {
                    "reference": "urn:uuid:3eaf9a74-f42e-4d83-b788-d211332854ab"
                  },
                  {
                    "reference": "urn:uuid:747b422d-1263-471f-9e8c-8ef69ec000b9"
                  },
                  {
                    "reference": "urn:uuid:ed7a3276-dfcf-4c3b-8585-2cf7bf7d9cb8"
                  },
                  {
                    "reference": "urn:uuid:e58aa216-cc3c-47a5-8139-023a09df55e7"
                  },
                  {
                    "reference": "urn:uuid:c9550acc-3bb6-42a7-915f-a754aad9bfb8"
                  },
                  {
                    "reference": "urn:uuid:7851ef25-d78a-468a-83c6-c1dca47086a7"
                  }
                ],
                "text": {
                  "status": "generated",
                  "div": "<div xmlns=\"http://www.w3.org/1999/xhtml\"><h3>Chemistry</h3><table class=\"hl7__eu__lab__report\"><thead><tr><th>Test</th><th>25-FEB-2023</th><th>Reference&#xA0;Range</th><th>Unit</th></tr></thead><tbody><tr><td>Hemoglobin A1c/Hemoglobin.total in Blood</td><td>6.0</td><td>4 - 6</td><td>%</td></tr><tr><td>Glucose [Mass/volume] in Blood</td><td><strong>66.0 L</strong></td><td>70 - 140</td><td>mg/dL</td></tr><tr><td>Urea nitrogen [Mass/volume] in Blood</td><td>12.3</td><td>7 - 45</td><td>mg/dL</td></tr><tr><td>Creatinine [Mass/volume] in Blood</td><td>0.8</td><td>0.6 - 1.1</td><td>mg/dL</td></tr><tr><td>Calcium [Mass/volume] in Blood</td><td>10.1</td><td>8.5 - 10.5</td><td>mg/dL</td></tr><tr><td>Sodium [Moles/volume] in Blood</td><td>136.5</td><td>135 - 145</td><td>mmol/L</td></tr><tr><td>Potassium [Moles/volume] in Blood</td><td>4.7</td><td>3.5 - 5.1</td><td>mmol/L</td></tr><tr><td>Chloride [Moles/volume] in Blood</td><td><strong>110.2 H</strong></td><td>98 - 107</td><td>mmol/L</td></tr><tr><td>Carbon dioxide, total [Moles/volume] in Blood</td><td>24.4</td><td>22 - 32</td><td>mmol/L</td></tr></tbody></table></div>"
                },
                "title": "Chemistry"
              }
            ],
            "title": "Laboratory Report"
          },
          {
            "text": {
              "status": "generated",
              "div": "<div xmlns=\"http://www.w3.org/1999/xhtml\"><h3>Annotation</h3><table class=\"hl7__eu__lab__report\"><tr><th>Conclusion and Recommendations based on this report and previous findings known to us</th></tr><tr><td>Most parameters are within normal limits. Notable findings include mildly elevated HbA1c (6.0%, at upper limit), suggesting possible impaired glucose tolerance or early diabetes, and low fasting glucose (66 mg/dL), which may indicate hypoglycemia-clinical correlation is advised. Chloride and MCHC are slightly elevated but likely not clinically significant in isolation. Renal function, electrolytes, and blood counts are otherwise unremarkable. Recommend clinical follow-up for glucose metabolism assessment.</td></tr></table></div>"
            },
            "code": {
              "coding": [
                {
                  "system": "http://loinc.org",
                  "code": "48767-8",
                  "display": "Annotation comment"
                }
              ]
            },
            "title": "Annotation comment"
          }
        ],
        "status": "final",
        "subject": {
          "reference": "urn:uuid:176e40ee-79dd-415b-8b4d-bb5428284336",
          "display": "Lydia Ward"
        },
        "date": "2023-02-25T00:08:09Z",
        "title": "Laboratory Report",
        "confidentiality": "N"
      }
    },
    {
      "fullUrl": "urn:uuid:c5581920-d0f9-4b21-b888-8295c1472ec4",
      "resource": {
        "resourceType": "DiagnosticReport",
        "id": "c5581920-d0f9-4b21-b888-8295c1472ec4",
        "meta": {
          "profile": [
            "http://hl7.eu/fhir/laboratory/StructureDefinition/DiagnosticReport-eu-lab"
          ]
        },
        "identifier": [
          {
            "assigner": {
              "display": "HL7 Europe"
            },
            "system": "urn:oid:2.16.840.1.113883.2.51.999",
            "value": "7a715344-ae0b-4282-8f43-7b4185f29ec7"
          }
        ],
        "extension": [
          {
            "url": "http://hl7.org/fhir/5.0/StructureDefinition/extension-DiagnosticReport.composition",
            "valueReference": {
              "reference": "urn:uuid:a7edc1cf-b873-4a3f-96a9-2775e54565e3"
            }
          }
        ],
        "category": [
          {
            "coding": [
              {
                "code": "26436-6",
                "system": "http://loinc.org",
                "display": "Laboratory studies (set)"
              }
            ]
          }
        ],
        "specimen": [
          {
            "reference": "urn:uuid:7baa50d1-b891-4efe-9623-75ba2fdfd172"
          },
          {
            "reference": "urn:uuid:7baa50d1-b891-4efe-9623-75ba2fdfd172"
          }
        ],
        "result": [
          {
            "reference": "urn:uuid:484a9c13-c47e-45d8-a738-8c3074a59c0c"
          },
          {
            "reference": "urn:uuid:adef5ff6-3c3b-47dd-b06e-36ba377a63f0"
          },
          {
            "reference": "urn:uuid:9327acf9-c525-4d09-b8bf-3bf8cf2d0a55"
          },
          {
            "reference": "urn:uuid:3eaf9a74-f42e-4d83-b788-d211332854ab"
          },
          {
            "reference": "urn:uuid:747b422d-1263-471f-9e8c-8ef69ec000b9"
          },
          {
            "reference": "urn:uuid:ed7a3276-dfcf-4c3b-8585-2cf7bf7d9cb8"
          },
          {
            "reference": "urn:uuid:e58aa216-cc3c-47a5-8139-023a09df55e7"
          },
          {
            "reference": "urn:uuid:c9550acc-3bb6-42a7-915f-a754aad9bfb8"
          },
          {
            "reference": "urn:uuid:7851ef25-d78a-468a-83c6-c1dca47086a7"
          },
          {
            "reference": "urn:uuid:f8386e9d-5733-4d62-a3b5-7d808c98d46e"
          },
          {
            "reference": "urn:uuid:74f04829-004d-46f1-875d-b98b71ccccf9"
          },
          {
            "reference": "urn:uuid:615cbd38-ceb3-4a38-9769-7513d1c711dd"
          },
          {
            "reference": "urn:uuid:bdbcd494-df42-4c64-a052-286734219aa5"
          },
          {
            "reference": "urn:uuid:32966cfb-e0ca-403e-8cbb-47cda1174692"
          },
          {
            "reference": "urn:uuid:14dc2a4f-0f85-4e7f-94e6-ef5eb365f2f4"
          },
          {
            "reference": "urn:uuid:600a72a6-0e9d-4a4d-8329-f73e5de4132d"
          },
          {
            "reference": "urn:uuid:f73e0235-34a8-409e-b857-b1866bf6102c"
          },
          {
            "reference": "urn:uuid:e1a88202-68d6-4fba-ba75-4fc6b431bd4f"
          },
          {
            "reference": "urn:uuid:943beb9e-05ac-4926-9a40-c444730a8755"
          },
          {
            "reference": "urn:uuid:91ce23bb-67f1-4989-857b-13b5f14a6689"
          }
        ],
        "status": "registered",
        "code": {
          "coding": [
            {
              "code": "11502-2",
              "system": "http://loinc.org",
              "display": "Laboratory report"
            }
          ]
        },
        "subject": {
          "reference": "urn:uuid:176e40ee-79dd-415b-8b4d-bb5428284336",
          "display": "Lydia Ward"
        }
      }
    },
    {
      "fullUrl": "urn:uuid:176e40ee-79dd-415b-8b4d-bb5428284336",
      "resource": {
        "resourceType": "Patient",
        "id": "176e40ee-79dd-415b-8b4d-bb5428284336",
        "meta": {
          "security": [
            {
              "system": "http://terminology.hl7.org/CodeSystem/v3-ActReason",
              "code": "HTEST"
            },
            {
              "system": "http://terminology.hl7.org/CodeSystem/v3-ActReason",
              "code": "TRAIN"
            }
          ],
          "tag": [
            {
              "system": "https://synderai.net/fhir/CodeSystem/tags",
              "code": "synthetic",
              "display": "SYNDERAI Synthetic data"
            }
          ],
          "profile": [
            "http://hl7.eu/fhir/base/StructureDefinition/patient-eu-core"
          ]
        },
        "identifier": [
          {
            "type": {
              "coding": [
                {
                  "code": "PT",
                  "system": "http://terminology.hl7.org/CodeSystem/v2-0203"
                }
              ]
            },
            "system": "http://ec.europa.eu/identifier/eci",
            "value": "8944-364030-8"
          },
          {
            "type": {
              "coding": [
                {
                  "code": "MR",
                  "system": "http://terminology.hl7.org/CodeSystem/v2-0203"
                }
              ]
            },
            "system": "http://local.setting.eu/identifier",
            "value": "9edf6b8d-b276-7218-98c6-ccf8d15f2a01"
          }
        ],
        "name": [
          {
            "family": "Ward"
          },
          {
            "given": [
              "Lydia"
            ]
          },
          {
            "text": "Lydia Ward"
          }
        ],
        "address": [
          {
            "line": [
              "6 Hunt radial"
            ],
            "use": "home",
            "type": "physical",
            "postalCode": "EH33",
            "city": "South Rosieside",
            "country": "United Kingdom"
          }
        ],
        "telecom": [
          {
            "system": "phone",
            "value": "01144960349"
          }
        ],
        "extension": [
          {
            "url": "http://hl7.org/fhir/StructureDefinition/patient-nationality",
            "valueCodeableConcept": {
              "coding": [
                {
                  "code": "GB",
                  "system": "http://hl7.org/fhir/ValueSet/country"
                }
              ]
            }
          }
        ],
        "text": {
          "status": "generated",
          "div": "<div xmlns=\"http://www.w3.org/1999/xhtml\"><table class=\"hl7__ips\"><tr><td>Lydia Ward</td><td>female</td><td>27-Dec-1968</td></tr></table></div>"
        },
        "gender": "female",
        "birthDate": "1968-12-27"
      }
    },
    {
      "fullUrl": "urn:uuid:7a2f167b-81ef-4112-8044-1efb125666a1",
      "resource": {
        "resourceType": "ServiceRequest",
        "id": "7a2f167b-81ef-4112-8044-1efb125666a1",
        "meta": {
          "profile": [
            "http://hl7.eu/fhir/laboratory/StructureDefinition/ServiceRequest-eu-lab"
          ]
        },
        "identifier": [
          {
            "system": "http://example.org",
            "value": "afc5517f-70bf-4061-ae6a-1496a3b76f76"
          }
        ],
        "specimen": [
          {
            "reference": "urn:uuid:7baa50d1-b891-4efe-9623-75ba2fdfd172"
          }
        ],
        "reasonCode": [
          {
            "coding": [
              {
                "code": "271737000",
                "system": "http://snomed.info/sct",
                "display": "Anemia"
              }
            ]
          },
          {
            "coding": [
              {
                "code": "15777000",
                "system": "http://snomed.info/sct",
                "display": "Prediabetes"
              }
            ]
          }
        ],
        "status": "active",
        "intent": "order",
        "code": {
          "coding": [
            {
              "code": "108252007",
              "system": "http://snomed.info/sct",
              "display": "Laboratory procedure"
            }
          ]
        },
        "subject": {
          "reference": "urn:uuid:176e40ee-79dd-415b-8b4d-bb5428284336",
          "display": "Lydia Ward"
        },
        "requester": {
          "reference": "urn:uuid:51429323-4b7e-4896-a312-4153bd13e14f"
        }
      }
    },
    {
      "fullUrl": "urn:uuid:51429323-4b7e-4896-a312-4153bd13e14f",
      "resource": {
        "resourceType": "PractitionerRole",
        "id": "51429323-4b7e-4896-a312-4153bd13e14f",
        "meta": {
          "profile": [
            "http://hl7.eu/fhir/base/StructureDefinition/practitionerRole-eu"
          ]
        },
        "text": {
          "status": "generated",
          "div": "<div xmlns=\"http://www.w3.org/1999/xhtml\">Provider Role Id: 51429323-4b7e-4896-a312-4153bd13e14f</div>"
        },
        "organization": {
          "reference": "urn:uuid:acf41b98-a0a4-45bd-81f8-ebf85a983606"
        }
      }
    },
    {
      "fullUrl": "urn:uuid:acf41b98-a0a4-45bd-81f8-ebf85a983606",
      "resource": {
        "resourceType": "Organization",
        "id": "acf41b98-a0a4-45bd-81f8-ebf85a983606",
        "meta": {
          "profile": [
            "http://hl7.eu/fhir/base/StructureDefinition/organization-eu"
          ]
        },
        "identifier": [
          {
            "assigner": {
              "display": "HL7 Europe"
            },
            "system": "urn:oid:2.16.840.1.113883.2.51.999",
            "value": "0b2266e1-b660-4c97-97d6-09001a13355b"
          }
        ],
        "address": [
          {
            "city": "Edinburgh",
            "postalCode": "EH9 2",
            "country": "United Kingdom"
          }
        ],
        "text": {
          "status": "generated",
          "div": "<div xmlns=\"http://www.w3.org/1999/xhtml\">Provider Organization: Royal Hospital for Sick Children</div>"
        },
        "name": "Royal Hospital for Sick Children"
      }
    },
    {
      "fullUrl": "urn:uuid:7baa50d1-b891-4efe-9623-75ba2fdfd172",
      "resource": {
        "resourceType": "Specimen",
        "id": "7baa50d1-b891-4efe-9623-75ba2fdfd172",
        "meta": {
          "profile": [
            "http://hl7.eu/fhir/laboratory/StructureDefinition/Specimen-eu-lab"
          ]
        },
        "collection": {
          "collectedDateTime": "2023-02-24"
        },
        "text": {
          "status": "generated",
          "div": "<div xmlns=\"http://www.w3.org/1999/xhtml\"><table class=\"hl7__eu__lab__report\"><tr><th>Specimen</th><th>Collection Date</th></tr><tr><td>Whole blood specimen (specimen)</td><td><span class=\"nb\">24-Feb-2023</span></td></tr></table></div>"
        },
        "type": {
          "coding": [
            {
              "code": "258580003",
              "system": "http://snomed.info/sct",
              "display": "Whole blood specimen (specimen)"
            }
          ]
        }
      }
    },
    {
      "fullUrl": "urn:uuid:7baa50d1-b891-4efe-9623-75ba2fdfd172",
      "resource": {
        "resourceType": "Specimen",
        "id": "7baa50d1-b891-4efe-9623-75ba2fdfd172",
        "meta": {
          "profile": [
            "http://hl7.eu/fhir/laboratory/StructureDefinition/Specimen-eu-lab"
          ]
        },
        "collection": {
          "collectedDateTime": "2023-02-24"
        },
        "text": {
          "status": "generated",
          "div": "<div xmlns=\"http://www.w3.org/1999/xhtml\"><table class=\"hl7__eu__lab__report\"><tr><th>Specimen</th><th>Collection Date</th></tr><tr><td>Whole blood specimen (specimen)</td><td><span class=\"nb\">24-Feb-2023</span></td></tr></table></div>"
        },
        "type": {
          "coding": [
            {
              "code": "258580003",
              "system": "http://snomed.info/sct",
              "display": "Whole blood specimen (specimen)"
            }
          ]
        }
      }
    },
    {
      "fullUrl": "urn:uuid:484a9c13-c47e-45d8-a738-8c3074a59c0c",
      "resource": {
        "resourceType": "Observation",
        "id": "484a9c13-c47e-45d8-a738-8c3074a59c0c",
        "meta": {
          "profile": [
            "http://hl7.eu/fhir/laboratory/StructureDefinition/Observation-resultslab-eu-lab"
          ]
        },
        "performer": [
          {
            "display": "The Central European Lab"
          }
        ],
        "category": [
          {
            "coding": [
              {
                "system": "http://terminology.hl7.org/CodeSystem/observation-category",
                "code": "laboratory"
              }
            ]
          }
        ],
        "code": {
          "coding": [
            {
              "code": "4548-4",
              "system": "http://loinc.org",
              "display": "Hemoglobin A1c/Hemoglobin.total in Blood"
            }
          ],
          "text": "Hemoglobin A1c/Hemoglobin.total in Blood"
        },
        "valueQuantity": {
          "system": "http://unitsofmeasure.org",
          "value": 6,
          "unit": "%",
          "code": "%"
        },
        "referenceRange": [
          {
            "low": {
              "value": 4,
              "code": "%",
              "system": "http://unitsofmeasure.org"
            }
          },
          {
            "high": {
              "value": 6,
              "code": "%",
              "system": "http://unitsofmeasure.org"
            }
          }
        ],
        "text": {
          "status": "generated",
          "div": "<div xmlns=\"http://www.w3.org/1999/xhtml\"><table class=\"hl7__eu__lab__report\"><tr><th>Test</th><th>25-Feb-2023</th><th>Reference&#xA0;Range</th><th>Unit</th></tr><tr><td>Hemoglobin A1c/Hemoglobin.total in Blood</td><td>6.0</td><td>4 - 6</td><td></td><td>%</td></tr></table></div>"
        },
        "status": "final",
        "subject": {
          "reference": "urn:uuid:176e40ee-79dd-415b-8b4d-bb5428284336",
          "display": "Lydia Ward"
        },
        "effectiveDateTime": "2023-02-24T23:08:09Z",
        "specimen": {
          "reference": "urn:uuid:7baa50d1-b891-4efe-9623-75ba2fdfd172"
        }
      }
    },
    {
      "fullUrl": "urn:uuid:adef5ff6-3c3b-47dd-b06e-36ba377a63f0",
      "resource": {
        "resourceType": "Observation",
        "id": "adef5ff6-3c3b-47dd-b06e-36ba377a63f0",
        "meta": {
          "profile": [
            "http://hl7.eu/fhir/laboratory/StructureDefinition/Observation-resultslab-eu-lab"
          ]
        },
        "performer": [
          {
            "display": "The Central European Lab"
          }
        ],
        "category": [
          {
            "coding": [
              {
                "system": "http://terminology.hl7.org/CodeSystem/observation-category",
                "code": "laboratory"
              }
            ]
          }
        ],
        "code": {
          "coding": [
            {
              "code": "2339-0",
              "system": "http://loinc.org",
              "display": "Glucose [Mass/volume] in Blood"
            }
          ],
          "text": "Glucose [Mass/volume] in Blood"
        },
        "valueQuantity": {
          "system": "http://unitsofmeasure.org",
          "value": 66,
          "unit": "mg/dL",
          "code": "mg/dL"
        },
        "referenceRange": [
          {
            "low": {
              "value": 70,
              "code": "mg/dL",
              "system": "http://unitsofmeasure.org"
            }
          },
          {
            "high": {
              "value": 140,
              "code": "mg/dL",
              "system": "http://unitsofmeasure.org"
            }
          }
        ],
        "interpretation": [
          {
            "coding": [
              {
                "code": "L",
                "system": "http://terminology.hl7.org/CodeSystem/v3-ObservationInterpretation",
                "display": "Low"
              }
            ]
          }
        ],
        "text": {
          "status": "generated",
          "div": "<div xmlns=\"http://www.w3.org/1999/xhtml\"><table class=\"hl7__eu__lab__report\"><tr><th>Test</th><th>25-Feb-2023</th><th>Reference&#xA0;Range</th><th>Unit</th></tr><tr><td>Glucose [Mass/volume] in Blood</td><td>66.0</td><td>70 - 140</td><td>L</td><td>mg/dL</td></tr></table></div>"
        },
        "status": "final",
        "subject": {
          "reference": "urn:uuid:176e40ee-79dd-415b-8b4d-bb5428284336",
          "display": "Lydia Ward"
        },
        "effectiveDateTime": "2023-02-24T23:08:09Z",
        "specimen": {
          "reference": "urn:uuid:7baa50d1-b891-4efe-9623-75ba2fdfd172"
        }
      }
    },
    {
      "fullUrl": "urn:uuid:9327acf9-c525-4d09-b8bf-3bf8cf2d0a55",
      "resource": {
        "resourceType": "Observation",
        "id": "9327acf9-c525-4d09-b8bf-3bf8cf2d0a55",
        "meta": {
          "profile": [
            "http://hl7.eu/fhir/laboratory/StructureDefinition/Observation-resultslab-eu-lab"
          ]
        },
        "performer": [
          {
            "display": "The Central European Lab"
          }
        ],
        "category": [
          {
            "coding": [
              {
                "system": "http://terminology.hl7.org/CodeSystem/observation-category",
                "code": "laboratory"
              }
            ]
          }
        ],
        "code": {
          "coding": [
            {
              "code": "6299-2",
              "system": "http://loinc.org",
              "display": "Urea nitrogen [Mass/volume] in Blood"
            }
          ],
          "text": "Urea nitrogen [Mass/volume] in Blood"
        },
        "valueQuantity": {
          "system": "http://unitsofmeasure.org",
          "value": 12.3,
          "unit": "mg/dL",
          "code": "mg/dL"
        },
        "referenceRange": [
          {
            "low": {
              "value": 7,
              "code": "mg/dL",
              "system": "http://unitsofmeasure.org"
            }
          },
          {
            "high": {
              "value": 45,
              "code": "mg/dL",
              "system": "http://unitsofmeasure.org"
            }
          }
        ],
        "text": {
          "status": "generated",
          "div": "<div xmlns=\"http://www.w3.org/1999/xhtml\"><table class=\"hl7__eu__lab__report\"><tr><th>Test</th><th>25-Feb-2023</th><th>Reference&#xA0;Range</th><th>Unit</th></tr><tr><td>Urea nitrogen [Mass/volume] in Blood</td><td>12.3</td><td>7 - 45</td><td></td><td>mg/dL</td></tr></table></div>"
        },
        "status": "final",
        "subject": {
          "reference": "urn:uuid:176e40ee-79dd-415b-8b4d-bb5428284336",
          "display": "Lydia Ward"
        },
        "effectiveDateTime": "2023-02-24T23:08:09Z",
        "specimen": {
          "reference": "urn:uuid:7baa50d1-b891-4efe-9623-75ba2fdfd172"
        }
      }
    },
    {
      "fullUrl": "urn:uuid:3eaf9a74-f42e-4d83-b788-d211332854ab",
      "resource": {
        "resourceType": "Observation",
        "id": "3eaf9a74-f42e-4d83-b788-d211332854ab",
        "meta": {
          "profile": [
            "http://hl7.eu/fhir/laboratory/StructureDefinition/Observation-resultslab-eu-lab"
          ]
        },
        "performer": [
          {
            "display": "The Central European Lab"
          }
        ],
        "category": [
          {
            "coding": [
              {
                "system": "http://terminology.hl7.org/CodeSystem/observation-category",
                "code": "laboratory"
              }
            ]
          }
        ],
        "code": {
          "coding": [
            {
              "code": "38483-4",
              "system": "http://loinc.org",
              "display": "Creatinine [Mass/volume] in Blood"
            }
          ],
          "text": "Creatinine [Mass/volume] in Blood"
        },
        "valueQuantity": {
          "system": "http://unitsofmeasure.org",
          "value": 0.8,
          "unit": "mg/dL",
          "code": "mg/dL"
        },
        "referenceRange": [
          {
            "low": {
              "value": 0.6,
              "code": "mg/dL",
              "system": "http://unitsofmeasure.org"
            }
          },
          {
            "high": {
              "value": 1.1,
              "code": "mg/dL",
              "system": "http://unitsofmeasure.org"
            }
          }
        ],
        "text": {
          "status": "generated",
          "div": "<div xmlns=\"http://www.w3.org/1999/xhtml\"><table class=\"hl7__eu__lab__report\"><tr><th>Test</th><th>25-Feb-2023</th><th>Reference&#xA0;Range</th><th>Unit</th></tr><tr><td>Creatinine [Mass/volume] in Blood</td><td>0.8</td><td>0.6 - 1.1</td><td></td><td>mg/dL</td></tr></table></div>"
        },
        "status": "final",
        "subject": {
          "reference": "urn:uuid:176e40ee-79dd-415b-8b4d-bb5428284336",
          "display": "Lydia Ward"
        },
        "effectiveDateTime": "2023-02-24T23:08:09Z",
        "specimen": {
          "reference": "urn:uuid:7baa50d1-b891-4efe-9623-75ba2fdfd172"
        }
      }
    },
    {
      "fullUrl": "urn:uuid:747b422d-1263-471f-9e8c-8ef69ec000b9",
      "resource": {
        "resourceType": "Observation",
        "id": "747b422d-1263-471f-9e8c-8ef69ec000b9",
        "meta": {
          "profile": [
            "http://hl7.eu/fhir/laboratory/StructureDefinition/Observation-resultslab-eu-lab"
          ]
        },
        "performer": [
          {
            "display": "The Central European Lab"
          }
        ],
        "category": [
          {
            "coding": [
              {
                "system": "http://terminology.hl7.org/CodeSystem/observation-category",
                "code": "laboratory"
              }
            ]
          }
        ],
        "code": {
          "coding": [
            {
              "code": "49765-1",
              "system": "http://loinc.org",
              "display": "Calcium [Mass/volume] in Blood"
            }
          ],
          "text": "Calcium [Mass/volume] in Blood"
        },
        "valueQuantity": {
          "system": "http://unitsofmeasure.org",
          "value": 10.1,
          "unit": "mg/dL",
          "code": "mg/dL"
        },
        "referenceRange": [
          {
            "low": {
              "value": 8.5,
              "code": "mg/dL",
              "system": "http://unitsofmeasure.org"
            }
          },
          {
            "high": {
              "value": 10.5,
              "code": "mg/dL",
              "system": "http://unitsofmeasure.org"
            }
          }
        ],
        "text": {
          "status": "generated",
          "div": "<div xmlns=\"http://www.w3.org/1999/xhtml\"><table class=\"hl7__eu__lab__report\"><tr><th>Test</th><th>25-Feb-2023</th><th>Reference&#xA0;Range</th><th>Unit</th></tr><tr><td>Calcium [Mass/volume] in Blood</td><td>10.1</td><td>8.5 - 10.5</td><td></td><td>mg/dL</td></tr></table></div>"
        },
        "status": "final",
        "subject": {
          "reference": "urn:uuid:176e40ee-79dd-415b-8b4d-bb5428284336",
          "display": "Lydia Ward"
        },
        "effectiveDateTime": "2023-02-24T23:08:09Z",
        "specimen": {
          "reference": "urn:uuid:7baa50d1-b891-4efe-9623-75ba2fdfd172"
        }
      }
    },
    {
      "fullUrl": "urn:uuid:ed7a3276-dfcf-4c3b-8585-2cf7bf7d9cb8",
      "resource": {
        "resourceType": "Observation",
        "id": "ed7a3276-dfcf-4c3b-8585-2cf7bf7d9cb8",
        "meta": {
          "profile": [
            "http://hl7.eu/fhir/laboratory/StructureDefinition/Observation-resultslab-eu-lab"
          ]
        },
        "performer": [
          {
            "display": "The Central European Lab"
          }
        ],
        "category": [
          {
            "coding": [
              {
                "system": "http://terminology.hl7.org/CodeSystem/observation-category",
                "code": "laboratory"
              }
            ]
          }
        ],
        "code": {
          "coding": [
            {
              "code": "2947-0",
              "system": "http://loinc.org",
              "display": "Sodium [Moles/volume] in Blood"
            }
          ],
          "text": "Sodium [Moles/volume] in Blood"
        },
        "valueQuantity": {
          "system": "http://unitsofmeasure.org",
          "value": 136.5,
          "unit": "mmol/L",
          "code": "mmol/L"
        },
        "referenceRange": [
          {
            "low": {
              "value": 135,
              "code": "mmol/L",
              "system": "http://unitsofmeasure.org"
            }
          },
          {
            "high": {
              "value": 145,
              "code": "mmol/L",
              "system": "http://unitsofmeasure.org"
            }
          }
        ],
        "text": {
          "status": "generated",
          "div": "<div xmlns=\"http://www.w3.org/1999/xhtml\"><table class=\"hl7__eu__lab__report\"><tr><th>Test</th><th>25-Feb-2023</th><th>Reference&#xA0;Range</th><th>Unit</th></tr><tr><td>Sodium [Moles/volume] in Blood</td><td>136.5</td><td>135 - 145</td><td></td><td>mmol/L</td></tr></table></div>"
        },
        "status": "final",
        "subject": {
          "reference": "urn:uuid:176e40ee-79dd-415b-8b4d-bb5428284336",
          "display": "Lydia Ward"
        },
        "effectiveDateTime": "2023-02-24T23:08:09Z",
        "specimen": {
          "reference": "urn:uuid:7baa50d1-b891-4efe-9623-75ba2fdfd172"
        }
      }
    },
    {
      "fullUrl": "urn:uuid:e58aa216-cc3c-47a5-8139-023a09df55e7",
      "resource": {
        "resourceType": "Observation",
        "id": "e58aa216-cc3c-47a5-8139-023a09df55e7",
        "meta": {
          "profile": [
            "http://hl7.eu/fhir/laboratory/StructureDefinition/Observation-resultslab-eu-lab"
          ]
        },
        "performer": [
          {
            "display": "The Central European Lab"
          }
        ],
        "category": [
          {
            "coding": [
              {
                "system": "http://terminology.hl7.org/CodeSystem/observation-category",
                "code": "laboratory"
              }
            ]
          }
        ],
        "code": {
          "coding": [
            {
              "code": "6298-4",
              "system": "http://loinc.org",
              "display": "Potassium [Moles/volume] in Blood"
            }
          ],
          "text": "Potassium [Moles/volume] in Blood"
        },
        "valueQuantity": {
          "system": "http://unitsofmeasure.org",
          "value": 4.7,
          "unit": "mmol/L",
          "code": "mmol/L"
        },
        "referenceRange": [
          {
            "low": {
              "value": 3.5,
              "code": "mmol/L",
              "system": "http://unitsofmeasure.org"
            }
          },
          {
            "high": {
              "value": 5.1,
              "code": "mmol/L",
              "system": "http://unitsofmeasure.org"
            }
          }
        ],
        "text": {
          "status": "generated",
          "div": "<div xmlns=\"http://www.w3.org/1999/xhtml\"><table class=\"hl7__eu__lab__report\"><tr><th>Test</th><th>25-Feb-2023</th><th>Reference&#xA0;Range</th><th>Unit</th></tr><tr><td>Potassium [Moles/volume] in Blood</td><td>4.7</td><td>3.5 - 5.1</td><td></td><td>mmol/L</td></tr></table></div>"
        },
        "status": "final",
        "subject": {
          "reference": "urn:uuid:176e40ee-79dd-415b-8b4d-bb5428284336",
          "display": "Lydia Ward"
        },
        "effectiveDateTime": "2023-02-24T23:08:09Z",
        "specimen": {
          "reference": "urn:uuid:7baa50d1-b891-4efe-9623-75ba2fdfd172"
        }
      }
    },
    {
      "fullUrl": "urn:uuid:c9550acc-3bb6-42a7-915f-a754aad9bfb8",
      "resource": {
        "resourceType": "Observation",
        "id": "c9550acc-3bb6-42a7-915f-a754aad9bfb8",
        "meta": {
          "profile": [
            "http://hl7.eu/fhir/laboratory/StructureDefinition/Observation-resultslab-eu-lab"
          ]
        },
        "performer": [
          {
            "display": "The Central European Lab"
          }
        ],
        "category": [
          {
            "coding": [
              {
                "system": "http://terminology.hl7.org/CodeSystem/observation-category",
                "code": "laboratory"
              }
            ]
          }
        ],
        "code": {
          "coding": [
            {
              "code": "2069-3",
              "system": "http://loinc.org",
              "display": "Chloride [Moles/volume] in Blood"
            }
          ],
          "text": "Chloride [Moles/volume] in Blood"
        },
        "valueQuantity": {
          "system": "http://unitsofmeasure.org",
          "value": 110.2,
          "unit": "mmol/L",
          "code": "mmol/L"
        },
        "referenceRange": [
          {
            "low": {
              "value": 98,
              "code": "mmol/L",
              "system": "http://unitsofmeasure.org"
            }
          },
          {
            "high": {
              "value": 107,
              "code": "mmol/L",
              "system": "http://unitsofmeasure.org"
            }
          }
        ],
        "interpretation": [
          {
            "coding": [
              {
                "code": "H",
                "system": "http://terminology.hl7.org/CodeSystem/v3-ObservationInterpretation",
                "display": "High"
              }
            ]
          }
        ],
        "text": {
          "status": "generated",
          "div": "<div xmlns=\"http://www.w3.org/1999/xhtml\"><table class=\"hl7__eu__lab__report\"><tr><th>Test</th><th>25-Feb-2023</th><th>Reference&#xA0;Range</th><th>Unit</th></tr><tr><td>Chloride [Moles/volume] in Blood</td><td>110.2</td><td>98 - 107</td><td>H</td><td>mmol/L</td></tr></table></div>"
        },
        "status": "final",
        "subject": {
          "reference": "urn:uuid:176e40ee-79dd-415b-8b4d-bb5428284336",
          "display": "Lydia Ward"
        },
        "effectiveDateTime": "2023-02-24T23:08:09Z",
        "specimen": {
          "reference": "urn:uuid:7baa50d1-b891-4efe-9623-75ba2fdfd172"
        }
      }
    },
    {
      "fullUrl": "urn:uuid:7851ef25-d78a-468a-83c6-c1dca47086a7",
      "resource": {
        "resourceType": "Observation",
        "id": "7851ef25-d78a-468a-83c6-c1dca47086a7",
        "meta": {
          "profile": [
            "http://hl7.eu/fhir/laboratory/StructureDefinition/Observation-resultslab-eu-lab"
          ]
        },
        "performer": [
          {
            "display": "The Central European Lab"
          }
        ],
        "category": [
          {
            "coding": [
              {
                "system": "http://terminology.hl7.org/CodeSystem/observation-category",
                "code": "laboratory"
              }
            ]
          }
        ],
        "code": {
          "coding": [
            {
              "code": "20565-8",
              "system": "http://loinc.org",
              "display": "Carbon dioxide, total [Moles/volume] in Blood"
            }
          ],
          "text": "Carbon dioxide, total [Moles/volume] in Blood"
        },
        "valueQuantity": {
          "system": "http://unitsofmeasure.org",
          "value": 24.4,
          "unit": "mmol/L",
          "code": "mmol/L"
        },
        "referenceRange": [
          {
            "low": {
              "value": 22,
              "code": "mmol/L",
              "system": "http://unitsofmeasure.org"
            }
          },
          {
            "high": {
              "value": 32,
              "code": "mmol/L",
              "system": "http://unitsofmeasure.org"
            }
          }
        ],
        "text": {
          "status": "generated",
          "div": "<div xmlns=\"http://www.w3.org/1999/xhtml\"><table class=\"hl7__eu__lab__report\"><tr><th>Test</th><th>25-Feb-2023</th><th>Reference&#xA0;Range</th><th>Unit</th></tr><tr><td>Carbon dioxide, total [Moles/volume] in Blood</td><td>24.4</td><td>22 - 32</td><td></td><td>mmol/L</td></tr></table></div>"
        },
        "status": "final",
        "subject": {
          "reference": "urn:uuid:176e40ee-79dd-415b-8b4d-bb5428284336",
          "display": "Lydia Ward"
        },
        "effectiveDateTime": "2023-02-24T23:08:09Z",
        "specimen": {
          "reference": "urn:uuid:7baa50d1-b891-4efe-9623-75ba2fdfd172"
        }
      }
    },
    {
      "fullUrl": "urn:uuid:f8386e9d-5733-4d62-a3b5-7d808c98d46e",
      "resource": {
        "resourceType": "Observation",
        "id": "f8386e9d-5733-4d62-a3b5-7d808c98d46e",
        "meta": {
          "profile": [
            "http://hl7.eu/fhir/laboratory/StructureDefinition/Observation-resultslab-eu-lab"
          ]
        },
        "performer": [
          {
            "display": "The Central European Lab"
          }
        ],
        "category": [
          {
            "coding": [
              {
                "system": "http://terminology.hl7.org/CodeSystem/observation-category",
                "code": "laboratory"
              }
            ]
          }
        ],
        "code": {
          "coding": [
            {
              "code": "6690-2",
              "system": "http://loinc.org",
              "display": "Leukocytes [#/volume] in Blood by Automated count"
            }
          ],
          "text": "Leukocytes [#/volume] in Blood by Automated count"
        },
        "valueQuantity": {
          "system": "http://unitsofmeasure.org",
          "value": 7,
          "unit": "10*3/uL",
          "code": "10*3/uL"
        },
        "referenceRange": [
          {
            "low": {
              "value": 3.4,
              "code": "10*3/uL",
              "system": "http://unitsofmeasure.org"
            }
          },
          {
            "high": {
              "value": 10.5,
              "code": "10*3/uL",
              "system": "http://unitsofmeasure.org"
            }
          }
        ],
        "text": {
          "status": "generated",
          "div": "<div xmlns=\"http://www.w3.org/1999/xhtml\"><table class=\"hl7__eu__lab__report\"><tr><th>Test</th><th>25-Feb-2023</th><th>Reference&#xA0;Range</th><th>Unit</th></tr><tr><td>Leukocytes [#/volume] in Blood by Automated count</td><td>7.0</td><td>3.4 - 10.5</td><td></td><td>10*3/uL</td></tr></table></div>"
        },
        "status": "final",
        "subject": {
          "reference": "urn:uuid:176e40ee-79dd-415b-8b4d-bb5428284336",
          "display": "Lydia Ward"
        },
        "effectiveDateTime": "2023-02-24T23:08:09Z",
        "specimen": {
          "reference": "urn:uuid:7baa50d1-b891-4efe-9623-75ba2fdfd172"
        }
      }
    },
    {
      "fullUrl": "urn:uuid:74f04829-004d-46f1-875d-b98b71ccccf9",
      "resource": {
        "resourceType": "Observation",
        "id": "74f04829-004d-46f1-875d-b98b71ccccf9",
        "meta": {
          "profile": [
            "http://hl7.eu/fhir/laboratory/StructureDefinition/Observation-resultslab-eu-lab"
          ]
        },
        "performer": [
          {
            "display": "The Central European Lab"
          }
        ],
        "category": [
          {
            "coding": [
              {
                "system": "http://terminology.hl7.org/CodeSystem/observation-category",
                "code": "laboratory"
              }
            ]
          }
        ],
        "code": {
          "coding": [
            {
              "code": "789-8",
              "system": "http://loinc.org",
              "display": "Erythrocytes [#/volume] in Blood by Automated count"
            }
          ],
          "text": "Erythrocytes [#/volume] in Blood by Automated count"
        },
        "valueQuantity": {
          "system": "http://unitsofmeasure.org",
          "value": 4.9,
          "unit": "10*6/uL",
          "code": "10*6/uL"
        },
        "referenceRange": [
          {
            "low": {
              "value": 4.2,
              "code": "10*6/uL",
              "system": "http://unitsofmeasure.org"
            }
          },
          {
            "high": {
              "value": 5.2,
              "code": "10*6/uL",
              "system": "http://unitsofmeasure.org"
            }
          }
        ],
        "text": {
          "status": "generated",
          "div": "<div xmlns=\"http://www.w3.org/1999/xhtml\"><table class=\"hl7__eu__lab__report\"><tr><th>Test</th><th>25-Feb-2023</th><th>Reference&#xA0;Range</th><th>Unit</th></tr><tr><td>Erythrocytes [#/volume] in Blood by Automated count</td><td>4.9</td><td>4.2 - 5.2</td><td></td><td>10*6/uL</td></tr></table></div>"
        },
        "status": "final",
        "subject": {
          "reference": "urn:uuid:176e40ee-79dd-415b-8b4d-bb5428284336",
          "display": "Lydia Ward"
        },
        "effectiveDateTime": "2023-02-24T23:08:09Z",
        "specimen": {
          "reference": "urn:uuid:7baa50d1-b891-4efe-9623-75ba2fdfd172"
        }
      }
    },
    {
      "fullUrl": "urn:uuid:615cbd38-ceb3-4a38-9769-7513d1c711dd",
      "resource": {
        "resourceType": "Observation",
        "id": "615cbd38-ceb3-4a38-9769-7513d1c711dd",
        "meta": {
          "profile": [
            "http://hl7.eu/fhir/laboratory/StructureDefinition/Observation-resultslab-eu-lab"
          ]
        },
        "performer": [
          {
            "display": "The Central European Lab"
          }
        ],
        "category": [
          {
            "coding": [
              {
                "system": "http://terminology.hl7.org/CodeSystem/observation-category",
                "code": "laboratory"
              }
            ]
          }
        ],
        "code": {
          "coding": [
            {
              "code": "718-7",
              "system": "http://loinc.org",
              "display": "Hemoglobin [Mass/volume] in Blood"
            }
          ],
          "text": "Hemoglobin [Mass/volume] in Blood"
        },
        "valueQuantity": {
          "system": "http://unitsofmeasure.org",
          "value": 13.7,
          "unit": "g/dL",
          "code": "g/dL"
        },
        "referenceRange": [
          {
            "low": {
              "value": 12,
              "code": "g/dL",
              "system": "http://unitsofmeasure.org"
            }
          },
          {
            "high": {
              "value": 16,
              "code": "g/dL",
              "system": "http://unitsofmeasure.org"
            }
          }
        ],
        "text": {
          "status": "generated",
          "div": "<div xmlns=\"http://www.w3.org/1999/xhtml\"><table class=\"hl7__eu__lab__report\"><tr><th>Test</th><th>25-Feb-2023</th><th>Reference&#xA0;Range</th><th>Unit</th></tr><tr><td>Hemoglobin [Mass/volume] in Blood</td><td>13.7</td><td>12 - 16</td><td></td><td>g/dL</td></tr></table></div>"
        },
        "status": "final",
        "subject": {
          "reference": "urn:uuid:176e40ee-79dd-415b-8b4d-bb5428284336",
          "display": "Lydia Ward"
        },
        "effectiveDateTime": "2023-02-24T23:08:09Z",
        "specimen": {
          "reference": "urn:uuid:7baa50d1-b891-4efe-9623-75ba2fdfd172"
        }
      }
    },
    {
      "fullUrl": "urn:uuid:bdbcd494-df42-4c64-a052-286734219aa5",
      "resource": {
        "resourceType": "Observation",
        "id": "bdbcd494-df42-4c64-a052-286734219aa5",
        "meta": {
          "profile": [
            "http://hl7.eu/fhir/laboratory/StructureDefinition/Observation-resultslab-eu-lab"
          ]
        },
        "performer": [
          {
            "display": "The Central European Lab"
          }
        ],
        "category": [
          {
            "coding": [
              {
                "system": "http://terminology.hl7.org/CodeSystem/observation-category",
                "code": "laboratory"
              }
            ]
          }
        ],
        "code": {
          "coding": [
            {
              "code": "4544-3",
              "system": "http://loinc.org",
              "display": "Hematocrit [Volume Fraction] of Blood by Automated count"
            }
          ],
          "text": "Hematocrit [Volume Fraction] of Blood by Automated count"
        },
        "valueQuantity": {
          "system": "http://unitsofmeasure.org",
          "value": 48.1,
          "unit": "%",
          "code": "%"
        },
        "referenceRange": [
          {
            "low": {
              "value": 38,
              "code": "%",
              "system": "http://unitsofmeasure.org"
            }
          },
          {
            "high": {
              "value": 54,
              "code": "%",
              "system": "http://unitsofmeasure.org"
            }
          }
        ],
        "text": {
          "status": "generated",
          "div": "<div xmlns=\"http://www.w3.org/1999/xhtml\"><table class=\"hl7__eu__lab__report\"><tr><th>Test</th><th>25-Feb-2023</th><th>Reference&#xA0;Range</th><th>Unit</th></tr><tr><td>Hematocrit [Volume Fraction] of Blood by Automated count</td><td>48.1</td><td>38 - 54</td><td></td><td>%</td></tr></table></div>"
        },
        "status": "final",
        "subject": {
          "reference": "urn:uuid:176e40ee-79dd-415b-8b4d-bb5428284336",
          "display": "Lydia Ward"
        },
        "effectiveDateTime": "2023-02-24T23:08:09Z",
        "specimen": {
          "reference": "urn:uuid:7baa50d1-b891-4efe-9623-75ba2fdfd172"
        }
      }
    },
    {
      "fullUrl": "urn:uuid:32966cfb-e0ca-403e-8cbb-47cda1174692",
      "resource": {
        "resourceType": "Observation",
        "id": "32966cfb-e0ca-403e-8cbb-47cda1174692",
        "meta": {
          "profile": [
            "http://hl7.eu/fhir/laboratory/StructureDefinition/Observation-resultslab-eu-lab"
          ]
        },
        "performer": [
          {
            "display": "The Central European Lab"
          }
        ],
        "category": [
          {
            "coding": [
              {
                "system": "http://terminology.hl7.org/CodeSystem/observation-category",
                "code": "laboratory"
              }
            ]
          }
        ],
        "code": {
          "coding": [
            {
              "code": "787-2",
              "system": "http://loinc.org",
              "display": "MCV [Entitic volume] by Automated count"
            }
          ],
          "text": "MCV [Entitic volume] by Automated count"
        },
        "valueQuantity": {
          "system": "http://unitsofmeasure.org",
          "value": 82.5,
          "unit": "fL",
          "code": "fL"
        },
        "referenceRange": [
          {
            "low": {
              "value": 82,
              "code": "fL",
              "system": "http://unitsofmeasure.org"
            }
          },
          {
            "high": {
              "value": 98,
              "code": "fL",
              "system": "http://unitsofmeasure.org"
            }
          }
        ],
        "text": {
          "status": "generated",
          "div": "<div xmlns=\"http://www.w3.org/1999/xhtml\"><table class=\"hl7__eu__lab__report\"><tr><th>Test</th><th>25-Feb-2023</th><th>Reference&#xA0;Range</th><th>Unit</th></tr><tr><td>MCV [Entitic volume] by Automated count</td><td>82.5</td><td>82 - 98</td><td></td><td>fL</td></tr></table></div>"
        },
        "status": "final",
        "subject": {
          "reference": "urn:uuid:176e40ee-79dd-415b-8b4d-bb5428284336",
          "display": "Lydia Ward"
        },
        "effectiveDateTime": "2023-02-24T23:08:09Z",
        "specimen": {
          "reference": "urn:uuid:7baa50d1-b891-4efe-9623-75ba2fdfd172"
        }
      }
    },
    {
      "fullUrl": "urn:uuid:14dc2a4f-0f85-4e7f-94e6-ef5eb365f2f4",
      "resource": {
        "resourceType": "Observation",
        "id": "14dc2a4f-0f85-4e7f-94e6-ef5eb365f2f4",
        "meta": {
          "profile": [
            "http://hl7.eu/fhir/laboratory/StructureDefinition/Observation-resultslab-eu-lab"
          ]
        },
        "performer": [
          {
            "display": "The Central European Lab"
          }
        ],
        "category": [
          {
            "coding": [
              {
                "system": "http://terminology.hl7.org/CodeSystem/observation-category",
                "code": "laboratory"
              }
            ]
          }
        ],
        "code": {
          "coding": [
            {
              "code": "785-6",
              "system": "http://loinc.org",
              "display": "MCH [Entitic mass] by Automated count"
            }
          ],
          "text": "MCH [Entitic mass] by Automated count"
        },
        "valueQuantity": {
          "system": "http://unitsofmeasure.org",
          "value": 28.2,
          "unit": "pg",
          "code": "pg"
        },
        "referenceRange": [
          {
            "low": {
              "value": 27,
              "code": "pg",
              "system": "http://unitsofmeasure.org"
            }
          },
          {
            "high": {
              "value": 33,
              "code": "pg",
              "system": "http://unitsofmeasure.org"
            }
          }
        ],
        "text": {
          "status": "generated",
          "div": "<div xmlns=\"http://www.w3.org/1999/xhtml\"><table class=\"hl7__eu__lab__report\"><tr><th>Test</th><th>25-Feb-2023</th><th>Reference&#xA0;Range</th><th>Unit</th></tr><tr><td>MCH [Entitic mass] by Automated count</td><td>28.2</td><td>27 - 33</td><td></td><td>pg</td></tr></table></div>"
        },
        "status": "final",
        "subject": {
          "reference": "urn:uuid:176e40ee-79dd-415b-8b4d-bb5428284336",
          "display": "Lydia Ward"
        },
        "effectiveDateTime": "2023-02-24T23:08:09Z",
        "specimen": {
          "reference": "urn:uuid:7baa50d1-b891-4efe-9623-75ba2fdfd172"
        }
      }
    },
    {
      "fullUrl": "urn:uuid:600a72a6-0e9d-4a4d-8329-f73e5de4132d",
      "resource": {
        "resourceType": "Observation",
        "id": "600a72a6-0e9d-4a4d-8329-f73e5de4132d",
        "meta": {
          "profile": [
            "http://hl7.eu/fhir/laboratory/StructureDefinition/Observation-resultslab-eu-lab"
          ]
        },
        "performer": [
          {
            "display": "The Central European Lab"
          }
        ],
        "category": [
          {
            "coding": [
              {
                "system": "http://terminology.hl7.org/CodeSystem/observation-category",
                "code": "laboratory"
              }
            ]
          }
        ],
        "code": {
          "coding": [
            {
              "code": "786-4",
              "system": "http://loinc.org",
              "display": "MCHC [Mass/volume] by Automated count"
            }
          ],
          "text": "MCHC [Mass/volume] by Automated count"
        },
        "valueQuantity": {
          "system": "http://unitsofmeasure.org",
          "value": 35.9,
          "unit": "g/dL",
          "code": "g/dL"
        },
        "referenceRange": [
          {
            "low": {
              "value": 32,
              "code": "g/dL",
              "system": "http://unitsofmeasure.org"
            }
          },
          {
            "high": {
              "value": 35.5,
              "code": "g/dL",
              "system": "http://unitsofmeasure.org"
            }
          }
        ],
        "interpretation": [
          {
            "coding": [
              {
                "code": "H",
                "system": "http://terminology.hl7.org/CodeSystem/v3-ObservationInterpretation",
                "display": "High"
              }
            ]
          }
        ],
        "text": {
          "status": "generated",
          "div": "<div xmlns=\"http://www.w3.org/1999/xhtml\"><table class=\"hl7__eu__lab__report\"><tr><th>Test</th><th>25-Feb-2023</th><th>Reference&#xA0;Range</th><th>Unit</th></tr><tr><td>MCHC [Mass/volume] by Automated count</td><td>35.9</td><td>32 - 35.5</td><td>H</td><td>g/dL</td></tr></table></div>"
        },
        "status": "final",
        "subject": {
          "reference": "urn:uuid:176e40ee-79dd-415b-8b4d-bb5428284336",
          "display": "Lydia Ward"
        },
        "effectiveDateTime": "2023-02-24T23:08:09Z",
        "specimen": {
          "reference": "urn:uuid:7baa50d1-b891-4efe-9623-75ba2fdfd172"
        }
      }
    },
    {
      "fullUrl": "urn:uuid:f73e0235-34a8-409e-b857-b1866bf6102c",
      "resource": {
        "resourceType": "Observation",
        "id": "f73e0235-34a8-409e-b857-b1866bf6102c",
        "meta": {
          "profile": [
            "http://hl7.eu/fhir/laboratory/StructureDefinition/Observation-resultslab-eu-lab"
          ]
        },
        "performer": [
          {
            "display": "The Central European Lab"
          }
        ],
        "category": [
          {
            "coding": [
              {
                "system": "http://terminology.hl7.org/CodeSystem/observation-category",
                "code": "laboratory"
              }
            ]
          }
        ],
        "code": {
          "coding": [
            {
              "code": "21000-5",
              "system": "http://loinc.org",
              "display": "Erythrocyte distribution width [Entitic volume] by Automated count"
            }
          ],
          "text": "Erythrocyte distribution width [Entitic volume] by Automated count"
        },
        "valueQuantity": {
          "system": "http://unitsofmeasure.org",
          "value": 44.2,
          "unit": "fL",
          "code": "fL"
        },
        "referenceRange": [
          {
            "low": {
              "value": 36,
              "code": "fL",
              "system": "http://unitsofmeasure.org"
            }
          },
          {
            "high": {
              "value": 56,
              "code": "fL",
              "system": "http://unitsofmeasure.org"
            }
          }
        ],
        "text": {
          "status": "generated",
          "div": "<div xmlns=\"http://www.w3.org/1999/xhtml\"><table class=\"hl7__eu__lab__report\"><tr><th>Test</th><th>25-Feb-2023</th><th>Reference&#xA0;Range</th><th>Unit</th></tr><tr><td>Erythrocyte distribution width [Entitic volume] by Automated count</td><td>44.2</td><td>36 - 56</td><td></td><td>fL</td></tr></table></div>"
        },
        "status": "final",
        "subject": {
          "reference": "urn:uuid:176e40ee-79dd-415b-8b4d-bb5428284336",
          "display": "Lydia Ward"
        },
        "effectiveDateTime": "2023-02-24T23:08:09Z",
        "specimen": {
          "reference": "urn:uuid:7baa50d1-b891-4efe-9623-75ba2fdfd172"
        }
      }
    },
    {
      "fullUrl": "urn:uuid:e1a88202-68d6-4fba-ba75-4fc6b431bd4f",
      "resource": {
        "resourceType": "Observation",
        "id": "e1a88202-68d6-4fba-ba75-4fc6b431bd4f",
        "meta": {
          "profile": [
            "http://hl7.eu/fhir/laboratory/StructureDefinition/Observation-resultslab-eu-lab"
          ]
        },
        "performer": [
          {
            "display": "The Central European Lab"
          }
        ],
        "category": [
          {
            "coding": [
              {
                "system": "http://terminology.hl7.org/CodeSystem/observation-category",
                "code": "laboratory"
              }
            ]
          }
        ],
        "code": {
          "coding": [
            {
              "code": "777-3",
              "system": "http://loinc.org",
              "display": "Platelets [#/volume] in Blood by Automated count"
            }
          ],
          "text": "Platelets [#/volume] in Blood by Automated count"
        },
        "valueQuantity": {
          "system": "http://unitsofmeasure.org",
          "value": 379.8,
          "unit": "10*3/uL",
          "code": "10*3/uL"
        },
        "referenceRange": [
          {
            "low": {
              "value": 150,
              "code": "10*3/uL",
              "system": "http://unitsofmeasure.org"
            }
          },
          {
            "high": {
              "value": 450,
              "code": "10*3/uL",
              "system": "http://unitsofmeasure.org"
            }
          }
        ],
        "text": {
          "status": "generated",
          "div": "<div xmlns=\"http://www.w3.org/1999/xhtml\"><table class=\"hl7__eu__lab__report\"><tr><th>Test</th><th>25-Feb-2023</th><th>Reference&#xA0;Range</th><th>Unit</th></tr><tr><td>Platelets [#/volume] in Blood by Automated count</td><td>379.8</td><td>150 - 450</td><td></td><td>10*3/uL</td></tr></table></div>"
        },
        "status": "final",
        "subject": {
          "reference": "urn:uuid:176e40ee-79dd-415b-8b4d-bb5428284336",
          "display": "Lydia Ward"
        },
        "effectiveDateTime": "2023-02-24T23:08:09Z",
        "specimen": {
          "reference": "urn:uuid:7baa50d1-b891-4efe-9623-75ba2fdfd172"
        }
      }
    },
    {
      "fullUrl": "urn:uuid:943beb9e-05ac-4926-9a40-c444730a8755",
      "resource": {
        "resourceType": "Observation",
        "id": "943beb9e-05ac-4926-9a40-c444730a8755",
        "meta": {
          "profile": [
            "http://hl7.eu/fhir/laboratory/StructureDefinition/Observation-resultslab-eu-lab"
          ]
        },
        "performer": [
          {
            "display": "The Central European Lab"
          }
        ],
        "category": [
          {
            "coding": [
              {
                "system": "http://terminology.hl7.org/CodeSystem/observation-category",
                "code": "laboratory"
              }
            ]
          }
        ],
        "code": {
          "coding": [
            {
              "code": "32207-3",
              "system": "http://loinc.org",
              "display": "Platelet distribution width [Entitic volume] in Blood by Automated count"
            }
          ],
          "text": "Platelet distribution width [Entitic volume] in Blood by Automated count"
        },
        "valueQuantity": {
          "system": "http://unitsofmeasure.org",
          "value": 268.5,
          "unit": "fL",
          "code": "fL"
        },
        "referenceRange": [
          {
            "low": {
              "value": 150,
              "code": "fL",
              "system": "http://unitsofmeasure.org"
            }
          },
          {
            "high": {
              "value": 450,
              "code": "fL",
              "system": "http://unitsofmeasure.org"
            }
          }
        ],
        "text": {
          "status": "generated",
          "div": "<div xmlns=\"http://www.w3.org/1999/xhtml\"><table class=\"hl7__eu__lab__report\"><tr><th>Test</th><th>25-Feb-2023</th><th>Reference&#xA0;Range</th><th>Unit</th></tr><tr><td>Platelet distribution width [Entitic volume] in Blood by Automated count</td><td>268.5</td><td>150 - 450</td><td></td><td>fL</td></tr></table></div>"
        },
        "status": "final",
        "subject": {
          "reference": "urn:uuid:176e40ee-79dd-415b-8b4d-bb5428284336",
          "display": "Lydia Ward"
        },
        "effectiveDateTime": "2023-02-24T23:08:09Z",
        "specimen": {
          "reference": "urn:uuid:7baa50d1-b891-4efe-9623-75ba2fdfd172"
        }
      }
    },
    {
      "fullUrl": "urn:uuid:91ce23bb-67f1-4989-857b-13b5f14a6689",
      "resource": {
        "resourceType": "Observation",
        "id": "91ce23bb-67f1-4989-857b-13b5f14a6689",
        "meta": {
          "profile": [
            "http://hl7.eu/fhir/laboratory/StructureDefinition/Observation-resultslab-eu-lab"
          ]
        },
        "performer": [
          {
            "display": "The Central European Lab"
          }
        ],
        "category": [
          {
            "coding": [
              {
                "system": "http://terminology.hl7.org/CodeSystem/observation-category",
                "code": "laboratory"
              }
            ]
          }
        ],
        "code": {
          "coding": [
            {
              "code": "32623-1",
              "system": "http://loinc.org",
              "display": "Platelet mean volume [Entitic volume] in Blood by Automated count"
            }
          ],
          "text": "Platelet mean volume [Entitic volume] in Blood by Automated count"
        },
        "valueQuantity": {
          "system": "http://unitsofmeasure.org",
          "value": 11.5,
          "unit": "fL",
          "code": "fL"
        },
        "referenceRange": [
          {
            "low": {
              "value": 7.4,
              "code": "fL",
              "system": "http://unitsofmeasure.org"
            }
          },
          {
            "high": {
              "value": 13.8,
              "code": "fL",
              "system": "http://unitsofmeasure.org"
            }
          }
        ],
        "text": {
          "status": "generated",
          "div": "<div xmlns=\"http://www.w3.org/1999/xhtml\"><table class=\"hl7__eu__lab__report\"><tr><th>Test</th><th>25-Feb-2023</th><th>Reference&#xA0;Range</th><th>Unit</th></tr><tr><td>Platelet mean volume [Entitic volume] in Blood by Automated count</td><td>11.5</td><td>7.4 - 13.8</td><td></td><td>fL</td></tr></table></div>"
        },
        "status": "final",
        "subject": {
          "reference": "urn:uuid:176e40ee-79dd-415b-8b4d-bb5428284336",
          "display": "Lydia Ward"
        },
        "effectiveDateTime": "2023-02-24T23:08:09Z",
        "specimen": {
          "reference": "urn:uuid:7baa50d1-b891-4efe-9623-75ba2fdfd172"
        }
      }
    },
    {
      "fullUrl": "urn:uuid:6a537bd0-6a77-4e76-8bb3-1752bd49943a",
      "resource": {
        "resourceType": "Device",
        "id": "6a537bd0-6a77-4e76-8bb3-1752bd49943a",
        "deviceName": [
          {
            "name": "SYNDERAI Synthetic Generator",
            "type": "manufacturer-name"
          }
        ],
        "version": [
          {
            "value": "5.0"
          }
        ],
        "text": {
          "status": "generated",
          "div": "<div xmlns=\"http://www.w3.org/1999/xhtml\">SYNDERAI Synthetic Generator v5.0</div>"
        },
        "status": "active\"",
        "distinctIdentifier": "synderai-generator-50",
        "manufacturer": "SYNDERAI Project"
      }
    },
    {
      "fullUrl": "urn:uuid:2072c496-45df-477e-8308-a7908d9f4c44",
      "resource": {
        "resourceType": "Provenance",
        "id": "2072c496-45df-477e-8308-a7908d9f4c44",
        "target": [
          {
            "reference": "Patient/176e40ee-79dd-415b-8b4d-bb5428284336"
          },
          {
            "reference": "Bundle/6e68767f-e669-42e5-a6d5-25a040280566"
          },
          {
            "reference": "Composition/985d3480-ba85-4a4c-b886-e80bfcfd0196"
          },
          {
            "reference": "PractitionerRole/bd64adf1-d954-40c5-878d-ab992d1a64d6"
          },
          {
            "reference": "Practitioner/2d4fff73-a867-4914-84f8-266544d1b83b"
          },
          {
            "reference": "PractitionerRole/51429323-4b7e-4896-a312-4153bd13e14f"
          },
          {
            "reference": "Organization/acf41b98-a0a4-45bd-81f8-ebf85a983606"
          }
        ],
        "activity": {
          "text": "Synthetic Example Data Generation"
        },
        "policy": [
          "https://synderai.net/synderai-synthetic-data-policy"
        ],
        "agent": [
          {
            "type": {
              "text": "author"
            },
            "who": {
              "reference": "Device/6a537bd0-6a77-4e76-8bb3-1752bd49943a"
            }
          }
        ],
        "reason": [
          {
            "text": "Interoperability Testing and Training (non-clinical use)"
          }
        ],
        "text": {
          "status": "generated",
          "div": "<div xmlns=\"http://www.w3.org/1999/xhtml\">Provenance for SYNDERAI Synthetic Example Data Resource</div>"
        },
        "recorded": "2023-02-25T00:08:09Z"
      }
    },
    {
      "fullUrl": "urn:uuid:bd64adf1-d954-40c5-878d-ab992d1a64d6",
      "resource": {
        "resourceType": "PractitionerRole",
        "id": "bd64adf1-d954-40c5-878d-ab992d1a64d6",
        "meta": {
          "profile": [
            "http://hl7.eu/fhir/base/StructureDefinition/practitionerRole-eu"
          ]
        },
        "text": {
          "status": "generated",
          "div": "<div xmlns=\"http://www.w3.org/1999/xhtml\">Laboratory Role Id: bd64adf1-d954-40c5-878d-ab992d1a64d6</div>"
        },
        "practitioner": {
          "reference": "urn:uuid:2d4fff73-a867-4914-84f8-266544d1b83b"
        }
      }
    },
    {
      "fullUrl": "urn:uuid:2d4fff73-a867-4914-84f8-266544d1b83b",
      "resource": {
        "resourceType": "Practitioner",
        "id": "2d4fff73-a867-4914-84f8-266544d1b83b",
        "meta": {
          "profile": [
            "http://hl7.eu/fhir/base/StructureDefinition/practitioner-eu"
          ]
        },
        "identifier": [
          {
            "assigner": {
              "display": "HL7 Europe"
            },
            "system": "urn:oid:2.16.840.1.113883.2.51.999",
            "value": "97fc3827-7d1f-413d-a23a-bbc36475d725"
          }
        ],
        "name": [
          {
            "prefix": [
              "dr"
            ],
            "given": [
              "Ex"
            ],
            "family": "Ample"
          }
        ],
        "address": [
          {
            "line": [
              "Laboratoire Central Européenne",
              "Boulevard du Jardin Botanique 32"
            ],
            "postalCode": "1000",
            "city": "Brussels",
            "country": "Belgium"
          }
        ],
        "text": {
          "status": "generated",
          "div": "<div xmlns=\"http://www.w3.org/1999/xhtml\">Laboratory: Laboratoire Central Européenne, 1000 Brussels, Belgium</div>"
        }
      }
    }
  ],
  "type": "document",
  "timestamp": "2023-02-25T00:08:09Z"
}
