{
  "resourceType": "Bundle",
  "id": "cb245bda-c7b9-4200-b9c4-9b97beeb58a3",
  "meta": {
    "profile": [
      "http://hl7.eu/fhir/laboratory/StructureDefinition/Bundle-eu-lab"
    ]
  },
  "identifier": {
    "assigner": {
      "display": "HL7 Europe"
    },
    "system": "urn:oid:2.16.840.1.113883.2.51.999",
    "value": "06313c7b-ed73-435b-8d44-eca2afa08976"
  },
  "entry": [
    {
      "fullUrl": "urn:uuid:e7869c8e-45da-42b6-8e09-8496790ebc56",
      "resource": {
        "resourceType": "Composition",
        "id": "e7869c8e-45da-42b6-8e09-8496790ebc56",
        "meta": {
          "profile": [
            "http://hl7.eu/fhir/laboratory/StructureDefinition/Composition-eu-lab"
          ]
        },
        "identifier": {
          "assigner": {
            "display": "HL7 Europe"
          },
          "system": "urn:oid:2.16.840.1.113883.2.51.999",
          "value": "59716590-6bd5-4dc5-a5b1-1dfdf73d319d"
        },
        "author": [
          {
            "reference": "urn:uuid:c99c680a-45f0-4743-a003-2c17180515a1"
          }
        ],
        "category": [
          {
            "coding": [
              {
                "code": "26436-6",
                "system": "http://loinc.org",
                "display": "Laboratory studies (set)"
              }
            ]
          }
        ],
        "type": {
          "coding": [
            {
              "code": "11502-2",
              "system": "http://loinc.org",
              "display": "Laboratory report"
            }
          ],
          "text": "Laboratory Report"
        },
        "section": [
          {
            "code": {
              "coding": [
                {
                  "code": "26436-6",
                  "system": "http://loinc.org",
                  "display": "Laboratory studies (set)"
                }
              ],
              "text": "Laboratory studies"
            },
            "section": [
              {
                "code": {
                  "coding": [
                    {
                      "code": "$18719-5",
                      "system": "http://loinc.org",
                      "display": "Chemistry studies (set)"
                    }
                  ],
                  "text": "Chemistry"
                },
                "entry": [
                  {
                    "reference": "urn:uuid:403e3199-23e1-4cf1-9d43-50b5ca40eaca"
                  },
                  {
                    "reference": "urn:uuid:2210ba71-ac71-432f-ab43-506298a5aa26"
                  },
                  {
                    "reference": "urn:uuid:e59ed000-1923-430a-933a-b57844b570b7"
                  },
                  {
                    "reference": "urn:uuid:f70ffa75-ac1f-4d4e-8b55-31887df646be"
                  },
                  {
                    "reference": "urn:uuid:969342ce-6f2f-458e-9c24-2ac958ed9de0"
                  },
                  {
                    "reference": "urn:uuid:0afd2bb8-9ef1-4e63-bdf9-2aad563a885b"
                  },
                  {
                    "reference": "urn:uuid:aec26bc2-e463-4e14-bab2-34ea0605adbd"
                  },
                  {
                    "reference": "urn:uuid:7318f3d8-de3a-453b-9372-6d0161aeb9b8"
                  },
                  {
                    "reference": "urn:uuid:fce2fd8c-1879-40a1-baf6-e2d64a627057"
                  }
                ],
                "text": {
                  "status": "generated",
                  "div": "<div xmlns=\"http://www.w3.org/1999/xhtml\"><h3>Chemistry</h3><table class=\"hl7__eu__lab__report\"><thead><tr><th>Test</th><th>24-FEB-2022</th><th>Reference&#xA0;Range</th><th>Unit</th></tr></thead><tbody><tr><td>Hemoglobin A1c/Hemoglobin.total in Blood</td><td><strong>6.4 H</strong></td><td>4 - 6</td><td>%</td></tr><tr><td>Glucose [Mass/volume] in Blood</td><td>89.8</td><td>70 - 140</td><td>mg/dL</td></tr><tr><td>Urea nitrogen [Mass/volume] in Blood</td><td>17.3</td><td>7 - 25</td><td>mg/dL</td></tr><tr><td>Creatinine [Mass/volume] in Blood</td><td>0.7</td><td>0.6 - 1.1</td><td>mg/dL</td></tr><tr><td>Calcium [Mass/volume] in Blood</td><td>9.8</td><td>8.5 - 10.4</td><td>mg/dL</td></tr><tr><td>Sodium [Moles/volume] in Blood</td><td>143.3</td><td>135 - 145</td><td>mmol/L</td></tr><tr><td>Potassium [Moles/volume] in Blood</td><td>4.3</td><td>3.5 - 5.1</td><td>mmol/L</td></tr><tr><td>Chloride [Moles/volume] in Blood</td><td>103.6</td><td>98 - 108</td><td>mmol/L</td></tr><tr><td>Carbon dioxide, total [Moles/volume] in Blood</td><td>26.2</td><td>22 - 29</td><td>mmol/L</td></tr></tbody></table></div>"
                },
                "title": "Chemistry"
              }
            ],
            "title": "Laboratory Report"
          },
          {
            "text": {
              "status": "generated",
              "div": "<div xmlns=\"http://www.w3.org/1999/xhtml\"><h3>Annotation</h3><table class=\"hl7__eu__lab__report\"><tr><th>Conclusion and Recommendations based on this report and previous findings known to us</th></tr><tr><td>All parameters are within normal limits except for a mildly elevated HbA1c (6.4%), indicating impaired glucose metabolism or possible prediabetes/early diabetes. Renal function and electrolytes are normal. Recommend clinical correlation and consideration of lifestyle modification or further evaluation for glycemic control.</td></tr></table></div>"
            },
            "code": {
              "coding": [
                {
                  "system": "http://loinc.org",
                  "code": "48767-8",
                  "display": "Annotation comment"
                }
              ]
            },
            "title": "Annotation comment"
          }
        ],
        "status": "final",
        "subject": {
          "reference": "urn:uuid:982ae310-e2c0-4bc8-9ab9-b6ee654fb868",
          "display": "Vincenza Porzio"
        },
        "date": "2022-02-24T19:51:27Z",
        "title": "Laboratory Report",
        "confidentiality": "N"
      }
    },
    {
      "fullUrl": "urn:uuid:c721b8d5-236b-4729-abe5-4186bbcc4412",
      "resource": {
        "resourceType": "DiagnosticReport",
        "id": "c721b8d5-236b-4729-abe5-4186bbcc4412",
        "meta": {
          "profile": [
            "http://hl7.eu/fhir/laboratory/StructureDefinition/DiagnosticReport-eu-lab"
          ]
        },
        "identifier": [
          {
            "assigner": {
              "display": "HL7 Europe"
            },
            "system": "urn:oid:2.16.840.1.113883.2.51.999",
            "value": "da9515dc-8ca9-45f5-82f3-6f73d7530cf9"
          }
        ],
        "extension": [
          {
            "url": "http://hl7.org/fhir/5.0/StructureDefinition/extension-DiagnosticReport.composition",
            "valueReference": {
              "reference": "urn:uuid:59716590-6bd5-4dc5-a5b1-1dfdf73d319d"
            }
          }
        ],
        "category": [
          {
            "coding": [
              {
                "code": "26436-6",
                "system": "http://loinc.org",
                "display": "Laboratory studies (set)"
              }
            ]
          }
        ],
        "specimen": [
          {
            "reference": "urn:uuid:7873d179-d586-4f36-8950-6a47d508f178"
          }
        ],
        "result": [
          {
            "reference": "urn:uuid:403e3199-23e1-4cf1-9d43-50b5ca40eaca"
          },
          {
            "reference": "urn:uuid:2210ba71-ac71-432f-ab43-506298a5aa26"
          },
          {
            "reference": "urn:uuid:e59ed000-1923-430a-933a-b57844b570b7"
          },
          {
            "reference": "urn:uuid:f70ffa75-ac1f-4d4e-8b55-31887df646be"
          },
          {
            "reference": "urn:uuid:969342ce-6f2f-458e-9c24-2ac958ed9de0"
          },
          {
            "reference": "urn:uuid:0afd2bb8-9ef1-4e63-bdf9-2aad563a885b"
          },
          {
            "reference": "urn:uuid:aec26bc2-e463-4e14-bab2-34ea0605adbd"
          },
          {
            "reference": "urn:uuid:7318f3d8-de3a-453b-9372-6d0161aeb9b8"
          },
          {
            "reference": "urn:uuid:fce2fd8c-1879-40a1-baf6-e2d64a627057"
          }
        ],
        "status": "registered",
        "code": {
          "coding": [
            {
              "code": "11502-2",
              "system": "http://loinc.org",
              "display": "Laboratory report"
            }
          ]
        },
        "subject": {
          "reference": "urn:uuid:982ae310-e2c0-4bc8-9ab9-b6ee654fb868",
          "display": "Vincenza Porzio"
        }
      }
    },
    {
      "fullUrl": "urn:uuid:982ae310-e2c0-4bc8-9ab9-b6ee654fb868",
      "resource": {
        "resourceType": "Patient",
        "id": "982ae310-e2c0-4bc8-9ab9-b6ee654fb868",
        "meta": {
          "security": [
            {
              "system": "http://terminology.hl7.org/CodeSystem/v3-ActReason",
              "code": "HTEST"
            },
            {
              "system": "http://terminology.hl7.org/CodeSystem/v3-ActReason",
              "code": "TRAIN"
            }
          ],
          "tag": [
            {
              "system": "https://synderai.net/fhir/CodeSystem/tags",
              "code": "synthetic",
              "display": "SYNDERAI Synthetic data"
            }
          ],
          "profile": [
            "http://hl7.eu/fhir/base/StructureDefinition/patient-eu-core"
          ]
        },
        "identifier": [
          {
            "type": {
              "coding": [
                {
                  "code": "PT",
                  "system": "http://terminology.hl7.org/CodeSystem/v2-0203"
                }
              ]
            },
            "system": "http://ec.europa.eu/identifier/eci",
            "value": "9988-341158-1"
          },
          {
            "type": {
              "coding": [
                {
                  "code": "MR",
                  "system": "http://terminology.hl7.org/CodeSystem/v2-0203"
                }
              ]
            },
            "system": "http://local.setting.eu/identifier",
            "value": "559a1acd-87c3-5b56-0345-4eaff6c5aa0a"
          }
        ],
        "name": [
          {
            "family": "Porzio"
          },
          {
            "given": [
              "Vincenza"
            ]
          },
          {
            "text": "Vincenza Porzio"
          }
        ],
        "address": [
          {
            "line": [
              "Piazza Allegra, 720"
            ],
            "use": "home",
            "type": "physical",
            "postalCode": "36040",
            "city": "Grumolo Pedemonte",
            "country": "Italy"
          }
        ],
        "telecom": [
          {
            "system": "phone",
            "value": "041007473"
          }
        ],
        "extension": [
          {
            "url": "http://hl7.org/fhir/StructureDefinition/patient-nationality",
            "valueCodeableConcept": {
              "coding": [
                {
                  "code": "IT",
                  "system": "http://hl7.org/fhir/ValueSet/country"
                }
              ]
            }
          }
        ],
        "text": {
          "status": "generated",
          "div": "<div xmlns=\"http://www.w3.org/1999/xhtml\"><table class=\"hl7__ips\"><tr><td>Vincenza Porzio</td><td>female</td><td>13-Sep-1965</td></tr></table></div>"
        },
        "gender": "female",
        "birthDate": "1965-09-13"
      }
    },
    {
      "fullUrl": "urn:uuid:1b7502e0-eca6-4bff-b9a8-3ef7a8d08143",
      "resource": {
        "resourceType": "ServiceRequest",
        "id": "1b7502e0-eca6-4bff-b9a8-3ef7a8d08143",
        "meta": {
          "profile": [
            "http://hl7.eu/fhir/laboratory/StructureDefinition/ServiceRequest-eu-lab"
          ]
        },
        "identifier": [
          {
            "system": "http://example.org",
            "value": "c7cee722-cb8b-48b3-aedb-82445ff2d8d6"
          }
        ],
        "specimen": [
          {
            "reference": "urn:uuid:7873d179-d586-4f36-8950-6a47d508f178"
          }
        ],
        "reasonCode": [
          {
            "coding": [
              {
                "code": "40055000",
                "system": "http://snomed.info/sct",
                "display": "Chronic sinusitis"
              }
            ]
          },
          {
            "coding": [
              {
                "code": "15777000",
                "system": "http://snomed.info/sct",
                "display": "Prediabetes"
              }
            ]
          },
          {
            "coding": [
              {
                "code": "239873007",
                "system": "http://snomed.info/sct",
                "display": "Osteoarthritis of knee"
              }
            ]
          },
          {
            "coding": [
              {
                "code": "6525002",
                "system": "http://snomed.info/sct",
                "display": "Dependent drug abuse"
              }
            ]
          },
          {
            "coding": [
              {
                "code": "196416002",
                "system": "http://snomed.info/sct",
                "display": "Impacted molars"
              }
            ]
          },
          {
            "coding": [
              {
                "code": "124171000119105",
                "system": "http://snomed.info/sct",
                "display": "Chronic intractable migraine without aura"
              }
            ]
          }
        ],
        "status": "active",
        "intent": "order",
        "code": {
          "coding": [
            {
              "code": "108252007",
              "system": "http://snomed.info/sct",
              "display": "Laboratory procedure"
            }
          ]
        },
        "subject": {
          "reference": "urn:uuid:982ae310-e2c0-4bc8-9ab9-b6ee654fb868",
          "display": "Vincenza Porzio"
        },
        "requester": {
          "reference": "urn:uuid:1d88ea50-64fc-4f64-a54b-8354fdcac145"
        }
      }
    },
    {
      "fullUrl": "urn:uuid:1d88ea50-64fc-4f64-a54b-8354fdcac145",
      "resource": {
        "resourceType": "PractitionerRole",
        "id": "1d88ea50-64fc-4f64-a54b-8354fdcac145",
        "meta": {
          "profile": [
            "http://hl7.eu/fhir/base/StructureDefinition/practitionerRole-eu"
          ]
        },
        "text": {
          "status": "generated",
          "div": "<div xmlns=\"http://www.w3.org/1999/xhtml\">Provider Role Id: 1d88ea50-64fc-4f64-a54b-8354fdcac145</div>"
        },
        "organization": {
          "reference": "urn:uuid:2ff14cbc-257f-455f-ba01-2a05d6701f58"
        }
      }
    },
    {
      "fullUrl": "urn:uuid:2ff14cbc-257f-455f-ba01-2a05d6701f58",
      "resource": {
        "resourceType": "Organization",
        "id": "2ff14cbc-257f-455f-ba01-2a05d6701f58",
        "meta": {
          "profile": [
            "http://hl7.eu/fhir/base/StructureDefinition/organization-eu"
          ]
        },
        "identifier": [
          {
            "assigner": {
              "display": "HL7 Europe"
            },
            "system": "urn:oid:2.16.840.1.113883.2.51.999",
            "value": "28f23de1-baf5-42dd-9119-c5b0cb910607"
          }
        ],
        "address": [
          {
            "country": "Italy"
          }
        ],
        "text": {
          "status": "generated",
          "div": "<div xmlns=\"http://www.w3.org/1999/xhtml\">Provider Organization: Villa Margherita</div>"
        },
        "name": "Villa Margherita"
      }
    },
    {
      "fullUrl": "urn:uuid:7873d179-d586-4f36-8950-6a47d508f178",
      "resource": {
        "resourceType": "Specimen",
        "id": "7873d179-d586-4f36-8950-6a47d508f178",
        "meta": {
          "profile": [
            "http://hl7.eu/fhir/laboratory/StructureDefinition/Specimen-eu-lab"
          ]
        },
        "collection": {
          "collectedDateTime": "2022-02-24"
        },
        "text": {
          "status": "generated",
          "div": "<div xmlns=\"http://www.w3.org/1999/xhtml\"><table class=\"hl7__eu__lab__report\"><tr><th>Specimen</th><th>Collection Date</th></tr><tr><td>Whole blood specimen (specimen)</td><td><span class=\"nb\">24-Feb-2022</span></td></tr></table></div>"
        },
        "type": {
          "coding": [
            {
              "code": "258580003",
              "system": "http://snomed.info/sct",
              "display": "Whole blood specimen (specimen)"
            }
          ]
        }
      }
    },
    {
      "fullUrl": "urn:uuid:403e3199-23e1-4cf1-9d43-50b5ca40eaca",
      "resource": {
        "resourceType": "Observation",
        "id": "403e3199-23e1-4cf1-9d43-50b5ca40eaca",
        "meta": {
          "profile": [
            "http://hl7.eu/fhir/laboratory/StructureDefinition/Observation-resultslab-eu-lab"
          ]
        },
        "performer": [
          {
            "display": "The Central European Lab"
          }
        ],
        "category": [
          {
            "coding": [
              {
                "system": "http://terminology.hl7.org/CodeSystem/observation-category",
                "code": "laboratory"
              }
            ]
          }
        ],
        "code": {
          "coding": [
            {
              "code": "4548-4",
              "system": "http://loinc.org",
              "display": "Hemoglobin A1c/Hemoglobin.total in Blood"
            }
          ],
          "text": "Hemoglobin A1c/Hemoglobin.total in Blood"
        },
        "valueQuantity": {
          "system": "http://unitsofmeasure.org",
          "value": 6.4,
          "unit": "%",
          "code": "%"
        },
        "referenceRange": [
          {
            "low": {
              "value": 4,
              "code": "%",
              "system": "http://unitsofmeasure.org"
            }
          },
          {
            "high": {
              "value": 6,
              "code": "%",
              "system": "http://unitsofmeasure.org"
            }
          }
        ],
        "interpretation": [
          {
            "coding": [
              {
                "code": "H",
                "system": "http://terminology.hl7.org/CodeSystem/v3-ObservationInterpretation",
                "display": "High"
              }
            ]
          }
        ],
        "text": {
          "status": "generated",
          "div": "<div xmlns=\"http://www.w3.org/1999/xhtml\"><table class=\"hl7__eu__lab__report\"><tr><th>Test</th><th>24-Feb-2022</th><th>Reference&#xA0;Range</th><th>Unit</th></tr><tr><td>Hemoglobin A1c/Hemoglobin.total in Blood</td><td>6.4</td><td>4 - 6</td><td>H</td><td>%</td></tr></table></div>"
        },
        "status": "final",
        "subject": {
          "reference": "urn:uuid:982ae310-e2c0-4bc8-9ab9-b6ee654fb868",
          "display": "Vincenza Porzio"
        },
        "effectiveDateTime": "2022-02-24T18:51:27Z",
        "specimen": {
          "reference": "urn:uuid:7873d179-d586-4f36-8950-6a47d508f178"
        }
      }
    },
    {
      "fullUrl": "urn:uuid:2210ba71-ac71-432f-ab43-506298a5aa26",
      "resource": {
        "resourceType": "Observation",
        "id": "2210ba71-ac71-432f-ab43-506298a5aa26",
        "meta": {
          "profile": [
            "http://hl7.eu/fhir/laboratory/StructureDefinition/Observation-resultslab-eu-lab"
          ]
        },
        "performer": [
          {
            "display": "The Central European Lab"
          }
        ],
        "category": [
          {
            "coding": [
              {
                "system": "http://terminology.hl7.org/CodeSystem/observation-category",
                "code": "laboratory"
              }
            ]
          }
        ],
        "code": {
          "coding": [
            {
              "code": "2339-0",
              "system": "http://loinc.org",
              "display": "Glucose [Mass/volume] in Blood"
            }
          ],
          "text": "Glucose [Mass/volume] in Blood"
        },
        "valueQuantity": {
          "system": "http://unitsofmeasure.org",
          "value": 89.8,
          "unit": "mg/dL",
          "code": "mg/dL"
        },
        "referenceRange": [
          {
            "low": {
              "value": 70,
              "code": "mg/dL",
              "system": "http://unitsofmeasure.org"
            }
          },
          {
            "high": {
              "value": 140,
              "code": "mg/dL",
              "system": "http://unitsofmeasure.org"
            }
          }
        ],
        "text": {
          "status": "generated",
          "div": "<div xmlns=\"http://www.w3.org/1999/xhtml\"><table class=\"hl7__eu__lab__report\"><tr><th>Test</th><th>24-Feb-2022</th><th>Reference&#xA0;Range</th><th>Unit</th></tr><tr><td>Glucose [Mass/volume] in Blood</td><td>89.8</td><td>70 - 140</td><td></td><td>mg/dL</td></tr></table></div>"
        },
        "status": "final",
        "subject": {
          "reference": "urn:uuid:982ae310-e2c0-4bc8-9ab9-b6ee654fb868",
          "display": "Vincenza Porzio"
        },
        "effectiveDateTime": "2022-02-24T18:51:27Z",
        "specimen": {
          "reference": "urn:uuid:7873d179-d586-4f36-8950-6a47d508f178"
        }
      }
    },
    {
      "fullUrl": "urn:uuid:e59ed000-1923-430a-933a-b57844b570b7",
      "resource": {
        "resourceType": "Observation",
        "id": "e59ed000-1923-430a-933a-b57844b570b7",
        "meta": {
          "profile": [
            "http://hl7.eu/fhir/laboratory/StructureDefinition/Observation-resultslab-eu-lab"
          ]
        },
        "performer": [
          {
            "display": "The Central European Lab"
          }
        ],
        "category": [
          {
            "coding": [
              {
                "system": "http://terminology.hl7.org/CodeSystem/observation-category",
                "code": "laboratory"
              }
            ]
          }
        ],
        "code": {
          "coding": [
            {
              "code": "6299-2",
              "system": "http://loinc.org",
              "display": "Urea nitrogen [Mass/volume] in Blood"
            }
          ],
          "text": "Urea nitrogen [Mass/volume] in Blood"
        },
        "valueQuantity": {
          "system": "http://unitsofmeasure.org",
          "value": 17.3,
          "unit": "mg/dL",
          "code": "mg/dL"
        },
        "referenceRange": [
          {
            "low": {
              "value": 7,
              "code": "mg/dL",
              "system": "http://unitsofmeasure.org"
            }
          },
          {
            "high": {
              "value": 25,
              "code": "mg/dL",
              "system": "http://unitsofmeasure.org"
            }
          }
        ],
        "text": {
          "status": "generated",
          "div": "<div xmlns=\"http://www.w3.org/1999/xhtml\"><table class=\"hl7__eu__lab__report\"><tr><th>Test</th><th>24-Feb-2022</th><th>Reference&#xA0;Range</th><th>Unit</th></tr><tr><td>Urea nitrogen [Mass/volume] in Blood</td><td>17.3</td><td>7 - 25</td><td></td><td>mg/dL</td></tr></table></div>"
        },
        "status": "final",
        "subject": {
          "reference": "urn:uuid:982ae310-e2c0-4bc8-9ab9-b6ee654fb868",
          "display": "Vincenza Porzio"
        },
        "effectiveDateTime": "2022-02-24T18:51:27Z",
        "specimen": {
          "reference": "urn:uuid:7873d179-d586-4f36-8950-6a47d508f178"
        }
      }
    },
    {
      "fullUrl": "urn:uuid:f70ffa75-ac1f-4d4e-8b55-31887df646be",
      "resource": {
        "resourceType": "Observation",
        "id": "f70ffa75-ac1f-4d4e-8b55-31887df646be",
        "meta": {
          "profile": [
            "http://hl7.eu/fhir/laboratory/StructureDefinition/Observation-resultslab-eu-lab"
          ]
        },
        "performer": [
          {
            "display": "The Central European Lab"
          }
        ],
        "category": [
          {
            "coding": [
              {
                "system": "http://terminology.hl7.org/CodeSystem/observation-category",
                "code": "laboratory"
              }
            ]
          }
        ],
        "code": {
          "coding": [
            {
              "code": "38483-4",
              "system": "http://loinc.org",
              "display": "Creatinine [Mass/volume] in Blood"
            }
          ],
          "text": "Creatinine [Mass/volume] in Blood"
        },
        "valueQuantity": {
          "system": "http://unitsofmeasure.org",
          "value": 0.7,
          "unit": "mg/dL",
          "code": "mg/dL"
        },
        "referenceRange": [
          {
            "low": {
              "value": 0.6,
              "code": "mg/dL",
              "system": "http://unitsofmeasure.org"
            }
          },
          {
            "high": {
              "value": 1.1,
              "code": "mg/dL",
              "system": "http://unitsofmeasure.org"
            }
          }
        ],
        "text": {
          "status": "generated",
          "div": "<div xmlns=\"http://www.w3.org/1999/xhtml\"><table class=\"hl7__eu__lab__report\"><tr><th>Test</th><th>24-Feb-2022</th><th>Reference&#xA0;Range</th><th>Unit</th></tr><tr><td>Creatinine [Mass/volume] in Blood</td><td>0.7</td><td>0.6 - 1.1</td><td></td><td>mg/dL</td></tr></table></div>"
        },
        "status": "final",
        "subject": {
          "reference": "urn:uuid:982ae310-e2c0-4bc8-9ab9-b6ee654fb868",
          "display": "Vincenza Porzio"
        },
        "effectiveDateTime": "2022-02-24T18:51:27Z",
        "specimen": {
          "reference": "urn:uuid:7873d179-d586-4f36-8950-6a47d508f178"
        }
      }
    },
    {
      "fullUrl": "urn:uuid:969342ce-6f2f-458e-9c24-2ac958ed9de0",
      "resource": {
        "resourceType": "Observation",
        "id": "969342ce-6f2f-458e-9c24-2ac958ed9de0",
        "meta": {
          "profile": [
            "http://hl7.eu/fhir/laboratory/StructureDefinition/Observation-resultslab-eu-lab"
          ]
        },
        "performer": [
          {
            "display": "The Central European Lab"
          }
        ],
        "category": [
          {
            "coding": [
              {
                "system": "http://terminology.hl7.org/CodeSystem/observation-category",
                "code": "laboratory"
              }
            ]
          }
        ],
        "code": {
          "coding": [
            {
              "code": "49765-1",
              "system": "http://loinc.org",
              "display": "Calcium [Mass/volume] in Blood"
            }
          ],
          "text": "Calcium [Mass/volume] in Blood"
        },
        "valueQuantity": {
          "system": "http://unitsofmeasure.org",
          "value": 9.8,
          "unit": "mg/dL",
          "code": "mg/dL"
        },
        "referenceRange": [
          {
            "low": {
              "value": 8.5,
              "code": "mg/dL",
              "system": "http://unitsofmeasure.org"
            }
          },
          {
            "high": {
              "value": 10.4,
              "code": "mg/dL",
              "system": "http://unitsofmeasure.org"
            }
          }
        ],
        "text": {
          "status": "generated",
          "div": "<div xmlns=\"http://www.w3.org/1999/xhtml\"><table class=\"hl7__eu__lab__report\"><tr><th>Test</th><th>24-Feb-2022</th><th>Reference&#xA0;Range</th><th>Unit</th></tr><tr><td>Calcium [Mass/volume] in Blood</td><td>9.8</td><td>8.5 - 10.4</td><td></td><td>mg/dL</td></tr></table></div>"
        },
        "status": "final",
        "subject": {
          "reference": "urn:uuid:982ae310-e2c0-4bc8-9ab9-b6ee654fb868",
          "display": "Vincenza Porzio"
        },
        "effectiveDateTime": "2022-02-24T18:51:27Z",
        "specimen": {
          "reference": "urn:uuid:7873d179-d586-4f36-8950-6a47d508f178"
        }
      }
    },
    {
      "fullUrl": "urn:uuid:0afd2bb8-9ef1-4e63-bdf9-2aad563a885b",
      "resource": {
        "resourceType": "Observation",
        "id": "0afd2bb8-9ef1-4e63-bdf9-2aad563a885b",
        "meta": {
          "profile": [
            "http://hl7.eu/fhir/laboratory/StructureDefinition/Observation-resultslab-eu-lab"
          ]
        },
        "performer": [
          {
            "display": "The Central European Lab"
          }
        ],
        "category": [
          {
            "coding": [
              {
                "system": "http://terminology.hl7.org/CodeSystem/observation-category",
                "code": "laboratory"
              }
            ]
          }
        ],
        "code": {
          "coding": [
            {
              "code": "2947-0",
              "system": "http://loinc.org",
              "display": "Sodium [Moles/volume] in Blood"
            }
          ],
          "text": "Sodium [Moles/volume] in Blood"
        },
        "valueQuantity": {
          "system": "http://unitsofmeasure.org",
          "value": 143.3,
          "unit": "mmol/L",
          "code": "mmol/L"
        },
        "referenceRange": [
          {
            "low": {
              "value": 135,
              "code": "mmol/L",
              "system": "http://unitsofmeasure.org"
            }
          },
          {
            "high": {
              "value": 145,
              "code": "mmol/L",
              "system": "http://unitsofmeasure.org"
            }
          }
        ],
        "text": {
          "status": "generated",
          "div": "<div xmlns=\"http://www.w3.org/1999/xhtml\"><table class=\"hl7__eu__lab__report\"><tr><th>Test</th><th>24-Feb-2022</th><th>Reference&#xA0;Range</th><th>Unit</th></tr><tr><td>Sodium [Moles/volume] in Blood</td><td>143.3</td><td>135 - 145</td><td></td><td>mmol/L</td></tr></table></div>"
        },
        "status": "final",
        "subject": {
          "reference": "urn:uuid:982ae310-e2c0-4bc8-9ab9-b6ee654fb868",
          "display": "Vincenza Porzio"
        },
        "effectiveDateTime": "2022-02-24T18:51:27Z",
        "specimen": {
          "reference": "urn:uuid:7873d179-d586-4f36-8950-6a47d508f178"
        }
      }
    },
    {
      "fullUrl": "urn:uuid:aec26bc2-e463-4e14-bab2-34ea0605adbd",
      "resource": {
        "resourceType": "Observation",
        "id": "aec26bc2-e463-4e14-bab2-34ea0605adbd",
        "meta": {
          "profile": [
            "http://hl7.eu/fhir/laboratory/StructureDefinition/Observation-resultslab-eu-lab"
          ]
        },
        "performer": [
          {
            "display": "The Central European Lab"
          }
        ],
        "category": [
          {
            "coding": [
              {
                "system": "http://terminology.hl7.org/CodeSystem/observation-category",
                "code": "laboratory"
              }
            ]
          }
        ],
        "code": {
          "coding": [
            {
              "code": "6298-4",
              "system": "http://loinc.org",
              "display": "Potassium [Moles/volume] in Blood"
            }
          ],
          "text": "Potassium [Moles/volume] in Blood"
        },
        "valueQuantity": {
          "system": "http://unitsofmeasure.org",
          "value": 4.3,
          "unit": "mmol/L",
          "code": "mmol/L"
        },
        "referenceRange": [
          {
            "low": {
              "value": 3.5,
              "code": "mmol/L",
              "system": "http://unitsofmeasure.org"
            }
          },
          {
            "high": {
              "value": 5.1,
              "code": "mmol/L",
              "system": "http://unitsofmeasure.org"
            }
          }
        ],
        "text": {
          "status": "generated",
          "div": "<div xmlns=\"http://www.w3.org/1999/xhtml\"><table class=\"hl7__eu__lab__report\"><tr><th>Test</th><th>24-Feb-2022</th><th>Reference&#xA0;Range</th><th>Unit</th></tr><tr><td>Potassium [Moles/volume] in Blood</td><td>4.3</td><td>3.5 - 5.1</td><td></td><td>mmol/L</td></tr></table></div>"
        },
        "status": "final",
        "subject": {
          "reference": "urn:uuid:982ae310-e2c0-4bc8-9ab9-b6ee654fb868",
          "display": "Vincenza Porzio"
        },
        "effectiveDateTime": "2022-02-24T18:51:27Z",
        "specimen": {
          "reference": "urn:uuid:7873d179-d586-4f36-8950-6a47d508f178"
        }
      }
    },
    {
      "fullUrl": "urn:uuid:7318f3d8-de3a-453b-9372-6d0161aeb9b8",
      "resource": {
        "resourceType": "Observation",
        "id": "7318f3d8-de3a-453b-9372-6d0161aeb9b8",
        "meta": {
          "profile": [
            "http://hl7.eu/fhir/laboratory/StructureDefinition/Observation-resultslab-eu-lab"
          ]
        },
        "performer": [
          {
            "display": "The Central European Lab"
          }
        ],
        "category": [
          {
            "coding": [
              {
                "system": "http://terminology.hl7.org/CodeSystem/observation-category",
                "code": "laboratory"
              }
            ]
          }
        ],
        "code": {
          "coding": [
            {
              "code": "2069-3",
              "system": "http://loinc.org",
              "display": "Chloride [Moles/volume] in Blood"
            }
          ],
          "text": "Chloride [Moles/volume] in Blood"
        },
        "valueQuantity": {
          "system": "http://unitsofmeasure.org",
          "value": 103.6,
          "unit": "mmol/L",
          "code": "mmol/L"
        },
        "referenceRange": [
          {
            "low": {
              "value": 98,
              "code": "mmol/L",
              "system": "http://unitsofmeasure.org"
            }
          },
          {
            "high": {
              "value": 108,
              "code": "mmol/L",
              "system": "http://unitsofmeasure.org"
            }
          }
        ],
        "text": {
          "status": "generated",
          "div": "<div xmlns=\"http://www.w3.org/1999/xhtml\"><table class=\"hl7__eu__lab__report\"><tr><th>Test</th><th>24-Feb-2022</th><th>Reference&#xA0;Range</th><th>Unit</th></tr><tr><td>Chloride [Moles/volume] in Blood</td><td>103.6</td><td>98 - 108</td><td></td><td>mmol/L</td></tr></table></div>"
        },
        "status": "final",
        "subject": {
          "reference": "urn:uuid:982ae310-e2c0-4bc8-9ab9-b6ee654fb868",
          "display": "Vincenza Porzio"
        },
        "effectiveDateTime": "2022-02-24T18:51:27Z",
        "specimen": {
          "reference": "urn:uuid:7873d179-d586-4f36-8950-6a47d508f178"
        }
      }
    },
    {
      "fullUrl": "urn:uuid:fce2fd8c-1879-40a1-baf6-e2d64a627057",
      "resource": {
        "resourceType": "Observation",
        "id": "fce2fd8c-1879-40a1-baf6-e2d64a627057",
        "meta": {
          "profile": [
            "http://hl7.eu/fhir/laboratory/StructureDefinition/Observation-resultslab-eu-lab"
          ]
        },
        "performer": [
          {
            "display": "The Central European Lab"
          }
        ],
        "category": [
          {
            "coding": [
              {
                "system": "http://terminology.hl7.org/CodeSystem/observation-category",
                "code": "laboratory"
              }
            ]
          }
        ],
        "code": {
          "coding": [
            {
              "code": "20565-8",
              "system": "http://loinc.org",
              "display": "Carbon dioxide, total [Moles/volume] in Blood"
            }
          ],
          "text": "Carbon dioxide, total [Moles/volume] in Blood"
        },
        "valueQuantity": {
          "system": "http://unitsofmeasure.org",
          "value": 26.2,
          "unit": "mmol/L",
          "code": "mmol/L"
        },
        "referenceRange": [
          {
            "low": {
              "value": 22,
              "code": "mmol/L",
              "system": "http://unitsofmeasure.org"
            }
          },
          {
            "high": {
              "value": 29,
              "code": "mmol/L",
              "system": "http://unitsofmeasure.org"
            }
          }
        ],
        "text": {
          "status": "generated",
          "div": "<div xmlns=\"http://www.w3.org/1999/xhtml\"><table class=\"hl7__eu__lab__report\"><tr><th>Test</th><th>24-Feb-2022</th><th>Reference&#xA0;Range</th><th>Unit</th></tr><tr><td>Carbon dioxide, total [Moles/volume] in Blood</td><td>26.2</td><td>22 - 29</td><td></td><td>mmol/L</td></tr></table></div>"
        },
        "status": "final",
        "subject": {
          "reference": "urn:uuid:982ae310-e2c0-4bc8-9ab9-b6ee654fb868",
          "display": "Vincenza Porzio"
        },
        "effectiveDateTime": "2022-02-24T18:51:27Z",
        "specimen": {
          "reference": "urn:uuid:7873d179-d586-4f36-8950-6a47d508f178"
        }
      }
    },
    {
      "fullUrl": "urn:uuid:9132ba71-f9a1-4b45-9b25-577dba6ac655",
      "resource": {
        "resourceType": "Device",
        "id": "9132ba71-f9a1-4b45-9b25-577dba6ac655",
        "deviceName": [
          {
            "name": "SYNDERAI Synthetic Generator",
            "type": "manufacturer-name"
          }
        ],
        "version": [
          {
            "value": "5.0"
          }
        ],
        "text": {
          "status": "generated",
          "div": "<div xmlns=\"http://www.w3.org/1999/xhtml\">SYNDERAI Synthetic Generator v5.0</div>"
        },
        "status": "active\"",
        "distinctIdentifier": "synderai-generator-50",
        "manufacturer": "SYNDERAI Project"
      }
    },
    {
      "fullUrl": "urn:uuid:de90161f-e151-4a91-b7ef-c5ba72a41ca7",
      "resource": {
        "resourceType": "Provenance",
        "id": "de90161f-e151-4a91-b7ef-c5ba72a41ca7",
        "target": [
          {
            "reference": "Patient/982ae310-e2c0-4bc8-9ab9-b6ee654fb868"
          },
          {
            "reference": "Bundle/cb245bda-c7b9-4200-b9c4-9b97beeb58a3"
          },
          {
            "reference": "Composition/e7869c8e-45da-42b6-8e09-8496790ebc56"
          },
          {
            "reference": "PractitionerRole/c99c680a-45f0-4743-a003-2c17180515a1"
          },
          {
            "reference": "Practitioner/369d27dc-0022-4fb2-9e10-d378ff8b5fc9"
          },
          {
            "reference": "PractitionerRole/1d88ea50-64fc-4f64-a54b-8354fdcac145"
          },
          {
            "reference": "Organization/2ff14cbc-257f-455f-ba01-2a05d6701f58"
          }
        ],
        "activity": {
          "text": "Synthetic Example Data Generation"
        },
        "policy": [
          "https://synderai.net/synderai-synthetic-data-policy"
        ],
        "agent": [
          {
            "type": {
              "text": "author"
            },
            "who": {
              "reference": "Device/9132ba71-f9a1-4b45-9b25-577dba6ac655"
            }
          }
        ],
        "reason": [
          {
            "text": "Interoperability Testing and Training (non-clinical use)"
          }
        ],
        "text": {
          "status": "generated",
          "div": "<div xmlns=\"http://www.w3.org/1999/xhtml\">Provenance for SYNDERAI Synthetic Example Data Resource</div>"
        },
        "recorded": "2022-02-24T19:51:27Z"
      }
    },
    {
      "fullUrl": "urn:uuid:c99c680a-45f0-4743-a003-2c17180515a1",
      "resource": {
        "resourceType": "PractitionerRole",
        "id": "c99c680a-45f0-4743-a003-2c17180515a1",
        "meta": {
          "profile": [
            "http://hl7.eu/fhir/base/StructureDefinition/practitionerRole-eu"
          ]
        },
        "text": {
          "status": "generated",
          "div": "<div xmlns=\"http://www.w3.org/1999/xhtml\">Laboratory Role Id: c99c680a-45f0-4743-a003-2c17180515a1</div>"
        },
        "practitioner": {
          "reference": "urn:uuid:369d27dc-0022-4fb2-9e10-d378ff8b5fc9"
        }
      }
    },
    {
      "fullUrl": "urn:uuid:369d27dc-0022-4fb2-9e10-d378ff8b5fc9",
      "resource": {
        "resourceType": "Practitioner",
        "id": "369d27dc-0022-4fb2-9e10-d378ff8b5fc9",
        "meta": {
          "profile": [
            "http://hl7.eu/fhir/base/StructureDefinition/practitioner-eu"
          ]
        },
        "identifier": [
          {
            "assigner": {
              "display": "HL7 Europe"
            },
            "system": "urn:oid:2.16.840.1.113883.2.51.999",
            "value": "f0ab817c-0e59-4cc8-b663-31a94634e1aa"
          }
        ],
        "name": [
          {
            "prefix": [
              "dr"
            ],
            "given": [
              "Ex"
            ],
            "family": "Ample"
          }
        ],
        "address": [
          {
            "line": [
              "Laboratoire Central Européenne",
              "Boulevard du Jardin Botanique 32"
            ],
            "postalCode": "1000",
            "city": "Brussels",
            "country": "Belgium"
          }
        ],
        "text": {
          "status": "generated",
          "div": "<div xmlns=\"http://www.w3.org/1999/xhtml\">Laboratory: Laboratoire Central Européenne, 1000 Brussels, Belgium</div>"
        }
      }
    }
  ],
  "type": "document",
  "timestamp": "2022-02-24T19:51:27Z"
}
