{
  "resourceType": "Bundle",
  "id": "5a2dfe51-92bd-410c-8459-e237bcc56204",
  "meta": {
    "profile": [
      "http://hl7.eu/fhir/laboratory/StructureDefinition/Bundle-eu-lab"
    ]
  },
  "identifier": {
    "assigner": {
      "display": "HL7 Europe"
    },
    "system": "urn:oid:2.16.840.1.113883.2.51.999",
    "value": "6a21f529-8205-4bd0-9d0e-2b4f96b4ebb5"
  },
  "entry": [
    {
      "fullUrl": "urn:uuid:3412c11d-2da7-468b-8041-e0c101c473ec",
      "resource": {
        "resourceType": "Composition",
        "id": "3412c11d-2da7-468b-8041-e0c101c473ec",
        "meta": {
          "profile": [
            "http://hl7.eu/fhir/laboratory/StructureDefinition/Composition-eu-lab"
          ]
        },
        "identifier": {
          "assigner": {
            "display": "HL7 Europe"
          },
          "system": "urn:oid:2.16.840.1.113883.2.51.999",
          "value": "713ea77b-94df-44b8-a971-81fb6e5dfdc5"
        },
        "author": [
          {
            "reference": "urn:uuid:74816d1d-e59c-428c-a274-677cedaf1534"
          }
        ],
        "category": [
          {
            "coding": [
              {
                "code": "26436-6",
                "system": "http://loinc.org",
                "display": "Laboratory studies (set)"
              }
            ]
          }
        ],
        "type": {
          "coding": [
            {
              "code": "11502-2",
              "system": "http://loinc.org",
              "display": "Laboratory report"
            }
          ],
          "text": "Laboratory Report"
        },
        "section": [
          {
            "code": {
              "coding": [
                {
                  "code": "26436-6",
                  "system": "http://loinc.org",
                  "display": "Laboratory studies (set)"
                }
              ],
              "text": "Laboratory studies"
            },
            "section": [
              {
                "code": {
                  "coding": [
                    {
                      "code": "$18719-5",
                      "system": "http://loinc.org",
                      "display": "Chemistry studies (set)"
                    }
                  ],
                  "text": "Chemistry"
                },
                "entry": [
                  {
                    "reference": "urn:uuid:99cd3921-b21a-44d2-b7f1-82008fc3c47f"
                  },
                  {
                    "reference": "urn:uuid:90c8c9cf-c1b8-4a3a-8e79-c0609ffbd054"
                  },
                  {
                    "reference": "urn:uuid:9d9630ed-aa0d-45c6-b93d-cc571ae0ddab"
                  },
                  {
                    "reference": "urn:uuid:f69b9ccd-9b7c-424a-8d35-5ffc19acd44a"
                  },
                  {
                    "reference": "urn:uuid:ab63d70b-62b7-4b98-9809-80e6db2de758"
                  },
                  {
                    "reference": "urn:uuid:d880d54e-5986-42e4-9f10-aaf53a9ce0bf"
                  },
                  {
                    "reference": "urn:uuid:b954266b-2e6f-4cb5-96d1-c8735b096848"
                  },
                  {
                    "reference": "urn:uuid:c51caed9-df11-4bcc-9f9b-2b535f9f256d"
                  },
                  {
                    "reference": "urn:uuid:ed984291-09b0-4c27-85f0-121531f64401"
                  }
                ],
                "text": {
                  "status": "generated",
                  "div": "<div xmlns=\"http://www.w3.org/1999/xhtml\"><h3>Chemistry</h3><table class=\"hl7__eu__lab__report\"><thead><tr><th>Test</th><th>23-NOV-2021</th><th>Reference&#xA0;Range</th><th>Unit</th></tr></thead><tbody><tr><td>Hemoglobin A1c/Hemoglobin.total in Blood</td><td>6.0</td><td>4.5 - 6.4</td><td>%</td></tr><tr><td>Glucose [Mass/volume] in Blood</td><td>83.9</td><td>70 - 140</td><td>mg/dL</td></tr><tr><td>Urea nitrogen [Mass/volume] in Blood</td><td>19.4</td><td>7 - 43</td><td>mg/dL</td></tr><tr><td>Creatinine [Mass/volume] in Blood</td><td>0.7</td><td>0.7 - 1.1</td><td>mg/dL</td></tr><tr><td>Calcium [Mass/volume] in Blood</td><td>8.9</td><td>8.5 - 10.4</td><td>mg/dL</td></tr><tr><td>Sodium [Moles/volume] in Blood</td><td>136.9</td><td>135 - 145</td><td>mmol/L</td></tr><tr><td>Potassium [Moles/volume] in Blood</td><td>4.1</td><td>3.5 - 5.1</td><td>mmol/L</td></tr><tr><td>Chloride [Moles/volume] in Blood</td><td><strong>107.1 H</strong></td><td>98 - 107</td><td>mmol/L</td></tr><tr><td>Carbon dioxide, total [Moles/volume] in Blood</td><td>28.2</td><td>22 - 32</td><td>mmol/L</td></tr></tbody></table></div>"
                },
                "title": "Chemistry"
              }
            ],
            "title": "Laboratory Report"
          },
          {
            "text": {
              "status": "generated",
              "div": "<div xmlns=\"http://www.w3.org/1999/xhtml\"><h3>Annotation</h3><table class=\"hl7__eu__lab__report\"><tr><th>Conclusion and Recommendations based on this report and previous findings known to us</th></tr><tr><td>All measured parameters are within or very close to normal limits. Hemoglobin A1c and glucose indicate good glycemic control. Slightly elevated chloride is likely not clinically significant in isolation. Renal function (urea, creatinine), electrolytes, and calcium are normal. No acute laboratory abnormalities detected; recommend clinical correlation.</td></tr></table></div>"
            },
            "code": {
              "coding": [
                {
                  "system": "http://loinc.org",
                  "code": "48767-8",
                  "display": "Annotation comment"
                }
              ]
            },
            "title": "Annotation comment"
          }
        ],
        "status": "final",
        "subject": {
          "reference": "urn:uuid:5aab5b65-2176-414e-9ff6-e65c04cec0bb",
          "display": "Louise Köster"
        },
        "date": "2021-11-23T05:02:53Z",
        "title": "Laboratory Report",
        "confidentiality": "N"
      }
    },
    {
      "fullUrl": "urn:uuid:97906f6d-4e2a-46a4-90fb-2a8921fd2b7b",
      "resource": {
        "resourceType": "DiagnosticReport",
        "id": "97906f6d-4e2a-46a4-90fb-2a8921fd2b7b",
        "meta": {
          "profile": [
            "http://hl7.eu/fhir/laboratory/StructureDefinition/DiagnosticReport-eu-lab"
          ]
        },
        "identifier": [
          {
            "assigner": {
              "display": "HL7 Europe"
            },
            "system": "urn:oid:2.16.840.1.113883.2.51.999",
            "value": "f117a43d-3c7c-472d-a905-3804c8c2668f"
          }
        ],
        "extension": [
          {
            "url": "http://hl7.org/fhir/5.0/StructureDefinition/extension-DiagnosticReport.composition",
            "valueReference": {
              "reference": "urn:uuid:713ea77b-94df-44b8-a971-81fb6e5dfdc5"
            }
          }
        ],
        "category": [
          {
            "coding": [
              {
                "code": "26436-6",
                "system": "http://loinc.org",
                "display": "Laboratory studies (set)"
              }
            ]
          }
        ],
        "specimen": [
          {
            "reference": "urn:uuid:847ee75c-2d53-46c6-946a-2c8bc3e6b9a0"
          }
        ],
        "result": [
          {
            "reference": "urn:uuid:99cd3921-b21a-44d2-b7f1-82008fc3c47f"
          },
          {
            "reference": "urn:uuid:90c8c9cf-c1b8-4a3a-8e79-c0609ffbd054"
          },
          {
            "reference": "urn:uuid:9d9630ed-aa0d-45c6-b93d-cc571ae0ddab"
          },
          {
            "reference": "urn:uuid:f69b9ccd-9b7c-424a-8d35-5ffc19acd44a"
          },
          {
            "reference": "urn:uuid:ab63d70b-62b7-4b98-9809-80e6db2de758"
          },
          {
            "reference": "urn:uuid:d880d54e-5986-42e4-9f10-aaf53a9ce0bf"
          },
          {
            "reference": "urn:uuid:b954266b-2e6f-4cb5-96d1-c8735b096848"
          },
          {
            "reference": "urn:uuid:c51caed9-df11-4bcc-9f9b-2b535f9f256d"
          },
          {
            "reference": "urn:uuid:ed984291-09b0-4c27-85f0-121531f64401"
          }
        ],
        "status": "registered",
        "code": {
          "coding": [
            {
              "code": "11502-2",
              "system": "http://loinc.org",
              "display": "Laboratory report"
            }
          ]
        },
        "subject": {
          "reference": "urn:uuid:5aab5b65-2176-414e-9ff6-e65c04cec0bb",
          "display": "Louise Köster"
        }
      }
    },
    {
      "fullUrl": "urn:uuid:5aab5b65-2176-414e-9ff6-e65c04cec0bb",
      "resource": {
        "resourceType": "Patient",
        "id": "5aab5b65-2176-414e-9ff6-e65c04cec0bb",
        "meta": {
          "security": [
            {
              "system": "http://terminology.hl7.org/CodeSystem/v3-ActReason",
              "code": "HTEST"
            },
            {
              "system": "http://terminology.hl7.org/CodeSystem/v3-ActReason",
              "code": "TRAIN"
            }
          ],
          "tag": [
            {
              "system": "https://synderai.net/fhir/CodeSystem/tags",
              "code": "synthetic",
              "display": "SYNDERAI Synthetic data"
            }
          ],
          "profile": [
            "http://hl7.eu/fhir/base/StructureDefinition/patient-eu-core"
          ]
        },
        "identifier": [
          {
            "type": {
              "coding": [
                {
                  "code": "PT",
                  "system": "http://terminology.hl7.org/CodeSystem/v2-0203"
                }
              ]
            },
            "system": "http://ec.europa.eu/identifier/eci",
            "value": "1053-167357-1"
          },
          {
            "type": {
              "coding": [
                {
                  "code": "MR",
                  "system": "http://terminology.hl7.org/CodeSystem/v2-0203"
                }
              ]
            },
            "system": "http://local.setting.eu/identifier",
            "value": "706b1a23-528f-0ed7-639f-1dc54e8ecc5d"
          }
        ],
        "name": [
          {
            "family": "Köster"
          },
          {
            "given": [
              "Louise"
            ]
          },
          {
            "text": "Louise Köster"
          }
        ],
        "address": [
          {
            "line": [
              "Regina-Butte-Ring 737"
            ],
            "use": "home",
            "type": "physical",
            "postalCode": "88348",
            "city": "Saulgau",
            "country": "Germany"
          }
        ],
        "telecom": [
          {
            "system": "phone",
            "value": "+49(0)2075293938"
          }
        ],
        "extension": [
          {
            "url": "http://hl7.org/fhir/StructureDefinition/patient-nationality",
            "valueCodeableConcept": {
              "coding": [
                {
                  "code": "DE",
                  "system": "http://hl7.org/fhir/ValueSet/country"
                }
              ]
            }
          }
        ],
        "text": {
          "status": "generated",
          "div": "<div xmlns=\"http://www.w3.org/1999/xhtml\"><table class=\"hl7__ips\"><tr><td>Louise Köster</td><td>female</td><td>01-Jul-1957</td></tr></table></div>"
        },
        "gender": "female",
        "birthDate": "1957-07-01"
      }
    },
    {
      "fullUrl": "urn:uuid:ae46c6b5-b4b0-47b5-b111-9b357f7e3811",
      "resource": {
        "resourceType": "ServiceRequest",
        "id": "ae46c6b5-b4b0-47b5-b111-9b357f7e3811",
        "meta": {
          "profile": [
            "http://hl7.eu/fhir/laboratory/StructureDefinition/ServiceRequest-eu-lab"
          ]
        },
        "identifier": [
          {
            "system": "http://example.org",
            "value": "490b138c-b008-4802-b3b9-46b1cd282f0a"
          }
        ],
        "specimen": [
          {
            "reference": "urn:uuid:847ee75c-2d53-46c6-946a-2c8bc3e6b9a0"
          }
        ],
        "reasonCode": [
          {
            "coding": [
              {
                "code": "15777000",
                "system": "http://snomed.info/sct",
                "display": "Prediabetes"
              }
            ]
          },
          {
            "coding": [
              {
                "code": "237602007",
                "system": "http://snomed.info/sct",
                "display": "Metabolic syndrome X"
              }
            ]
          },
          {
            "coding": [
              {
                "code": "414545008",
                "system": "http://snomed.info/sct",
                "display": "Ischemic heart disease"
              }
            ]
          },
          {
            "coding": [
              {
                "code": "59621000",
                "system": "http://snomed.info/sct",
                "display": "Essential hypertension"
              }
            ]
          }
        ],
        "status": "active",
        "intent": "order",
        "code": {
          "coding": [
            {
              "code": "108252007",
              "system": "http://snomed.info/sct",
              "display": "Laboratory procedure"
            }
          ]
        },
        "subject": {
          "reference": "urn:uuid:5aab5b65-2176-414e-9ff6-e65c04cec0bb",
          "display": "Louise Köster"
        },
        "requester": {
          "reference": "urn:uuid:8d5074f6-e0fd-4bbd-9d72-aed6ab629264"
        }
      }
    },
    {
      "fullUrl": "urn:uuid:8d5074f6-e0fd-4bbd-9d72-aed6ab629264",
      "resource": {
        "resourceType": "PractitionerRole",
        "id": "8d5074f6-e0fd-4bbd-9d72-aed6ab629264",
        "meta": {
          "profile": [
            "http://hl7.eu/fhir/base/StructureDefinition/practitionerRole-eu"
          ]
        },
        "text": {
          "status": "generated",
          "div": "<div xmlns=\"http://www.w3.org/1999/xhtml\">Provider Role Id: 8d5074f6-e0fd-4bbd-9d72-aed6ab629264</div>"
        },
        "organization": {
          "reference": "urn:uuid:acca3f4a-d997-490b-b34f-9c15374a3d94"
        }
      }
    },
    {
      "fullUrl": "urn:uuid:acca3f4a-d997-490b-b34f-9c15374a3d94",
      "resource": {
        "resourceType": "Organization",
        "id": "acca3f4a-d997-490b-b34f-9c15374a3d94",
        "meta": {
          "profile": [
            "http://hl7.eu/fhir/base/StructureDefinition/organization-eu"
          ]
        },
        "identifier": [
          {
            "assigner": {
              "display": "HL7 Europe"
            },
            "system": "urn:oid:2.16.840.1.113883.2.51.999",
            "value": "d41cbef4-88da-4bbc-a609-c1f7749d221f"
          }
        ],
        "address": [
          {
            "line": [
              "Am Schönen Moos 7"
            ],
            "city": "Bad Saulgau",
            "postalCode": "88348",
            "country": "Germany"
          }
        ],
        "text": {
          "status": "generated",
          "div": "<div xmlns=\"http://www.w3.org/1999/xhtml\">Provider Organization: Klinik am schönen Moos</div>"
        },
        "name": "Klinik am schönen Moos"
      }
    },
    {
      "fullUrl": "urn:uuid:847ee75c-2d53-46c6-946a-2c8bc3e6b9a0",
      "resource": {
        "resourceType": "Specimen",
        "id": "847ee75c-2d53-46c6-946a-2c8bc3e6b9a0",
        "meta": {
          "profile": [
            "http://hl7.eu/fhir/laboratory/StructureDefinition/Specimen-eu-lab"
          ]
        },
        "collection": {
          "collectedDateTime": "2021-11-23"
        },
        "text": {
          "status": "generated",
          "div": "<div xmlns=\"http://www.w3.org/1999/xhtml\"><table class=\"hl7__eu__lab__report\"><tr><th>Specimen</th><th>Collection Date</th></tr><tr><td>Whole blood specimen (specimen)</td><td><span class=\"nb\">23-Nov-2021</span></td></tr></table></div>"
        },
        "type": {
          "coding": [
            {
              "code": "258580003",
              "system": "http://snomed.info/sct",
              "display": "Whole blood specimen (specimen)"
            }
          ]
        }
      }
    },
    {
      "fullUrl": "urn:uuid:99cd3921-b21a-44d2-b7f1-82008fc3c47f",
      "resource": {
        "resourceType": "Observation",
        "id": "99cd3921-b21a-44d2-b7f1-82008fc3c47f",
        "meta": {
          "profile": [
            "http://hl7.eu/fhir/laboratory/StructureDefinition/Observation-resultslab-eu-lab"
          ]
        },
        "performer": [
          {
            "display": "The Central European Lab"
          }
        ],
        "category": [
          {
            "coding": [
              {
                "system": "http://terminology.hl7.org/CodeSystem/observation-category",
                "code": "laboratory"
              }
            ]
          }
        ],
        "code": {
          "coding": [
            {
              "code": "4548-4",
              "system": "http://loinc.org",
              "display": "Hemoglobin A1c/Hemoglobin.total in Blood"
            }
          ],
          "text": "Hemoglobin A1c/Hemoglobin.total in Blood"
        },
        "valueQuantity": {
          "system": "http://unitsofmeasure.org",
          "value": 6,
          "unit": "%",
          "code": "%"
        },
        "referenceRange": [
          {
            "low": {
              "value": 4.5,
              "code": "%",
              "system": "http://unitsofmeasure.org"
            }
          },
          {
            "high": {
              "value": 6.4,
              "code": "%",
              "system": "http://unitsofmeasure.org"
            }
          }
        ],
        "text": {
          "status": "generated",
          "div": "<div xmlns=\"http://www.w3.org/1999/xhtml\"><table class=\"hl7__eu__lab__report\"><tr><th>Test</th><th>23-Nov-2021</th><th>Reference&#xA0;Range</th><th>Unit</th></tr><tr><td>Hemoglobin A1c/Hemoglobin.total in Blood</td><td>6.0</td><td>4.5 - 6.4</td><td></td><td>%</td></tr></table></div>"
        },
        "status": "final",
        "subject": {
          "reference": "urn:uuid:5aab5b65-2176-414e-9ff6-e65c04cec0bb",
          "display": "Louise Köster"
        },
        "effectiveDateTime": "2021-11-23T04:02:53Z",
        "specimen": {
          "reference": "urn:uuid:847ee75c-2d53-46c6-946a-2c8bc3e6b9a0"
        }
      }
    },
    {
      "fullUrl": "urn:uuid:90c8c9cf-c1b8-4a3a-8e79-c0609ffbd054",
      "resource": {
        "resourceType": "Observation",
        "id": "90c8c9cf-c1b8-4a3a-8e79-c0609ffbd054",
        "meta": {
          "profile": [
            "http://hl7.eu/fhir/laboratory/StructureDefinition/Observation-resultslab-eu-lab"
          ]
        },
        "performer": [
          {
            "display": "The Central European Lab"
          }
        ],
        "category": [
          {
            "coding": [
              {
                "system": "http://terminology.hl7.org/CodeSystem/observation-category",
                "code": "laboratory"
              }
            ]
          }
        ],
        "code": {
          "coding": [
            {
              "code": "2339-0",
              "system": "http://loinc.org",
              "display": "Glucose [Mass/volume] in Blood"
            }
          ],
          "text": "Glucose [Mass/volume] in Blood"
        },
        "valueQuantity": {
          "system": "http://unitsofmeasure.org",
          "value": 83.9,
          "unit": "mg/dL",
          "code": "mg/dL"
        },
        "referenceRange": [
          {
            "low": {
              "value": 70,
              "code": "mg/dL",
              "system": "http://unitsofmeasure.org"
            }
          },
          {
            "high": {
              "value": 140,
              "code": "mg/dL",
              "system": "http://unitsofmeasure.org"
            }
          }
        ],
        "text": {
          "status": "generated",
          "div": "<div xmlns=\"http://www.w3.org/1999/xhtml\"><table class=\"hl7__eu__lab__report\"><tr><th>Test</th><th>23-Nov-2021</th><th>Reference&#xA0;Range</th><th>Unit</th></tr><tr><td>Glucose [Mass/volume] in Blood</td><td>83.9</td><td>70 - 140</td><td></td><td>mg/dL</td></tr></table></div>"
        },
        "status": "final",
        "subject": {
          "reference": "urn:uuid:5aab5b65-2176-414e-9ff6-e65c04cec0bb",
          "display": "Louise Köster"
        },
        "effectiveDateTime": "2021-11-23T04:02:53Z",
        "specimen": {
          "reference": "urn:uuid:847ee75c-2d53-46c6-946a-2c8bc3e6b9a0"
        }
      }
    },
    {
      "fullUrl": "urn:uuid:9d9630ed-aa0d-45c6-b93d-cc571ae0ddab",
      "resource": {
        "resourceType": "Observation",
        "id": "9d9630ed-aa0d-45c6-b93d-cc571ae0ddab",
        "meta": {
          "profile": [
            "http://hl7.eu/fhir/laboratory/StructureDefinition/Observation-resultslab-eu-lab"
          ]
        },
        "performer": [
          {
            "display": "The Central European Lab"
          }
        ],
        "category": [
          {
            "coding": [
              {
                "system": "http://terminology.hl7.org/CodeSystem/observation-category",
                "code": "laboratory"
              }
            ]
          }
        ],
        "code": {
          "coding": [
            {
              "code": "6299-2",
              "system": "http://loinc.org",
              "display": "Urea nitrogen [Mass/volume] in Blood"
            }
          ],
          "text": "Urea nitrogen [Mass/volume] in Blood"
        },
        "valueQuantity": {
          "system": "http://unitsofmeasure.org",
          "value": 19.4,
          "unit": "mg/dL",
          "code": "mg/dL"
        },
        "referenceRange": [
          {
            "low": {
              "value": 7,
              "code": "mg/dL",
              "system": "http://unitsofmeasure.org"
            }
          },
          {
            "high": {
              "value": 43,
              "code": "mg/dL",
              "system": "http://unitsofmeasure.org"
            }
          }
        ],
        "text": {
          "status": "generated",
          "div": "<div xmlns=\"http://www.w3.org/1999/xhtml\"><table class=\"hl7__eu__lab__report\"><tr><th>Test</th><th>23-Nov-2021</th><th>Reference&#xA0;Range</th><th>Unit</th></tr><tr><td>Urea nitrogen [Mass/volume] in Blood</td><td>19.4</td><td>7 - 43</td><td></td><td>mg/dL</td></tr></table></div>"
        },
        "status": "final",
        "subject": {
          "reference": "urn:uuid:5aab5b65-2176-414e-9ff6-e65c04cec0bb",
          "display": "Louise Köster"
        },
        "effectiveDateTime": "2021-11-23T04:02:53Z",
        "specimen": {
          "reference": "urn:uuid:847ee75c-2d53-46c6-946a-2c8bc3e6b9a0"
        }
      }
    },
    {
      "fullUrl": "urn:uuid:f69b9ccd-9b7c-424a-8d35-5ffc19acd44a",
      "resource": {
        "resourceType": "Observation",
        "id": "f69b9ccd-9b7c-424a-8d35-5ffc19acd44a",
        "meta": {
          "profile": [
            "http://hl7.eu/fhir/laboratory/StructureDefinition/Observation-resultslab-eu-lab"
          ]
        },
        "performer": [
          {
            "display": "The Central European Lab"
          }
        ],
        "category": [
          {
            "coding": [
              {
                "system": "http://terminology.hl7.org/CodeSystem/observation-category",
                "code": "laboratory"
              }
            ]
          }
        ],
        "code": {
          "coding": [
            {
              "code": "38483-4",
              "system": "http://loinc.org",
              "display": "Creatinine [Mass/volume] in Blood"
            }
          ],
          "text": "Creatinine [Mass/volume] in Blood"
        },
        "valueQuantity": {
          "system": "http://unitsofmeasure.org",
          "value": 0.7,
          "unit": "mg/dL",
          "code": "mg/dL"
        },
        "referenceRange": [
          {
            "low": {
              "value": 0.7,
              "code": "mg/dL",
              "system": "http://unitsofmeasure.org"
            }
          },
          {
            "high": {
              "value": 1.1,
              "code": "mg/dL",
              "system": "http://unitsofmeasure.org"
            }
          }
        ],
        "text": {
          "status": "generated",
          "div": "<div xmlns=\"http://www.w3.org/1999/xhtml\"><table class=\"hl7__eu__lab__report\"><tr><th>Test</th><th>23-Nov-2021</th><th>Reference&#xA0;Range</th><th>Unit</th></tr><tr><td>Creatinine [Mass/volume] in Blood</td><td>0.7</td><td>0.7 - 1.1</td><td></td><td>mg/dL</td></tr></table></div>"
        },
        "status": "final",
        "subject": {
          "reference": "urn:uuid:5aab5b65-2176-414e-9ff6-e65c04cec0bb",
          "display": "Louise Köster"
        },
        "effectiveDateTime": "2021-11-23T04:02:53Z",
        "specimen": {
          "reference": "urn:uuid:847ee75c-2d53-46c6-946a-2c8bc3e6b9a0"
        }
      }
    },
    {
      "fullUrl": "urn:uuid:ab63d70b-62b7-4b98-9809-80e6db2de758",
      "resource": {
        "resourceType": "Observation",
        "id": "ab63d70b-62b7-4b98-9809-80e6db2de758",
        "meta": {
          "profile": [
            "http://hl7.eu/fhir/laboratory/StructureDefinition/Observation-resultslab-eu-lab"
          ]
        },
        "performer": [
          {
            "display": "The Central European Lab"
          }
        ],
        "category": [
          {
            "coding": [
              {
                "system": "http://terminology.hl7.org/CodeSystem/observation-category",
                "code": "laboratory"
              }
            ]
          }
        ],
        "code": {
          "coding": [
            {
              "code": "49765-1",
              "system": "http://loinc.org",
              "display": "Calcium [Mass/volume] in Blood"
            }
          ],
          "text": "Calcium [Mass/volume] in Blood"
        },
        "valueQuantity": {
          "system": "http://unitsofmeasure.org",
          "value": 8.9,
          "unit": "mg/dL",
          "code": "mg/dL"
        },
        "referenceRange": [
          {
            "low": {
              "value": 8.5,
              "code": "mg/dL",
              "system": "http://unitsofmeasure.org"
            }
          },
          {
            "high": {
              "value": 10.4,
              "code": "mg/dL",
              "system": "http://unitsofmeasure.org"
            }
          }
        ],
        "text": {
          "status": "generated",
          "div": "<div xmlns=\"http://www.w3.org/1999/xhtml\"><table class=\"hl7__eu__lab__report\"><tr><th>Test</th><th>23-Nov-2021</th><th>Reference&#xA0;Range</th><th>Unit</th></tr><tr><td>Calcium [Mass/volume] in Blood</td><td>8.9</td><td>8.5 - 10.4</td><td></td><td>mg/dL</td></tr></table></div>"
        },
        "status": "final",
        "subject": {
          "reference": "urn:uuid:5aab5b65-2176-414e-9ff6-e65c04cec0bb",
          "display": "Louise Köster"
        },
        "effectiveDateTime": "2021-11-23T04:02:53Z",
        "specimen": {
          "reference": "urn:uuid:847ee75c-2d53-46c6-946a-2c8bc3e6b9a0"
        }
      }
    },
    {
      "fullUrl": "urn:uuid:d880d54e-5986-42e4-9f10-aaf53a9ce0bf",
      "resource": {
        "resourceType": "Observation",
        "id": "d880d54e-5986-42e4-9f10-aaf53a9ce0bf",
        "meta": {
          "profile": [
            "http://hl7.eu/fhir/laboratory/StructureDefinition/Observation-resultslab-eu-lab"
          ]
        },
        "performer": [
          {
            "display": "The Central European Lab"
          }
        ],
        "category": [
          {
            "coding": [
              {
                "system": "http://terminology.hl7.org/CodeSystem/observation-category",
                "code": "laboratory"
              }
            ]
          }
        ],
        "code": {
          "coding": [
            {
              "code": "2947-0",
              "system": "http://loinc.org",
              "display": "Sodium [Moles/volume] in Blood"
            }
          ],
          "text": "Sodium [Moles/volume] in Blood"
        },
        "valueQuantity": {
          "system": "http://unitsofmeasure.org",
          "value": 136.9,
          "unit": "mmol/L",
          "code": "mmol/L"
        },
        "referenceRange": [
          {
            "low": {
              "value": 135,
              "code": "mmol/L",
              "system": "http://unitsofmeasure.org"
            }
          },
          {
            "high": {
              "value": 145,
              "code": "mmol/L",
              "system": "http://unitsofmeasure.org"
            }
          }
        ],
        "text": {
          "status": "generated",
          "div": "<div xmlns=\"http://www.w3.org/1999/xhtml\"><table class=\"hl7__eu__lab__report\"><tr><th>Test</th><th>23-Nov-2021</th><th>Reference&#xA0;Range</th><th>Unit</th></tr><tr><td>Sodium [Moles/volume] in Blood</td><td>136.9</td><td>135 - 145</td><td></td><td>mmol/L</td></tr></table></div>"
        },
        "status": "final",
        "subject": {
          "reference": "urn:uuid:5aab5b65-2176-414e-9ff6-e65c04cec0bb",
          "display": "Louise Köster"
        },
        "effectiveDateTime": "2021-11-23T04:02:53Z",
        "specimen": {
          "reference": "urn:uuid:847ee75c-2d53-46c6-946a-2c8bc3e6b9a0"
        }
      }
    },
    {
      "fullUrl": "urn:uuid:b954266b-2e6f-4cb5-96d1-c8735b096848",
      "resource": {
        "resourceType": "Observation",
        "id": "b954266b-2e6f-4cb5-96d1-c8735b096848",
        "meta": {
          "profile": [
            "http://hl7.eu/fhir/laboratory/StructureDefinition/Observation-resultslab-eu-lab"
          ]
        },
        "performer": [
          {
            "display": "The Central European Lab"
          }
        ],
        "category": [
          {
            "coding": [
              {
                "system": "http://terminology.hl7.org/CodeSystem/observation-category",
                "code": "laboratory"
              }
            ]
          }
        ],
        "code": {
          "coding": [
            {
              "code": "6298-4",
              "system": "http://loinc.org",
              "display": "Potassium [Moles/volume] in Blood"
            }
          ],
          "text": "Potassium [Moles/volume] in Blood"
        },
        "valueQuantity": {
          "system": "http://unitsofmeasure.org",
          "value": 4.1,
          "unit": "mmol/L",
          "code": "mmol/L"
        },
        "referenceRange": [
          {
            "low": {
              "value": 3.5,
              "code": "mmol/L",
              "system": "http://unitsofmeasure.org"
            }
          },
          {
            "high": {
              "value": 5.1,
              "code": "mmol/L",
              "system": "http://unitsofmeasure.org"
            }
          }
        ],
        "text": {
          "status": "generated",
          "div": "<div xmlns=\"http://www.w3.org/1999/xhtml\"><table class=\"hl7__eu__lab__report\"><tr><th>Test</th><th>23-Nov-2021</th><th>Reference&#xA0;Range</th><th>Unit</th></tr><tr><td>Potassium [Moles/volume] in Blood</td><td>4.1</td><td>3.5 - 5.1</td><td></td><td>mmol/L</td></tr></table></div>"
        },
        "status": "final",
        "subject": {
          "reference": "urn:uuid:5aab5b65-2176-414e-9ff6-e65c04cec0bb",
          "display": "Louise Köster"
        },
        "effectiveDateTime": "2021-11-23T04:02:53Z",
        "specimen": {
          "reference": "urn:uuid:847ee75c-2d53-46c6-946a-2c8bc3e6b9a0"
        }
      }
    },
    {
      "fullUrl": "urn:uuid:c51caed9-df11-4bcc-9f9b-2b535f9f256d",
      "resource": {
        "resourceType": "Observation",
        "id": "c51caed9-df11-4bcc-9f9b-2b535f9f256d",
        "meta": {
          "profile": [
            "http://hl7.eu/fhir/laboratory/StructureDefinition/Observation-resultslab-eu-lab"
          ]
        },
        "performer": [
          {
            "display": "The Central European Lab"
          }
        ],
        "category": [
          {
            "coding": [
              {
                "system": "http://terminology.hl7.org/CodeSystem/observation-category",
                "code": "laboratory"
              }
            ]
          }
        ],
        "code": {
          "coding": [
            {
              "code": "2069-3",
              "system": "http://loinc.org",
              "display": "Chloride [Moles/volume] in Blood"
            }
          ],
          "text": "Chloride [Moles/volume] in Blood"
        },
        "valueQuantity": {
          "system": "http://unitsofmeasure.org",
          "value": 107.1,
          "unit": "mmol/L",
          "code": "mmol/L"
        },
        "referenceRange": [
          {
            "low": {
              "value": 98,
              "code": "mmol/L",
              "system": "http://unitsofmeasure.org"
            }
          },
          {
            "high": {
              "value": 107,
              "code": "mmol/L",
              "system": "http://unitsofmeasure.org"
            }
          }
        ],
        "interpretation": [
          {
            "coding": [
              {
                "code": "H",
                "system": "http://terminology.hl7.org/CodeSystem/v3-ObservationInterpretation",
                "display": "High"
              }
            ]
          }
        ],
        "text": {
          "status": "generated",
          "div": "<div xmlns=\"http://www.w3.org/1999/xhtml\"><table class=\"hl7__eu__lab__report\"><tr><th>Test</th><th>23-Nov-2021</th><th>Reference&#xA0;Range</th><th>Unit</th></tr><tr><td>Chloride [Moles/volume] in Blood</td><td>107.1</td><td>98 - 107</td><td>H</td><td>mmol/L</td></tr></table></div>"
        },
        "status": "final",
        "subject": {
          "reference": "urn:uuid:5aab5b65-2176-414e-9ff6-e65c04cec0bb",
          "display": "Louise Köster"
        },
        "effectiveDateTime": "2021-11-23T04:02:53Z",
        "specimen": {
          "reference": "urn:uuid:847ee75c-2d53-46c6-946a-2c8bc3e6b9a0"
        }
      }
    },
    {
      "fullUrl": "urn:uuid:ed984291-09b0-4c27-85f0-121531f64401",
      "resource": {
        "resourceType": "Observation",
        "id": "ed984291-09b0-4c27-85f0-121531f64401",
        "meta": {
          "profile": [
            "http://hl7.eu/fhir/laboratory/StructureDefinition/Observation-resultslab-eu-lab"
          ]
        },
        "performer": [
          {
            "display": "The Central European Lab"
          }
        ],
        "category": [
          {
            "coding": [
              {
                "system": "http://terminology.hl7.org/CodeSystem/observation-category",
                "code": "laboratory"
              }
            ]
          }
        ],
        "code": {
          "coding": [
            {
              "code": "20565-8",
              "system": "http://loinc.org",
              "display": "Carbon dioxide, total [Moles/volume] in Blood"
            }
          ],
          "text": "Carbon dioxide, total [Moles/volume] in Blood"
        },
        "valueQuantity": {
          "system": "http://unitsofmeasure.org",
          "value": 28.2,
          "unit": "mmol/L",
          "code": "mmol/L"
        },
        "referenceRange": [
          {
            "low": {
              "value": 22,
              "code": "mmol/L",
              "system": "http://unitsofmeasure.org"
            }
          },
          {
            "high": {
              "value": 32,
              "code": "mmol/L",
              "system": "http://unitsofmeasure.org"
            }
          }
        ],
        "text": {
          "status": "generated",
          "div": "<div xmlns=\"http://www.w3.org/1999/xhtml\"><table class=\"hl7__eu__lab__report\"><tr><th>Test</th><th>23-Nov-2021</th><th>Reference&#xA0;Range</th><th>Unit</th></tr><tr><td>Carbon dioxide, total [Moles/volume] in Blood</td><td>28.2</td><td>22 - 32</td><td></td><td>mmol/L</td></tr></table></div>"
        },
        "status": "final",
        "subject": {
          "reference": "urn:uuid:5aab5b65-2176-414e-9ff6-e65c04cec0bb",
          "display": "Louise Köster"
        },
        "effectiveDateTime": "2021-11-23T04:02:53Z",
        "specimen": {
          "reference": "urn:uuid:847ee75c-2d53-46c6-946a-2c8bc3e6b9a0"
        }
      }
    },
    {
      "fullUrl": "urn:uuid:ea5e5c38-e8a9-4ea0-8491-9252702b4068",
      "resource": {
        "resourceType": "Device",
        "id": "ea5e5c38-e8a9-4ea0-8491-9252702b4068",
        "deviceName": [
          {
            "name": "SYNDERAI Synthetic Generator",
            "type": "manufacturer-name"
          }
        ],
        "version": [
          {
            "value": "5.0"
          }
        ],
        "text": {
          "status": "generated",
          "div": "<div xmlns=\"http://www.w3.org/1999/xhtml\">SYNDERAI Synthetic Generator v5.0</div>"
        },
        "status": "active\"",
        "distinctIdentifier": "synderai-generator-50",
        "manufacturer": "SYNDERAI Project"
      }
    },
    {
      "fullUrl": "urn:uuid:13411a52-518d-4b3f-990b-589081bf016d",
      "resource": {
        "resourceType": "Provenance",
        "id": "13411a52-518d-4b3f-990b-589081bf016d",
        "target": [
          {
            "reference": "Patient/5aab5b65-2176-414e-9ff6-e65c04cec0bb"
          },
          {
            "reference": "Bundle/5a2dfe51-92bd-410c-8459-e237bcc56204"
          },
          {
            "reference": "Composition/3412c11d-2da7-468b-8041-e0c101c473ec"
          },
          {
            "reference": "PractitionerRole/74816d1d-e59c-428c-a274-677cedaf1534"
          },
          {
            "reference": "Practitioner/7da4f33b-294d-4250-b159-be54920b52db"
          },
          {
            "reference": "PractitionerRole/8d5074f6-e0fd-4bbd-9d72-aed6ab629264"
          },
          {
            "reference": "Organization/acca3f4a-d997-490b-b34f-9c15374a3d94"
          }
        ],
        "activity": {
          "text": "Synthetic Example Data Generation"
        },
        "policy": [
          "https://synderai.net/synderai-synthetic-data-policy"
        ],
        "agent": [
          {
            "type": {
              "text": "author"
            },
            "who": {
              "reference": "Device/ea5e5c38-e8a9-4ea0-8491-9252702b4068"
            }
          }
        ],
        "reason": [
          {
            "text": "Interoperability Testing and Training (non-clinical use)"
          }
        ],
        "text": {
          "status": "generated",
          "div": "<div xmlns=\"http://www.w3.org/1999/xhtml\">Provenance for SYNDERAI Synthetic Example Data Resource</div>"
        },
        "recorded": "2021-11-23T05:02:53Z"
      }
    },
    {
      "fullUrl": "urn:uuid:74816d1d-e59c-428c-a274-677cedaf1534",
      "resource": {
        "resourceType": "PractitionerRole",
        "id": "74816d1d-e59c-428c-a274-677cedaf1534",
        "meta": {
          "profile": [
            "http://hl7.eu/fhir/base/StructureDefinition/practitionerRole-eu"
          ]
        },
        "text": {
          "status": "generated",
          "div": "<div xmlns=\"http://www.w3.org/1999/xhtml\">Laboratory Role Id: 74816d1d-e59c-428c-a274-677cedaf1534</div>"
        },
        "practitioner": {
          "reference": "urn:uuid:7da4f33b-294d-4250-b159-be54920b52db"
        }
      }
    },
    {
      "fullUrl": "urn:uuid:7da4f33b-294d-4250-b159-be54920b52db",
      "resource": {
        "resourceType": "Practitioner",
        "id": "7da4f33b-294d-4250-b159-be54920b52db",
        "meta": {
          "profile": [
            "http://hl7.eu/fhir/base/StructureDefinition/practitioner-eu"
          ]
        },
        "identifier": [
          {
            "assigner": {
              "display": "HL7 Europe"
            },
            "system": "urn:oid:2.16.840.1.113883.2.51.999",
            "value": "73a848b6-d97f-4086-b197-4e7320f31350"
          }
        ],
        "name": [
          {
            "prefix": [
              "dr"
            ],
            "given": [
              "Ex"
            ],
            "family": "Ample"
          }
        ],
        "address": [
          {
            "line": [
              "Laboratoire Central Européenne",
              "Boulevard du Jardin Botanique 32"
            ],
            "postalCode": "1000",
            "city": "Brussels",
            "country": "Belgium"
          }
        ],
        "text": {
          "status": "generated",
          "div": "<div xmlns=\"http://www.w3.org/1999/xhtml\">Laboratory: Laboratoire Central Européenne, 1000 Brussels, Belgium</div>"
        }
      }
    }
  ],
  "type": "document",
  "timestamp": "2021-11-23T05:02:53Z"
}
