{
  "resourceType": "Bundle",
  "id": "62fc0dcc-24f6-4513-b042-04e6e21a9cdb",
  "meta": {
    "profile": [
      "http://hl7.eu/fhir/laboratory/StructureDefinition/Bundle-eu-lab"
    ]
  },
  "identifier": {
    "assigner": {
      "display": "HL7 Europe"
    },
    "system": "urn:oid:2.16.840.1.113883.2.51.999",
    "value": "5ecf9879-2595-4557-8834-396c3ba6930d"
  },
  "entry": [
    {
      "fullUrl": "urn:uuid:b9645f57-6ca8-4075-9b2e-e030e4d66e6f",
      "resource": {
        "resourceType": "Composition",
        "id": "b9645f57-6ca8-4075-9b2e-e030e4d66e6f",
        "meta": {
          "profile": [
            "http://hl7.eu/fhir/laboratory/StructureDefinition/Composition-eu-lab"
          ]
        },
        "identifier": {
          "assigner": {
            "display": "HL7 Europe"
          },
          "system": "urn:oid:2.16.840.1.113883.2.51.999",
          "value": "90a4c740-8a4e-41ac-9a94-efd9bd13ee6d"
        },
        "author": [
          {
            "reference": "urn:uuid:a8101dcf-9080-49c3-b5ec-0ed1b259a45e"
          }
        ],
        "category": [
          {
            "coding": [
              {
                "code": "26436-6",
                "system": "http://loinc.org",
                "display": "Laboratory studies (set)"
              }
            ]
          }
        ],
        "type": {
          "coding": [
            {
              "code": "11502-2",
              "system": "http://loinc.org",
              "display": "Laboratory report"
            }
          ],
          "text": "Laboratory Report"
        },
        "section": [
          {
            "code": {
              "coding": [
                {
                  "code": "26436-6",
                  "system": "http://loinc.org",
                  "display": "Laboratory studies (set)"
                }
              ],
              "text": "Laboratory studies"
            },
            "section": [
              {
                "code": {
                  "coding": [
                    {
                      "code": "$18719-5",
                      "system": "http://loinc.org",
                      "display": "Chemistry studies (set)"
                    }
                  ],
                  "text": "Chemistry"
                },
                "entry": [
                  {
                    "reference": "urn:uuid:3e0e7b86-3ab8-4afc-bfc9-ac9f37efe3e3"
                  },
                  {
                    "reference": "urn:uuid:162c3e15-3076-4e51-b201-5d6ec991d39e"
                  },
                  {
                    "reference": "urn:uuid:765f6a55-0ef9-4ac9-9eef-e26470b5abd3"
                  },
                  {
                    "reference": "urn:uuid:8f3d6ef6-c6db-47cc-86d4-010a8f0cbab2"
                  },
                  {
                    "reference": "urn:uuid:f6d8fec3-c324-45ed-8ef8-6990fa2cf9e3"
                  },
                  {
                    "reference": "urn:uuid:70c7d64d-68c7-459f-a043-ad6d0283d23f"
                  },
                  {
                    "reference": "urn:uuid:4a29019c-ea48-4bb4-9d08-71bc72a2dbea"
                  },
                  {
                    "reference": "urn:uuid:9620d1da-08e8-4481-8e3d-bb6305f849be"
                  },
                  {
                    "reference": "urn:uuid:28225663-8f44-4330-8fd7-0d48821d8cf9"
                  }
                ],
                "text": {
                  "status": "generated",
                  "div": "<div xmlns=\"http://www.w3.org/1999/xhtml\"><h3>Chemistry</h3><table class=\"hl7__eu__lab__report\"><thead><tr><th>Test</th><th>17-MAR-2025</th><th>Reference&#xA0;Range</th><th>Unit</th></tr></thead><tbody><tr><td>Hemoglobin A1c/Hemoglobin.total in Blood</td><td><strong>6.3 H</strong></td><td>4.8 - 5.7</td><td>%</td></tr><tr><td>Glucose [Mass/volume] in Blood</td><td><strong>99.8 H</strong></td><td>70 - 99</td><td>mg/dL</td></tr><tr><td>Urea nitrogen [Mass/volume] in Blood</td><td>17.4</td><td>7 - 20</td><td>mg/dL</td></tr><tr><td>Creatinine [Mass/volume] in Blood</td><td>1.0</td><td>0.6 - 1.1</td><td>mg/dL</td></tr><tr><td>Calcium [Mass/volume] in Blood</td><td>9.3</td><td>8.5 - 10.5</td><td>mg/dL</td></tr><tr><td>Sodium [Moles/volume] in Blood</td><td>137.4</td><td>135 - 145</td><td>mmol/L</td></tr><tr><td>Potassium [Moles/volume] in Blood</td><td>4.5</td><td>3.5 - 5.3</td><td>mmol/L</td></tr><tr><td>Chloride [Moles/volume] in Blood</td><td>103.5</td><td>98 - 114</td><td>mmol/L</td></tr><tr><td>Carbon dioxide, total [Moles/volume] in Blood</td><td>22.7</td><td>22 - 29</td><td>mmol/L</td></tr></tbody></table></div>"
                },
                "title": "Chemistry"
              }
            ],
            "title": "Laboratory Report"
          },
          {
            "text": {
              "status": "generated",
              "div": "<div xmlns=\"http://www.w3.org/1999/xhtml\"><h3>Annotation</h3><table class=\"hl7__eu__lab__report\"><tr><th>Conclusion and Recommendations based on this report and previous findings known to us</th></tr><tr><td>The results show mildly elevated HbA1c and fasting glucose, indicating impaired glucose metabolism or possible early diabetes. Renal function, electrolytes, and other parameters are within normal limits. Recommend clinical correlation and consideration of further evaluation or management for glycemic control.</td></tr></table></div>"
            },
            "code": {
              "coding": [
                {
                  "system": "http://loinc.org",
                  "code": "48767-8",
                  "display": "Annotation comment"
                }
              ]
            },
            "title": "Annotation comment"
          }
        ],
        "status": "final",
        "subject": {
          "reference": "urn:uuid:506926ce-a4cb-4393-b757-b6d432b9aab6",
          "display": "Pauline Grenier"
        },
        "date": "2025-03-17T12:54:46Z",
        "title": "Laboratory Report",
        "confidentiality": "N"
      }
    },
    {
      "fullUrl": "urn:uuid:6c7d5df5-c649-419b-9e53-8bf265a500a6",
      "resource": {
        "resourceType": "DiagnosticReport",
        "id": "6c7d5df5-c649-419b-9e53-8bf265a500a6",
        "meta": {
          "profile": [
            "http://hl7.eu/fhir/laboratory/StructureDefinition/DiagnosticReport-eu-lab"
          ]
        },
        "identifier": [
          {
            "assigner": {
              "display": "HL7 Europe"
            },
            "system": "urn:oid:2.16.840.1.113883.2.51.999",
            "value": "d9423bbc-510b-4b29-981b-ee7f97cfbf7b"
          }
        ],
        "extension": [
          {
            "url": "http://hl7.org/fhir/5.0/StructureDefinition/extension-DiagnosticReport.composition",
            "valueReference": {
              "reference": "urn:uuid:90a4c740-8a4e-41ac-9a94-efd9bd13ee6d"
            }
          }
        ],
        "category": [
          {
            "coding": [
              {
                "code": "26436-6",
                "system": "http://loinc.org",
                "display": "Laboratory studies (set)"
              }
            ]
          }
        ],
        "specimen": [
          {
            "reference": "urn:uuid:f77c5f7e-c681-4441-8843-3bffdd0e1abc"
          }
        ],
        "result": [
          {
            "reference": "urn:uuid:3e0e7b86-3ab8-4afc-bfc9-ac9f37efe3e3"
          },
          {
            "reference": "urn:uuid:162c3e15-3076-4e51-b201-5d6ec991d39e"
          },
          {
            "reference": "urn:uuid:765f6a55-0ef9-4ac9-9eef-e26470b5abd3"
          },
          {
            "reference": "urn:uuid:8f3d6ef6-c6db-47cc-86d4-010a8f0cbab2"
          },
          {
            "reference": "urn:uuid:f6d8fec3-c324-45ed-8ef8-6990fa2cf9e3"
          },
          {
            "reference": "urn:uuid:70c7d64d-68c7-459f-a043-ad6d0283d23f"
          },
          {
            "reference": "urn:uuid:4a29019c-ea48-4bb4-9d08-71bc72a2dbea"
          },
          {
            "reference": "urn:uuid:9620d1da-08e8-4481-8e3d-bb6305f849be"
          },
          {
            "reference": "urn:uuid:28225663-8f44-4330-8fd7-0d48821d8cf9"
          }
        ],
        "status": "registered",
        "code": {
          "coding": [
            {
              "code": "11502-2",
              "system": "http://loinc.org",
              "display": "Laboratory report"
            }
          ]
        },
        "subject": {
          "reference": "urn:uuid:506926ce-a4cb-4393-b757-b6d432b9aab6",
          "display": "Pauline Grenier"
        }
      }
    },
    {
      "fullUrl": "urn:uuid:506926ce-a4cb-4393-b757-b6d432b9aab6",
      "resource": {
        "resourceType": "Patient",
        "id": "506926ce-a4cb-4393-b757-b6d432b9aab6",
        "meta": {
          "security": [
            {
              "system": "http://terminology.hl7.org/CodeSystem/v3-ActReason",
              "code": "HTEST"
            },
            {
              "system": "http://terminology.hl7.org/CodeSystem/v3-ActReason",
              "code": "TRAIN"
            }
          ],
          "tag": [
            {
              "system": "https://synderai.net/fhir/CodeSystem/tags",
              "code": "synthetic",
              "display": "SYNDERAI Synthetic data"
            }
          ],
          "profile": [
            "http://hl7.eu/fhir/base/StructureDefinition/patient-eu-core"
          ]
        },
        "identifier": [
          {
            "type": {
              "coding": [
                {
                  "code": "PT",
                  "system": "http://terminology.hl7.org/CodeSystem/v2-0203"
                }
              ]
            },
            "system": "http://ec.europa.eu/identifier/eci",
            "value": "6776-872657-1"
          },
          {
            "type": {
              "coding": [
                {
                  "code": "MR",
                  "system": "http://terminology.hl7.org/CodeSystem/v2-0203"
                }
              ]
            },
            "system": "http://local.setting.eu/identifier",
            "value": "a90ff566-3092-3af0-91f2-c0514ba66d35"
          }
        ],
        "name": [
          {
            "family": "Grenier"
          },
          {
            "given": [
              "Pauline"
            ]
          },
          {
            "text": "Pauline Grenier"
          }
        ],
        "address": [
          {
            "line": [
              "114, avenue Georges"
            ],
            "use": "home",
            "type": "physical",
            "postalCode": "71110",
            "city": "Caron",
            "country": "France"
          }
        ],
        "telecom": [
          {
            "system": "phone",
            "value": "+33 4 26 27 51 56"
          }
        ],
        "extension": [
          {
            "url": "http://hl7.org/fhir/StructureDefinition/patient-nationality",
            "valueCodeableConcept": {
              "coding": [
                {
                  "code": "FR",
                  "system": "http://hl7.org/fhir/ValueSet/country"
                }
              ]
            }
          }
        ],
        "text": {
          "status": "generated",
          "div": "<div xmlns=\"http://www.w3.org/1999/xhtml\"><table class=\"hl7__ips\"><tr><td>Pauline Grenier</td><td>female</td><td>03-May-1971</td></tr></table></div>"
        },
        "gender": "female",
        "birthDate": "1971-05-03"
      }
    },
    {
      "fullUrl": "urn:uuid:e50c542d-d8f2-434f-b61f-d493c321a1ee",
      "resource": {
        "resourceType": "ServiceRequest",
        "id": "e50c542d-d8f2-434f-b61f-d493c321a1ee",
        "meta": {
          "profile": [
            "http://hl7.eu/fhir/laboratory/StructureDefinition/ServiceRequest-eu-lab"
          ]
        },
        "identifier": [
          {
            "system": "http://example.org",
            "value": "f2e413df-fec8-4216-ad79-3c381489251e"
          }
        ],
        "specimen": [
          {
            "reference": "urn:uuid:f77c5f7e-c681-4441-8843-3bffdd0e1abc"
          }
        ],
        "reasonCode": [
          {
            "coding": [
              {
                "code": "59621000",
                "system": "http://snomed.info/sct",
                "display": "Essential hypertension"
              }
            ]
          },
          {
            "coding": [
              {
                "code": "237602007",
                "system": "http://snomed.info/sct",
                "display": "Metabolic syndrome X"
              }
            ]
          },
          {
            "coding": [
              {
                "code": "15777000",
                "system": "http://snomed.info/sct",
                "display": "Prediabetes"
              }
            ]
          }
        ],
        "status": "active",
        "intent": "order",
        "code": {
          "coding": [
            {
              "code": "108252007",
              "system": "http://snomed.info/sct",
              "display": "Laboratory procedure"
            }
          ]
        },
        "subject": {
          "reference": "urn:uuid:506926ce-a4cb-4393-b757-b6d432b9aab6",
          "display": "Pauline Grenier"
        },
        "requester": {
          "reference": "urn:uuid:4aad5c75-64be-40f4-81d3-ea95e0ca9e92"
        }
      }
    },
    {
      "fullUrl": "urn:uuid:4aad5c75-64be-40f4-81d3-ea95e0ca9e92",
      "resource": {
        "resourceType": "PractitionerRole",
        "id": "4aad5c75-64be-40f4-81d3-ea95e0ca9e92",
        "meta": {
          "profile": [
            "http://hl7.eu/fhir/base/StructureDefinition/practitionerRole-eu"
          ]
        },
        "text": {
          "status": "generated",
          "div": "<div xmlns=\"http://www.w3.org/1999/xhtml\">Provider Role Id: 4aad5c75-64be-40f4-81d3-ea95e0ca9e92</div>"
        },
        "organization": {
          "reference": "urn:uuid:e44d0fa3-88b9-4e1e-94f1-4def6f191ed7"
        }
      }
    },
    {
      "fullUrl": "urn:uuid:e44d0fa3-88b9-4e1e-94f1-4def6f191ed7",
      "resource": {
        "resourceType": "Organization",
        "id": "e44d0fa3-88b9-4e1e-94f1-4def6f191ed7",
        "meta": {
          "profile": [
            "http://hl7.eu/fhir/base/StructureDefinition/organization-eu"
          ]
        },
        "identifier": [
          {
            "assigner": {
              "display": "HL7 Europe"
            },
            "system": "urn:oid:2.16.840.1.113883.2.51.999",
            "value": "27df1537-ea77-4b90-b839-7cf988aa89e7"
          }
        ],
        "address": [
          {
            "city": "Le Creusot",
            "postalCode": "71200",
            "country": "France"
          }
        ],
        "text": {
          "status": "generated",
          "div": "<div xmlns=\"http://www.w3.org/1999/xhtml\">Provider Organization: Hôpital du Creusot - Site Foch</div>"
        },
        "name": "Hôpital du Creusot - Site Foch"
      }
    },
    {
      "fullUrl": "urn:uuid:f77c5f7e-c681-4441-8843-3bffdd0e1abc",
      "resource": {
        "resourceType": "Specimen",
        "id": "f77c5f7e-c681-4441-8843-3bffdd0e1abc",
        "meta": {
          "profile": [
            "http://hl7.eu/fhir/laboratory/StructureDefinition/Specimen-eu-lab"
          ]
        },
        "collection": {
          "collectedDateTime": "2025-03-17"
        },
        "text": {
          "status": "generated",
          "div": "<div xmlns=\"http://www.w3.org/1999/xhtml\"><table class=\"hl7__eu__lab__report\"><tr><th>Specimen</th><th>Collection Date</th></tr><tr><td>Whole blood specimen (specimen)</td><td><span class=\"nb\">17-Mar-2025</span></td></tr></table></div>"
        },
        "type": {
          "coding": [
            {
              "code": "258580003",
              "system": "http://snomed.info/sct",
              "display": "Whole blood specimen (specimen)"
            }
          ]
        }
      }
    },
    {
      "fullUrl": "urn:uuid:3e0e7b86-3ab8-4afc-bfc9-ac9f37efe3e3",
      "resource": {
        "resourceType": "Observation",
        "id": "3e0e7b86-3ab8-4afc-bfc9-ac9f37efe3e3",
        "meta": {
          "profile": [
            "http://hl7.eu/fhir/laboratory/StructureDefinition/Observation-resultslab-eu-lab"
          ]
        },
        "performer": [
          {
            "display": "The Central European Lab"
          }
        ],
        "category": [
          {
            "coding": [
              {
                "system": "http://terminology.hl7.org/CodeSystem/observation-category",
                "code": "laboratory"
              }
            ]
          }
        ],
        "code": {
          "coding": [
            {
              "code": "4548-4",
              "system": "http://loinc.org",
              "display": "Hemoglobin A1c/Hemoglobin.total in Blood"
            }
          ],
          "text": "Hemoglobin A1c/Hemoglobin.total in Blood"
        },
        "valueQuantity": {
          "system": "http://unitsofmeasure.org",
          "value": 6.3,
          "unit": "%",
          "code": "%"
        },
        "referenceRange": [
          {
            "low": {
              "value": 4.8,
              "code": "%",
              "system": "http://unitsofmeasure.org"
            }
          },
          {
            "high": {
              "value": 5.7,
              "code": "%",
              "system": "http://unitsofmeasure.org"
            }
          }
        ],
        "interpretation": [
          {
            "coding": [
              {
                "code": "H",
                "system": "http://terminology.hl7.org/CodeSystem/v3-ObservationInterpretation",
                "display": "High"
              }
            ]
          }
        ],
        "text": {
          "status": "generated",
          "div": "<div xmlns=\"http://www.w3.org/1999/xhtml\"><table class=\"hl7__eu__lab__report\"><tr><th>Test</th><th>17-Mar-2025</th><th>Reference&#xA0;Range</th><th>Unit</th></tr><tr><td>Hemoglobin A1c/Hemoglobin.total in Blood</td><td>6.3</td><td>4.8 - 5.7</td><td>H</td><td>%</td></tr></table></div>"
        },
        "status": "final",
        "subject": {
          "reference": "urn:uuid:506926ce-a4cb-4393-b757-b6d432b9aab6",
          "display": "Pauline Grenier"
        },
        "effectiveDateTime": "2025-03-17T11:54:46Z",
        "specimen": {
          "reference": "urn:uuid:f77c5f7e-c681-4441-8843-3bffdd0e1abc"
        }
      }
    },
    {
      "fullUrl": "urn:uuid:162c3e15-3076-4e51-b201-5d6ec991d39e",
      "resource": {
        "resourceType": "Observation",
        "id": "162c3e15-3076-4e51-b201-5d6ec991d39e",
        "meta": {
          "profile": [
            "http://hl7.eu/fhir/laboratory/StructureDefinition/Observation-resultslab-eu-lab"
          ]
        },
        "performer": [
          {
            "display": "The Central European Lab"
          }
        ],
        "category": [
          {
            "coding": [
              {
                "system": "http://terminology.hl7.org/CodeSystem/observation-category",
                "code": "laboratory"
              }
            ]
          }
        ],
        "code": {
          "coding": [
            {
              "code": "2339-0",
              "system": "http://loinc.org",
              "display": "Glucose [Mass/volume] in Blood"
            }
          ],
          "text": "Glucose [Mass/volume] in Blood"
        },
        "valueQuantity": {
          "system": "http://unitsofmeasure.org",
          "value": 99.8,
          "unit": "mg/dL",
          "code": "mg/dL"
        },
        "referenceRange": [
          {
            "low": {
              "value": 70,
              "code": "mg/dL",
              "system": "http://unitsofmeasure.org"
            }
          },
          {
            "high": {
              "value": 99,
              "code": "mg/dL",
              "system": "http://unitsofmeasure.org"
            }
          }
        ],
        "interpretation": [
          {
            "coding": [
              {
                "code": "H",
                "system": "http://terminology.hl7.org/CodeSystem/v3-ObservationInterpretation",
                "display": "High"
              }
            ]
          }
        ],
        "text": {
          "status": "generated",
          "div": "<div xmlns=\"http://www.w3.org/1999/xhtml\"><table class=\"hl7__eu__lab__report\"><tr><th>Test</th><th>17-Mar-2025</th><th>Reference&#xA0;Range</th><th>Unit</th></tr><tr><td>Glucose [Mass/volume] in Blood</td><td>99.8</td><td>70 - 99</td><td>H</td><td>mg/dL</td></tr></table></div>"
        },
        "status": "final",
        "subject": {
          "reference": "urn:uuid:506926ce-a4cb-4393-b757-b6d432b9aab6",
          "display": "Pauline Grenier"
        },
        "effectiveDateTime": "2025-03-17T11:54:46Z",
        "specimen": {
          "reference": "urn:uuid:f77c5f7e-c681-4441-8843-3bffdd0e1abc"
        }
      }
    },
    {
      "fullUrl": "urn:uuid:765f6a55-0ef9-4ac9-9eef-e26470b5abd3",
      "resource": {
        "resourceType": "Observation",
        "id": "765f6a55-0ef9-4ac9-9eef-e26470b5abd3",
        "meta": {
          "profile": [
            "http://hl7.eu/fhir/laboratory/StructureDefinition/Observation-resultslab-eu-lab"
          ]
        },
        "performer": [
          {
            "display": "The Central European Lab"
          }
        ],
        "category": [
          {
            "coding": [
              {
                "system": "http://terminology.hl7.org/CodeSystem/observation-category",
                "code": "laboratory"
              }
            ]
          }
        ],
        "code": {
          "coding": [
            {
              "code": "6299-2",
              "system": "http://loinc.org",
              "display": "Urea nitrogen [Mass/volume] in Blood"
            }
          ],
          "text": "Urea nitrogen [Mass/volume] in Blood"
        },
        "valueQuantity": {
          "system": "http://unitsofmeasure.org",
          "value": 17.4,
          "unit": "mg/dL",
          "code": "mg/dL"
        },
        "referenceRange": [
          {
            "low": {
              "value": 7,
              "code": "mg/dL",
              "system": "http://unitsofmeasure.org"
            }
          },
          {
            "high": {
              "value": 20,
              "code": "mg/dL",
              "system": "http://unitsofmeasure.org"
            }
          }
        ],
        "text": {
          "status": "generated",
          "div": "<div xmlns=\"http://www.w3.org/1999/xhtml\"><table class=\"hl7__eu__lab__report\"><tr><th>Test</th><th>17-Mar-2025</th><th>Reference&#xA0;Range</th><th>Unit</th></tr><tr><td>Urea nitrogen [Mass/volume] in Blood</td><td>17.4</td><td>7 - 20</td><td></td><td>mg/dL</td></tr></table></div>"
        },
        "status": "final",
        "subject": {
          "reference": "urn:uuid:506926ce-a4cb-4393-b757-b6d432b9aab6",
          "display": "Pauline Grenier"
        },
        "effectiveDateTime": "2025-03-17T11:54:46Z",
        "specimen": {
          "reference": "urn:uuid:f77c5f7e-c681-4441-8843-3bffdd0e1abc"
        }
      }
    },
    {
      "fullUrl": "urn:uuid:8f3d6ef6-c6db-47cc-86d4-010a8f0cbab2",
      "resource": {
        "resourceType": "Observation",
        "id": "8f3d6ef6-c6db-47cc-86d4-010a8f0cbab2",
        "meta": {
          "profile": [
            "http://hl7.eu/fhir/laboratory/StructureDefinition/Observation-resultslab-eu-lab"
          ]
        },
        "performer": [
          {
            "display": "The Central European Lab"
          }
        ],
        "category": [
          {
            "coding": [
              {
                "system": "http://terminology.hl7.org/CodeSystem/observation-category",
                "code": "laboratory"
              }
            ]
          }
        ],
        "code": {
          "coding": [
            {
              "code": "38483-4",
              "system": "http://loinc.org",
              "display": "Creatinine [Mass/volume] in Blood"
            }
          ],
          "text": "Creatinine [Mass/volume] in Blood"
        },
        "valueQuantity": {
          "system": "http://unitsofmeasure.org",
          "value": 1,
          "unit": "mg/dL",
          "code": "mg/dL"
        },
        "referenceRange": [
          {
            "low": {
              "value": 0.6,
              "code": "mg/dL",
              "system": "http://unitsofmeasure.org"
            }
          },
          {
            "high": {
              "value": 1.1,
              "code": "mg/dL",
              "system": "http://unitsofmeasure.org"
            }
          }
        ],
        "text": {
          "status": "generated",
          "div": "<div xmlns=\"http://www.w3.org/1999/xhtml\"><table class=\"hl7__eu__lab__report\"><tr><th>Test</th><th>17-Mar-2025</th><th>Reference&#xA0;Range</th><th>Unit</th></tr><tr><td>Creatinine [Mass/volume] in Blood</td><td>1.0</td><td>0.6 - 1.1</td><td></td><td>mg/dL</td></tr></table></div>"
        },
        "status": "final",
        "subject": {
          "reference": "urn:uuid:506926ce-a4cb-4393-b757-b6d432b9aab6",
          "display": "Pauline Grenier"
        },
        "effectiveDateTime": "2025-03-17T11:54:46Z",
        "specimen": {
          "reference": "urn:uuid:f77c5f7e-c681-4441-8843-3bffdd0e1abc"
        }
      }
    },
    {
      "fullUrl": "urn:uuid:f6d8fec3-c324-45ed-8ef8-6990fa2cf9e3",
      "resource": {
        "resourceType": "Observation",
        "id": "f6d8fec3-c324-45ed-8ef8-6990fa2cf9e3",
        "meta": {
          "profile": [
            "http://hl7.eu/fhir/laboratory/StructureDefinition/Observation-resultslab-eu-lab"
          ]
        },
        "performer": [
          {
            "display": "The Central European Lab"
          }
        ],
        "category": [
          {
            "coding": [
              {
                "system": "http://terminology.hl7.org/CodeSystem/observation-category",
                "code": "laboratory"
              }
            ]
          }
        ],
        "code": {
          "coding": [
            {
              "code": "49765-1",
              "system": "http://loinc.org",
              "display": "Calcium [Mass/volume] in Blood"
            }
          ],
          "text": "Calcium [Mass/volume] in Blood"
        },
        "valueQuantity": {
          "system": "http://unitsofmeasure.org",
          "value": 9.3,
          "unit": "mg/dL",
          "code": "mg/dL"
        },
        "referenceRange": [
          {
            "low": {
              "value": 8.5,
              "code": "mg/dL",
              "system": "http://unitsofmeasure.org"
            }
          },
          {
            "high": {
              "value": 10.5,
              "code": "mg/dL",
              "system": "http://unitsofmeasure.org"
            }
          }
        ],
        "text": {
          "status": "generated",
          "div": "<div xmlns=\"http://www.w3.org/1999/xhtml\"><table class=\"hl7__eu__lab__report\"><tr><th>Test</th><th>17-Mar-2025</th><th>Reference&#xA0;Range</th><th>Unit</th></tr><tr><td>Calcium [Mass/volume] in Blood</td><td>9.3</td><td>8.5 - 10.5</td><td></td><td>mg/dL</td></tr></table></div>"
        },
        "status": "final",
        "subject": {
          "reference": "urn:uuid:506926ce-a4cb-4393-b757-b6d432b9aab6",
          "display": "Pauline Grenier"
        },
        "effectiveDateTime": "2025-03-17T11:54:46Z",
        "specimen": {
          "reference": "urn:uuid:f77c5f7e-c681-4441-8843-3bffdd0e1abc"
        }
      }
    },
    {
      "fullUrl": "urn:uuid:70c7d64d-68c7-459f-a043-ad6d0283d23f",
      "resource": {
        "resourceType": "Observation",
        "id": "70c7d64d-68c7-459f-a043-ad6d0283d23f",
        "meta": {
          "profile": [
            "http://hl7.eu/fhir/laboratory/StructureDefinition/Observation-resultslab-eu-lab"
          ]
        },
        "performer": [
          {
            "display": "The Central European Lab"
          }
        ],
        "category": [
          {
            "coding": [
              {
                "system": "http://terminology.hl7.org/CodeSystem/observation-category",
                "code": "laboratory"
              }
            ]
          }
        ],
        "code": {
          "coding": [
            {
              "code": "2947-0",
              "system": "http://loinc.org",
              "display": "Sodium [Moles/volume] in Blood"
            }
          ],
          "text": "Sodium [Moles/volume] in Blood"
        },
        "valueQuantity": {
          "system": "http://unitsofmeasure.org",
          "value": 137.4,
          "unit": "mmol/L",
          "code": "mmol/L"
        },
        "referenceRange": [
          {
            "low": {
              "value": 135,
              "code": "mmol/L",
              "system": "http://unitsofmeasure.org"
            }
          },
          {
            "high": {
              "value": 145,
              "code": "mmol/L",
              "system": "http://unitsofmeasure.org"
            }
          }
        ],
        "text": {
          "status": "generated",
          "div": "<div xmlns=\"http://www.w3.org/1999/xhtml\"><table class=\"hl7__eu__lab__report\"><tr><th>Test</th><th>17-Mar-2025</th><th>Reference&#xA0;Range</th><th>Unit</th></tr><tr><td>Sodium [Moles/volume] in Blood</td><td>137.4</td><td>135 - 145</td><td></td><td>mmol/L</td></tr></table></div>"
        },
        "status": "final",
        "subject": {
          "reference": "urn:uuid:506926ce-a4cb-4393-b757-b6d432b9aab6",
          "display": "Pauline Grenier"
        },
        "effectiveDateTime": "2025-03-17T11:54:46Z",
        "specimen": {
          "reference": "urn:uuid:f77c5f7e-c681-4441-8843-3bffdd0e1abc"
        }
      }
    },
    {
      "fullUrl": "urn:uuid:4a29019c-ea48-4bb4-9d08-71bc72a2dbea",
      "resource": {
        "resourceType": "Observation",
        "id": "4a29019c-ea48-4bb4-9d08-71bc72a2dbea",
        "meta": {
          "profile": [
            "http://hl7.eu/fhir/laboratory/StructureDefinition/Observation-resultslab-eu-lab"
          ]
        },
        "performer": [
          {
            "display": "The Central European Lab"
          }
        ],
        "category": [
          {
            "coding": [
              {
                "system": "http://terminology.hl7.org/CodeSystem/observation-category",
                "code": "laboratory"
              }
            ]
          }
        ],
        "code": {
          "coding": [
            {
              "code": "6298-4",
              "system": "http://loinc.org",
              "display": "Potassium [Moles/volume] in Blood"
            }
          ],
          "text": "Potassium [Moles/volume] in Blood"
        },
        "valueQuantity": {
          "system": "http://unitsofmeasure.org",
          "value": 4.5,
          "unit": "mmol/L",
          "code": "mmol/L"
        },
        "referenceRange": [
          {
            "low": {
              "value": 3.5,
              "code": "mmol/L",
              "system": "http://unitsofmeasure.org"
            }
          },
          {
            "high": {
              "value": 5.3,
              "code": "mmol/L",
              "system": "http://unitsofmeasure.org"
            }
          }
        ],
        "text": {
          "status": "generated",
          "div": "<div xmlns=\"http://www.w3.org/1999/xhtml\"><table class=\"hl7__eu__lab__report\"><tr><th>Test</th><th>17-Mar-2025</th><th>Reference&#xA0;Range</th><th>Unit</th></tr><tr><td>Potassium [Moles/volume] in Blood</td><td>4.5</td><td>3.5 - 5.3</td><td></td><td>mmol/L</td></tr></table></div>"
        },
        "status": "final",
        "subject": {
          "reference": "urn:uuid:506926ce-a4cb-4393-b757-b6d432b9aab6",
          "display": "Pauline Grenier"
        },
        "effectiveDateTime": "2025-03-17T11:54:46Z",
        "specimen": {
          "reference": "urn:uuid:f77c5f7e-c681-4441-8843-3bffdd0e1abc"
        }
      }
    },
    {
      "fullUrl": "urn:uuid:9620d1da-08e8-4481-8e3d-bb6305f849be",
      "resource": {
        "resourceType": "Observation",
        "id": "9620d1da-08e8-4481-8e3d-bb6305f849be",
        "meta": {
          "profile": [
            "http://hl7.eu/fhir/laboratory/StructureDefinition/Observation-resultslab-eu-lab"
          ]
        },
        "performer": [
          {
            "display": "The Central European Lab"
          }
        ],
        "category": [
          {
            "coding": [
              {
                "system": "http://terminology.hl7.org/CodeSystem/observation-category",
                "code": "laboratory"
              }
            ]
          }
        ],
        "code": {
          "coding": [
            {
              "code": "2069-3",
              "system": "http://loinc.org",
              "display": "Chloride [Moles/volume] in Blood"
            }
          ],
          "text": "Chloride [Moles/volume] in Blood"
        },
        "valueQuantity": {
          "system": "http://unitsofmeasure.org",
          "value": 103.5,
          "unit": "mmol/L",
          "code": "mmol/L"
        },
        "referenceRange": [
          {
            "low": {
              "value": 98,
              "code": "mmol/L",
              "system": "http://unitsofmeasure.org"
            }
          },
          {
            "high": {
              "value": 114,
              "code": "mmol/L",
              "system": "http://unitsofmeasure.org"
            }
          }
        ],
        "text": {
          "status": "generated",
          "div": "<div xmlns=\"http://www.w3.org/1999/xhtml\"><table class=\"hl7__eu__lab__report\"><tr><th>Test</th><th>17-Mar-2025</th><th>Reference&#xA0;Range</th><th>Unit</th></tr><tr><td>Chloride [Moles/volume] in Blood</td><td>103.5</td><td>98 - 114</td><td></td><td>mmol/L</td></tr></table></div>"
        },
        "status": "final",
        "subject": {
          "reference": "urn:uuid:506926ce-a4cb-4393-b757-b6d432b9aab6",
          "display": "Pauline Grenier"
        },
        "effectiveDateTime": "2025-03-17T11:54:46Z",
        "specimen": {
          "reference": "urn:uuid:f77c5f7e-c681-4441-8843-3bffdd0e1abc"
        }
      }
    },
    {
      "fullUrl": "urn:uuid:28225663-8f44-4330-8fd7-0d48821d8cf9",
      "resource": {
        "resourceType": "Observation",
        "id": "28225663-8f44-4330-8fd7-0d48821d8cf9",
        "meta": {
          "profile": [
            "http://hl7.eu/fhir/laboratory/StructureDefinition/Observation-resultslab-eu-lab"
          ]
        },
        "performer": [
          {
            "display": "The Central European Lab"
          }
        ],
        "category": [
          {
            "coding": [
              {
                "system": "http://terminology.hl7.org/CodeSystem/observation-category",
                "code": "laboratory"
              }
            ]
          }
        ],
        "code": {
          "coding": [
            {
              "code": "20565-8",
              "system": "http://loinc.org",
              "display": "Carbon dioxide, total [Moles/volume] in Blood"
            }
          ],
          "text": "Carbon dioxide, total [Moles/volume] in Blood"
        },
        "valueQuantity": {
          "system": "http://unitsofmeasure.org",
          "value": 22.7,
          "unit": "mmol/L",
          "code": "mmol/L"
        },
        "referenceRange": [
          {
            "low": {
              "value": 22,
              "code": "mmol/L",
              "system": "http://unitsofmeasure.org"
            }
          },
          {
            "high": {
              "value": 29,
              "code": "mmol/L",
              "system": "http://unitsofmeasure.org"
            }
          }
        ],
        "text": {
          "status": "generated",
          "div": "<div xmlns=\"http://www.w3.org/1999/xhtml\"><table class=\"hl7__eu__lab__report\"><tr><th>Test</th><th>17-Mar-2025</th><th>Reference&#xA0;Range</th><th>Unit</th></tr><tr><td>Carbon dioxide, total [Moles/volume] in Blood</td><td>22.7</td><td>22 - 29</td><td></td><td>mmol/L</td></tr></table></div>"
        },
        "status": "final",
        "subject": {
          "reference": "urn:uuid:506926ce-a4cb-4393-b757-b6d432b9aab6",
          "display": "Pauline Grenier"
        },
        "effectiveDateTime": "2025-03-17T11:54:46Z",
        "specimen": {
          "reference": "urn:uuid:f77c5f7e-c681-4441-8843-3bffdd0e1abc"
        }
      }
    },
    {
      "fullUrl": "urn:uuid:bb992552-2ab9-49e8-94fe-7d4d111620b4",
      "resource": {
        "resourceType": "Device",
        "id": "bb992552-2ab9-49e8-94fe-7d4d111620b4",
        "deviceName": [
          {
            "name": "SYNDERAI Synthetic Generator",
            "type": "manufacturer-name"
          }
        ],
        "version": [
          {
            "value": "5.0"
          }
        ],
        "text": {
          "status": "generated",
          "div": "<div xmlns=\"http://www.w3.org/1999/xhtml\">SYNDERAI Synthetic Generator v5.0</div>"
        },
        "status": "active\"",
        "distinctIdentifier": "synderai-generator-50",
        "manufacturer": "SYNDERAI Project"
      }
    },
    {
      "fullUrl": "urn:uuid:7e5219e3-2609-4f13-a7ad-44ed4877a709",
      "resource": {
        "resourceType": "Provenance",
        "id": "7e5219e3-2609-4f13-a7ad-44ed4877a709",
        "target": [
          {
            "reference": "Patient/506926ce-a4cb-4393-b757-b6d432b9aab6"
          },
          {
            "reference": "Bundle/62fc0dcc-24f6-4513-b042-04e6e21a9cdb"
          },
          {
            "reference": "Composition/b9645f57-6ca8-4075-9b2e-e030e4d66e6f"
          },
          {
            "reference": "PractitionerRole/a8101dcf-9080-49c3-b5ec-0ed1b259a45e"
          },
          {
            "reference": "Practitioner/bf983d25-d39f-46d1-80df-e37617736934"
          },
          {
            "reference": "PractitionerRole/4aad5c75-64be-40f4-81d3-ea95e0ca9e92"
          },
          {
            "reference": "Organization/e44d0fa3-88b9-4e1e-94f1-4def6f191ed7"
          }
        ],
        "activity": {
          "text": "Synthetic Example Data Generation"
        },
        "policy": [
          "https://synderai.net/synderai-synthetic-data-policy"
        ],
        "agent": [
          {
            "type": {
              "text": "author"
            },
            "who": {
              "reference": "Device/bb992552-2ab9-49e8-94fe-7d4d111620b4"
            }
          }
        ],
        "reason": [
          {
            "text": "Interoperability Testing and Training (non-clinical use)"
          }
        ],
        "text": {
          "status": "generated",
          "div": "<div xmlns=\"http://www.w3.org/1999/xhtml\">Provenance for SYNDERAI Synthetic Example Data Resource</div>"
        },
        "recorded": "2025-03-17T12:54:46Z"
      }
    },
    {
      "fullUrl": "urn:uuid:a8101dcf-9080-49c3-b5ec-0ed1b259a45e",
      "resource": {
        "resourceType": "PractitionerRole",
        "id": "a8101dcf-9080-49c3-b5ec-0ed1b259a45e",
        "meta": {
          "profile": [
            "http://hl7.eu/fhir/base/StructureDefinition/practitionerRole-eu"
          ]
        },
        "text": {
          "status": "generated",
          "div": "<div xmlns=\"http://www.w3.org/1999/xhtml\">Laboratory Role Id: a8101dcf-9080-49c3-b5ec-0ed1b259a45e</div>"
        },
        "practitioner": {
          "reference": "urn:uuid:bf983d25-d39f-46d1-80df-e37617736934"
        }
      }
    },
    {
      "fullUrl": "urn:uuid:bf983d25-d39f-46d1-80df-e37617736934",
      "resource": {
        "resourceType": "Practitioner",
        "id": "bf983d25-d39f-46d1-80df-e37617736934",
        "meta": {
          "profile": [
            "http://hl7.eu/fhir/base/StructureDefinition/practitioner-eu"
          ]
        },
        "identifier": [
          {
            "assigner": {
              "display": "HL7 Europe"
            },
            "system": "urn:oid:2.16.840.1.113883.2.51.999",
            "value": "355fc15e-14ad-4754-a40c-d591284d6b89"
          }
        ],
        "name": [
          {
            "prefix": [
              "dr"
            ],
            "given": [
              "Ex"
            ],
            "family": "Ample"
          }
        ],
        "address": [
          {
            "line": [
              "Laboratoire Central Européenne",
              "Boulevard du Jardin Botanique 32"
            ],
            "postalCode": "1000",
            "city": "Brussels",
            "country": "Belgium"
          }
        ],
        "text": {
          "status": "generated",
          "div": "<div xmlns=\"http://www.w3.org/1999/xhtml\">Laboratory: Laboratoire Central Européenne, 1000 Brussels, Belgium</div>"
        }
      }
    }
  ],
  "type": "document",
  "timestamp": "2025-03-17T12:54:46Z"
}
