{
  "resourceType": "Bundle",
  "id": "41b6a4aa-3562-4400-9159-30c8900431cb",
  "meta": {
    "profile": [
      "http://hl7.eu/fhir/laboratory/StructureDefinition/Bundle-eu-lab"
    ]
  },
  "identifier": {
    "assigner": {
      "display": "HL7 Europe"
    },
    "system": "urn:oid:2.16.840.1.113883.2.51.999",
    "value": "eedca482-5f3b-4ae6-bd5d-f45af974c441"
  },
  "entry": [
    {
      "fullUrl": "urn:uuid:a7255233-9d29-4c76-a4da-d52484f0c3a3",
      "resource": {
        "resourceType": "Composition",
        "id": "a7255233-9d29-4c76-a4da-d52484f0c3a3",
        "meta": {
          "profile": [
            "http://hl7.eu/fhir/laboratory/StructureDefinition/Composition-eu-lab"
          ]
        },
        "identifier": {
          "assigner": {
            "display": "HL7 Europe"
          },
          "system": "urn:oid:2.16.840.1.113883.2.51.999",
          "value": "f7c330d8-e2cf-4fca-9525-282c190e6848"
        },
        "author": [
          {
            "reference": "urn:uuid:3eb48d72-652f-4ef4-89f1-a4b484a52a6d"
          }
        ],
        "category": [
          {
            "coding": [
              {
                "code": "26436-6",
                "system": "http://loinc.org",
                "display": "Laboratory studies (set)"
              }
            ]
          }
        ],
        "type": {
          "coding": [
            {
              "code": "11502-2",
              "system": "http://loinc.org",
              "display": "Laboratory report"
            }
          ],
          "text": "Laboratory Report"
        },
        "section": [
          {
            "code": {
              "coding": [
                {
                  "code": "26436-6",
                  "system": "http://loinc.org",
                  "display": "Laboratory studies (set)"
                }
              ],
              "text": "Laboratory studies"
            },
            "section": [
              {
                "code": {
                  "coding": [
                    {
                      "code": "$18719-5",
                      "system": "http://loinc.org",
                      "display": "Chemistry studies (set)"
                    }
                  ],
                  "text": "Chemistry"
                },
                "entry": [
                  {
                    "reference": "urn:uuid:a89d37a5-56e7-4879-af03-e88d83f50c1a"
                  },
                  {
                    "reference": "urn:uuid:127c73b9-f24d-4635-ad64-3038ef983b72"
                  },
                  {
                    "reference": "urn:uuid:e7edede6-8f55-44ca-998b-809423844134"
                  },
                  {
                    "reference": "urn:uuid:176ed341-803c-4c1f-abe9-ed1f2bf05ece"
                  },
                  {
                    "reference": "urn:uuid:3487028e-2b2d-4ca2-98eb-48c05827071a"
                  },
                  {
                    "reference": "urn:uuid:7c83e617-8693-4676-8f1d-28096ede7f2c"
                  },
                  {
                    "reference": "urn:uuid:2f39b46a-3a20-4812-b1f8-d33030deec7a"
                  },
                  {
                    "reference": "urn:uuid:51d79ebd-a8f9-4092-aa56-5af52e937596"
                  },
                  {
                    "reference": "urn:uuid:1d4b3857-c817-404f-a9f8-5c1ff60e1cec"
                  },
                  {
                    "reference": "urn:uuid:aaf55842-a8b4-4f49-80d6-313a0e909a09"
                  },
                  {
                    "reference": "urn:uuid:7aafd35b-ad2e-47d7-af4c-74d13755faad"
                  },
                  {
                    "reference": "urn:uuid:d938a285-6538-483f-9be3-e5094ea8ada0"
                  },
                  {
                    "reference": "urn:uuid:1b429379-01c5-4c57-bfb7-b879dccd5bf1"
                  },
                  {
                    "reference": "urn:uuid:d9fb1729-6dde-4772-8816-f0a6c7969acf"
                  },
                  {
                    "reference": "urn:uuid:45eada6a-b34c-4adf-b9aa-2e39a0c2fb52"
                  },
                  {
                    "reference": "urn:uuid:90156e97-b9bb-4a2e-8662-e60d1bd5adba"
                  },
                  {
                    "reference": "urn:uuid:5ff7078e-7d40-4fa2-8733-17c5cddcf431"
                  },
                  {
                    "reference": "urn:uuid:c5bf6abf-3591-43fc-accd-81db3070b076"
                  },
                  {
                    "reference": "urn:uuid:ced6e19b-f280-4d4b-a27b-fd5684218686"
                  }
                ],
                "text": {
                  "status": "generated",
                  "div": "<div xmlns=\"http://www.w3.org/1999/xhtml\"><h3>Chemistry</h3><table class=\"hl7__eu__lab__report\"><thead><tr><th>Test</th><th>01-APR-2019</th><th>Reference&#xA0;Range</th><th>Unit</th></tr></thead><tbody><tr><td>Glucose [Mass/volume] in Blood</td><td>90.8</td><td>70 - 140</td><td>mg/dL</td></tr><tr><td>Urea nitrogen [Mass/volume] in Blood</td><td>18.9</td><td>7 - 20</td><td>mg/dL</td></tr><tr><td>Creatinine [Mass/volume] in Blood</td><td><strong>2.9 H</strong></td><td>0.6 - 1.1</td><td>mg/dL</td></tr><tr><td>Calcium [Mass/volume] in Blood</td><td>9.8</td><td>8.5 - 10.4</td><td>mg/dL</td></tr><tr><td>Sodium [Moles/volume] in Blood</td><td>142.2</td><td>135 - 145</td><td>mmol/L</td></tr><tr><td>Potassium [Moles/volume] in Blood</td><td>5.1</td><td>3.5 - 5.1</td><td>mmol/L</td></tr><tr><td>Chloride [Moles/volume] in Blood</td><td><strong>108.1 H</strong></td><td>98 - 108</td><td>mmol/L</td></tr><tr><td>Carbon dioxide, total [Moles/volume] in Blood</td><td>28.1</td><td>22 - 29</td><td>mmol/L</td></tr><tr><td>Protein [Mass/volume] in Serum or Plasma</td><td>6.5</td><td>6 - 8.3</td><td>g/dL</td></tr><tr><td>Albumin [Mass/volume] in Serum or Plasma</td><td>5.0</td><td>3.4 - 5</td><td>g/dL</td></tr><tr><td>Globulin [Mass/volume] in Serum by calculation</td><td>2.9</td><td>2 - 3.5</td><td>g/L</td></tr><tr><td>Bilirubin.total [Mass/volume] in Serum or Plasma</td><td>1.0</td><td>0.2 - 1.2</td><td>mg/dL</td></tr><tr><td>Alkaline phosphatase [Enzymatic activity/volume] in Serum or Plasma</td><td>45.3</td><td>44 - 104</td><td>U/L</td></tr><tr><td>Alanine aminotransferase [Enzymatic activity/volume] in Serum or Plasma</td><td><strong>40.7 H</strong></td><td>13 - 36</td><td>U/L</td></tr><tr><td>Aspartate aminotransferase [Enzymatic activity/volume] in Serum or Plasma</td><td>30.8</td><td>10 - 40</td><td>U/L</td></tr><tr><td>Cholesterol [Mass/volume] in Serum or Plasma</td><td>188.3</td><td>130 - 200</td><td>mg/dL</td></tr><tr><td>Triglyceride [Mass/volume] in Serum or Plasma</td><td>127.4</td><td>35 - 175</td><td>mg/dL</td></tr><tr><td>Cholesterol in LDL [Mass/volume] in Serum or Plasma by Direct assay</td><td>83.6</td><td>0 - 190</td><td>mg/dL</td></tr><tr><td>Cholesterol in HDL [Mass/volume] in Serum or Plasma</td><td>57.0</td><td>50 - 100</td><td>mg/dL</td></tr></tbody></table></div>"
                },
                "title": "Chemistry"
              }
            ],
            "title": "Laboratory Report"
          },
          {
            "text": {
              "status": "generated",
              "div": "<div xmlns=\"http://www.w3.org/1999/xhtml\"><h3>Annotation</h3><table class=\"hl7__eu__lab__report\"><tr><th>Conclusion and Recommendations based on this report and previous findings known to us</th></tr><tr><td>The patient shows elevated creatinine, suggesting impaired renal function, and mildly elevated ALT, indicating possible mild liver involvement. Chloride is slightly above normal but likely not clinically significant. Other parameters, including glucose, electrolytes, proteins, and lipid profile, are within normal limits. Recommend clinical correlation and further evaluation of renal function.</td></tr></table></div>"
            },
            "code": {
              "coding": [
                {
                  "system": "http://loinc.org",
                  "code": "48767-8",
                  "display": "Annotation comment"
                }
              ]
            },
            "title": "Annotation comment"
          }
        ],
        "status": "final",
        "subject": {
          "reference": "urn:uuid:50fbee66-041f-42a5-8d26-c82dd2a15c0f",
          "display": "Eileen Taylor"
        },
        "date": "2019-04-01T07:47:02Z",
        "title": "Laboratory Report",
        "confidentiality": "N"
      }
    },
    {
      "fullUrl": "urn:uuid:47b67b3b-7381-48e8-97cb-260e573f031d",
      "resource": {
        "resourceType": "DiagnosticReport",
        "id": "47b67b3b-7381-48e8-97cb-260e573f031d",
        "meta": {
          "profile": [
            "http://hl7.eu/fhir/laboratory/StructureDefinition/DiagnosticReport-eu-lab"
          ]
        },
        "identifier": [
          {
            "assigner": {
              "display": "HL7 Europe"
            },
            "system": "urn:oid:2.16.840.1.113883.2.51.999",
            "value": "3c1edf51-2615-4630-8fb9-5223fa0f792b"
          }
        ],
        "extension": [
          {
            "url": "http://hl7.org/fhir/5.0/StructureDefinition/extension-DiagnosticReport.composition",
            "valueReference": {
              "reference": "urn:uuid:f7c330d8-e2cf-4fca-9525-282c190e6848"
            }
          }
        ],
        "category": [
          {
            "coding": [
              {
                "code": "26436-6",
                "system": "http://loinc.org",
                "display": "Laboratory studies (set)"
              }
            ]
          }
        ],
        "specimen": [
          {
            "reference": "urn:uuid:450628f9-ccf5-4af2-829a-fbad5fe93599"
          },
          {
            "reference": "urn:uuid:87684b53-44f1-4055-a424-7ac7e80e8177"
          },
          {
            "reference": "urn:uuid:e12168e0-25c0-4467-98ea-b767fd24f7b4"
          }
        ],
        "result": [
          {
            "reference": "urn:uuid:a89d37a5-56e7-4879-af03-e88d83f50c1a"
          },
          {
            "reference": "urn:uuid:127c73b9-f24d-4635-ad64-3038ef983b72"
          },
          {
            "reference": "urn:uuid:e7edede6-8f55-44ca-998b-809423844134"
          },
          {
            "reference": "urn:uuid:176ed341-803c-4c1f-abe9-ed1f2bf05ece"
          },
          {
            "reference": "urn:uuid:3487028e-2b2d-4ca2-98eb-48c05827071a"
          },
          {
            "reference": "urn:uuid:7c83e617-8693-4676-8f1d-28096ede7f2c"
          },
          {
            "reference": "urn:uuid:2f39b46a-3a20-4812-b1f8-d33030deec7a"
          },
          {
            "reference": "urn:uuid:51d79ebd-a8f9-4092-aa56-5af52e937596"
          },
          {
            "reference": "urn:uuid:1d4b3857-c817-404f-a9f8-5c1ff60e1cec"
          },
          {
            "reference": "urn:uuid:aaf55842-a8b4-4f49-80d6-313a0e909a09"
          },
          {
            "reference": "urn:uuid:7aafd35b-ad2e-47d7-af4c-74d13755faad"
          },
          {
            "reference": "urn:uuid:d938a285-6538-483f-9be3-e5094ea8ada0"
          },
          {
            "reference": "urn:uuid:1b429379-01c5-4c57-bfb7-b879dccd5bf1"
          },
          {
            "reference": "urn:uuid:d9fb1729-6dde-4772-8816-f0a6c7969acf"
          },
          {
            "reference": "urn:uuid:45eada6a-b34c-4adf-b9aa-2e39a0c2fb52"
          },
          {
            "reference": "urn:uuid:90156e97-b9bb-4a2e-8662-e60d1bd5adba"
          },
          {
            "reference": "urn:uuid:5ff7078e-7d40-4fa2-8733-17c5cddcf431"
          },
          {
            "reference": "urn:uuid:c5bf6abf-3591-43fc-accd-81db3070b076"
          },
          {
            "reference": "urn:uuid:ced6e19b-f280-4d4b-a27b-fd5684218686"
          }
        ],
        "status": "registered",
        "code": {
          "coding": [
            {
              "code": "11502-2",
              "system": "http://loinc.org",
              "display": "Laboratory report"
            }
          ]
        },
        "subject": {
          "reference": "urn:uuid:50fbee66-041f-42a5-8d26-c82dd2a15c0f",
          "display": "Eileen Taylor"
        }
      }
    },
    {
      "fullUrl": "urn:uuid:50fbee66-041f-42a5-8d26-c82dd2a15c0f",
      "resource": {
        "resourceType": "Patient",
        "id": "50fbee66-041f-42a5-8d26-c82dd2a15c0f",
        "meta": {
          "security": [
            {
              "system": "http://terminology.hl7.org/CodeSystem/v3-ActReason",
              "code": "HTEST"
            },
            {
              "system": "http://terminology.hl7.org/CodeSystem/v3-ActReason",
              "code": "TRAIN"
            }
          ],
          "tag": [
            {
              "system": "https://synderai.net/fhir/CodeSystem/tags",
              "code": "synthetic",
              "display": "SYNDERAI Synthetic data"
            }
          ],
          "profile": [
            "http://hl7.eu/fhir/base/StructureDefinition/patient-eu-core"
          ]
        },
        "identifier": [
          {
            "type": {
              "coding": [
                {
                  "code": "PT",
                  "system": "http://terminology.hl7.org/CodeSystem/v2-0203"
                }
              ]
            },
            "system": "http://ec.europa.eu/identifier/eci",
            "value": "6172-576075-7"
          },
          {
            "type": {
              "coding": [
                {
                  "code": "MR",
                  "system": "http://terminology.hl7.org/CodeSystem/v2-0203"
                }
              ]
            },
            "system": "http://local.setting.eu/identifier",
            "value": "f7f175da-cf0d-5686-8800-840d9ab7b47b"
          }
        ],
        "name": [
          {
            "family": "Taylor"
          },
          {
            "given": [
              "Eileen"
            ]
          },
          {
            "text": "Eileen Taylor"
          }
        ],
        "address": [
          {
            "line": [
              "39 Slater harbors"
            ],
            "use": "home",
            "type": "physical",
            "postalCode": "LE17",
            "city": "Smithtown",
            "country": "United Kingdom"
          }
        ],
        "telecom": [
          {
            "system": "phone",
            "value": "+44(0)1614960460"
          }
        ],
        "extension": [
          {
            "url": "http://hl7.org/fhir/StructureDefinition/patient-nationality",
            "valueCodeableConcept": {
              "coding": [
                {
                  "code": "GB",
                  "system": "http://hl7.org/fhir/ValueSet/country"
                }
              ]
            }
          }
        ],
        "text": {
          "status": "generated",
          "div": "<div xmlns=\"http://www.w3.org/1999/xhtml\"><table class=\"hl7__ips\"><tr><td>Eileen Taylor</td><td>female</td><td>11-Dec-1951</td></tr></table></div>"
        },
        "gender": "female",
        "birthDate": "1951-12-11"
      }
    },
    {
      "fullUrl": "urn:uuid:19f235f2-7f08-4721-81fa-26be60994920",
      "resource": {
        "resourceType": "ServiceRequest",
        "id": "19f235f2-7f08-4721-81fa-26be60994920",
        "meta": {
          "profile": [
            "http://hl7.eu/fhir/laboratory/StructureDefinition/ServiceRequest-eu-lab"
          ]
        },
        "identifier": [
          {
            "system": "http://example.org",
            "value": "ba39bd3b-6439-4494-ba32-551ed971b4eb"
          }
        ],
        "specimen": [
          {
            "reference": "urn:uuid:450628f9-ccf5-4af2-829a-fbad5fe93599"
          },
          {
            "reference": "urn:uuid:87684b53-44f1-4055-a424-7ac7e80e8177"
          },
          {
            "reference": "urn:uuid:e12168e0-25c0-4467-98ea-b767fd24f7b4"
          }
        ],
        "reasonCode": [
          {
            "coding": [
              {
                "code": "203082005",
                "system": "http://snomed.info/sct",
                "display": "Fibromyalgia"
              }
            ]
          },
          {
            "coding": [
              {
                "code": "239873007",
                "system": "http://snomed.info/sct",
                "display": "Osteoarthritis of knee"
              }
            ]
          },
          {
            "coding": [
              {
                "code": "55822004",
                "system": "http://snomed.info/sct",
                "display": "Hyperlipidemia"
              }
            ]
          },
          {
            "coding": [
              {
                "code": "254837009",
                "system": "http://snomed.info/sct",
                "display": "Malignant neoplasm of breast"
              }
            ]
          },
          {
            "coding": [
              {
                "code": "197927001",
                "system": "http://snomed.info/sct",
                "display": "Recurrent urinary tract infection"
              }
            ]
          }
        ],
        "status": "active",
        "intent": "order",
        "code": {
          "coding": [
            {
              "code": "108252007",
              "system": "http://snomed.info/sct",
              "display": "Laboratory procedure"
            }
          ]
        },
        "subject": {
          "reference": "urn:uuid:50fbee66-041f-42a5-8d26-c82dd2a15c0f",
          "display": "Eileen Taylor"
        },
        "requester": {
          "reference": "urn:uuid:b8ab6c4a-6488-4c4e-b899-e709734d51fd"
        }
      }
    },
    {
      "fullUrl": "urn:uuid:b8ab6c4a-6488-4c4e-b899-e709734d51fd",
      "resource": {
        "resourceType": "PractitionerRole",
        "id": "b8ab6c4a-6488-4c4e-b899-e709734d51fd",
        "meta": {
          "profile": [
            "http://hl7.eu/fhir/base/StructureDefinition/practitionerRole-eu"
          ]
        },
        "text": {
          "status": "generated",
          "div": "<div xmlns=\"http://www.w3.org/1999/xhtml\">Provider Role Id: b8ab6c4a-6488-4c4e-b899-e709734d51fd</div>"
        },
        "organization": {
          "reference": "urn:uuid:56f6e21a-2e01-4446-be01-7efdefe16227"
        }
      }
    },
    {
      "fullUrl": "urn:uuid:56f6e21a-2e01-4446-be01-7efdefe16227",
      "resource": {
        "resourceType": "Organization",
        "id": "56f6e21a-2e01-4446-be01-7efdefe16227",
        "meta": {
          "profile": [
            "http://hl7.eu/fhir/base/StructureDefinition/organization-eu"
          ]
        },
        "identifier": [
          {
            "assigner": {
              "display": "HL7 Europe"
            },
            "system": "urn:oid:2.16.840.1.113883.2.51.999",
            "value": "a8dde062-3837-4fe8-ab01-cfff4efe895e"
          }
        ],
        "address": [
          {
            "city": "Leicester",
            "postalCode": "LE2 7",
            "country": "United Kingdom"
          }
        ],
        "text": {
          "status": "generated",
          "div": "<div xmlns=\"http://www.w3.org/1999/xhtml\">Provider Organization: Leicester Royal Infirmary</div>"
        },
        "name": "Leicester Royal Infirmary"
      }
    },
    {
      "fullUrl": "urn:uuid:450628f9-ccf5-4af2-829a-fbad5fe93599",
      "resource": {
        "resourceType": "Specimen",
        "id": "450628f9-ccf5-4af2-829a-fbad5fe93599",
        "meta": {
          "profile": [
            "http://hl7.eu/fhir/laboratory/StructureDefinition/Specimen-eu-lab"
          ]
        },
        "collection": {
          "collectedDateTime": "2019-04-01"
        },
        "text": {
          "status": "generated",
          "div": "<div xmlns=\"http://www.w3.org/1999/xhtml\"><table class=\"hl7__eu__lab__report\"><tr><th>Specimen</th><th>Collection Date</th></tr><tr><td>Whole blood specimen (specimen)</td><td><span class=\"nb\">01-Apr-2019</span></td></tr></table></div>"
        },
        "type": {
          "coding": [
            {
              "code": "258580003",
              "system": "http://snomed.info/sct",
              "display": "Whole blood specimen (specimen)"
            }
          ]
        }
      }
    },
    {
      "fullUrl": "urn:uuid:87684b53-44f1-4055-a424-7ac7e80e8177",
      "resource": {
        "resourceType": "Specimen",
        "id": "87684b53-44f1-4055-a424-7ac7e80e8177",
        "meta": {
          "profile": [
            "http://hl7.eu/fhir/laboratory/StructureDefinition/Specimen-eu-lab"
          ]
        },
        "collection": {
          "collectedDateTime": "2019-04-01"
        },
        "text": {
          "status": "generated",
          "div": "<div xmlns=\"http://www.w3.org/1999/xhtml\"><table class=\"hl7__eu__lab__report\"><tr><th>Specimen</th><th>Collection Date</th></tr><tr><td>Acellular blood (serum or plasma) specimen</td><td><span class=\"nb\">01-Apr-2019</span></td></tr></table></div>"
        },
        "type": {
          "coding": [
            {
              "code": "122592007",
              "system": "http://snomed.info/sct",
              "display": "Acellular blood (serum or plasma) specimen"
            }
          ]
        }
      }
    },
    {
      "fullUrl": "urn:uuid:e12168e0-25c0-4467-98ea-b767fd24f7b4",
      "resource": {
        "resourceType": "Specimen",
        "id": "e12168e0-25c0-4467-98ea-b767fd24f7b4",
        "meta": {
          "profile": [
            "http://hl7.eu/fhir/laboratory/StructureDefinition/Specimen-eu-lab"
          ]
        },
        "collection": {
          "collectedDateTime": "2019-04-01"
        },
        "text": {
          "status": "generated",
          "div": "<div xmlns=\"http://www.w3.org/1999/xhtml\"><table class=\"hl7__eu__lab__report\"><tr><th>Specimen</th><th>Collection Date</th></tr><tr><td>Serum specimen</td><td><span class=\"nb\">01-Apr-2019</span></td></tr></table></div>"
        },
        "type": {
          "coding": [
            {
              "code": "119364003",
              "system": "http://snomed.info/sct",
              "display": "Serum specimen"
            }
          ]
        }
      }
    },
    {
      "fullUrl": "urn:uuid:a89d37a5-56e7-4879-af03-e88d83f50c1a",
      "resource": {
        "resourceType": "Observation",
        "id": "a89d37a5-56e7-4879-af03-e88d83f50c1a",
        "meta": {
          "profile": [
            "http://hl7.eu/fhir/laboratory/StructureDefinition/Observation-resultslab-eu-lab"
          ]
        },
        "performer": [
          {
            "display": "The Central European Lab"
          }
        ],
        "category": [
          {
            "coding": [
              {
                "system": "http://terminology.hl7.org/CodeSystem/observation-category",
                "code": "laboratory"
              }
            ]
          }
        ],
        "code": {
          "coding": [
            {
              "code": "2339-0",
              "system": "http://loinc.org",
              "display": "Glucose [Mass/volume] in Blood"
            }
          ],
          "text": "Glucose [Mass/volume] in Blood"
        },
        "valueQuantity": {
          "system": "http://unitsofmeasure.org",
          "value": 90.8,
          "unit": "mg/dL",
          "code": "mg/dL"
        },
        "referenceRange": [
          {
            "low": {
              "value": 70,
              "code": "mg/dL",
              "system": "http://unitsofmeasure.org"
            }
          },
          {
            "high": {
              "value": 140,
              "code": "mg/dL",
              "system": "http://unitsofmeasure.org"
            }
          }
        ],
        "text": {
          "status": "generated",
          "div": "<div xmlns=\"http://www.w3.org/1999/xhtml\"><table class=\"hl7__eu__lab__report\"><tr><th>Test</th><th>01-Apr-2019</th><th>Reference&#xA0;Range</th><th>Unit</th></tr><tr><td>Glucose [Mass/volume] in Blood</td><td>90.8</td><td>70 - 140</td><td></td><td>mg/dL</td></tr></table></div>"
        },
        "status": "final",
        "subject": {
          "reference": "urn:uuid:50fbee66-041f-42a5-8d26-c82dd2a15c0f",
          "display": "Eileen Taylor"
        },
        "effectiveDateTime": "2019-04-01T05:47:02Z",
        "specimen": {
          "reference": "urn:uuid:450628f9-ccf5-4af2-829a-fbad5fe93599"
        }
      }
    },
    {
      "fullUrl": "urn:uuid:127c73b9-f24d-4635-ad64-3038ef983b72",
      "resource": {
        "resourceType": "Observation",
        "id": "127c73b9-f24d-4635-ad64-3038ef983b72",
        "meta": {
          "profile": [
            "http://hl7.eu/fhir/laboratory/StructureDefinition/Observation-resultslab-eu-lab"
          ]
        },
        "performer": [
          {
            "display": "The Central European Lab"
          }
        ],
        "category": [
          {
            "coding": [
              {
                "system": "http://terminology.hl7.org/CodeSystem/observation-category",
                "code": "laboratory"
              }
            ]
          }
        ],
        "code": {
          "coding": [
            {
              "code": "6299-2",
              "system": "http://loinc.org",
              "display": "Urea nitrogen [Mass/volume] in Blood"
            }
          ],
          "text": "Urea nitrogen [Mass/volume] in Blood"
        },
        "valueQuantity": {
          "system": "http://unitsofmeasure.org",
          "value": 18.9,
          "unit": "mg/dL",
          "code": "mg/dL"
        },
        "referenceRange": [
          {
            "low": {
              "value": 7,
              "code": "mg/dL",
              "system": "http://unitsofmeasure.org"
            }
          },
          {
            "high": {
              "value": 20,
              "code": "mg/dL",
              "system": "http://unitsofmeasure.org"
            }
          }
        ],
        "text": {
          "status": "generated",
          "div": "<div xmlns=\"http://www.w3.org/1999/xhtml\"><table class=\"hl7__eu__lab__report\"><tr><th>Test</th><th>01-Apr-2019</th><th>Reference&#xA0;Range</th><th>Unit</th></tr><tr><td>Urea nitrogen [Mass/volume] in Blood</td><td>18.9</td><td>7 - 20</td><td></td><td>mg/dL</td></tr></table></div>"
        },
        "status": "final",
        "subject": {
          "reference": "urn:uuid:50fbee66-041f-42a5-8d26-c82dd2a15c0f",
          "display": "Eileen Taylor"
        },
        "effectiveDateTime": "2019-04-01T05:47:02Z",
        "specimen": {
          "reference": "urn:uuid:450628f9-ccf5-4af2-829a-fbad5fe93599"
        }
      }
    },
    {
      "fullUrl": "urn:uuid:e7edede6-8f55-44ca-998b-809423844134",
      "resource": {
        "resourceType": "Observation",
        "id": "e7edede6-8f55-44ca-998b-809423844134",
        "meta": {
          "profile": [
            "http://hl7.eu/fhir/laboratory/StructureDefinition/Observation-resultslab-eu-lab"
          ]
        },
        "performer": [
          {
            "display": "The Central European Lab"
          }
        ],
        "category": [
          {
            "coding": [
              {
                "system": "http://terminology.hl7.org/CodeSystem/observation-category",
                "code": "laboratory"
              }
            ]
          }
        ],
        "code": {
          "coding": [
            {
              "code": "38483-4",
              "system": "http://loinc.org",
              "display": "Creatinine [Mass/volume] in Blood"
            }
          ],
          "text": "Creatinine [Mass/volume] in Blood"
        },
        "valueQuantity": {
          "system": "http://unitsofmeasure.org",
          "value": 2.9,
          "unit": "mg/dL",
          "code": "mg/dL"
        },
        "referenceRange": [
          {
            "low": {
              "value": 0.6,
              "code": "mg/dL",
              "system": "http://unitsofmeasure.org"
            }
          },
          {
            "high": {
              "value": 1.1,
              "code": "mg/dL",
              "system": "http://unitsofmeasure.org"
            }
          }
        ],
        "interpretation": [
          {
            "coding": [
              {
                "code": "H",
                "system": "http://terminology.hl7.org/CodeSystem/v3-ObservationInterpretation",
                "display": "High"
              }
            ]
          }
        ],
        "text": {
          "status": "generated",
          "div": "<div xmlns=\"http://www.w3.org/1999/xhtml\"><table class=\"hl7__eu__lab__report\"><tr><th>Test</th><th>01-Apr-2019</th><th>Reference&#xA0;Range</th><th>Unit</th></tr><tr><td>Creatinine [Mass/volume] in Blood</td><td>2.9</td><td>0.6 - 1.1</td><td>H</td><td>mg/dL</td></tr></table></div>"
        },
        "status": "final",
        "subject": {
          "reference": "urn:uuid:50fbee66-041f-42a5-8d26-c82dd2a15c0f",
          "display": "Eileen Taylor"
        },
        "effectiveDateTime": "2019-04-01T05:47:02Z",
        "specimen": {
          "reference": "urn:uuid:450628f9-ccf5-4af2-829a-fbad5fe93599"
        }
      }
    },
    {
      "fullUrl": "urn:uuid:176ed341-803c-4c1f-abe9-ed1f2bf05ece",
      "resource": {
        "resourceType": "Observation",
        "id": "176ed341-803c-4c1f-abe9-ed1f2bf05ece",
        "meta": {
          "profile": [
            "http://hl7.eu/fhir/laboratory/StructureDefinition/Observation-resultslab-eu-lab"
          ]
        },
        "performer": [
          {
            "display": "The Central European Lab"
          }
        ],
        "category": [
          {
            "coding": [
              {
                "system": "http://terminology.hl7.org/CodeSystem/observation-category",
                "code": "laboratory"
              }
            ]
          }
        ],
        "code": {
          "coding": [
            {
              "code": "49765-1",
              "system": "http://loinc.org",
              "display": "Calcium [Mass/volume] in Blood"
            }
          ],
          "text": "Calcium [Mass/volume] in Blood"
        },
        "valueQuantity": {
          "system": "http://unitsofmeasure.org",
          "value": 9.8,
          "unit": "mg/dL",
          "code": "mg/dL"
        },
        "referenceRange": [
          {
            "low": {
              "value": 8.5,
              "code": "mg/dL",
              "system": "http://unitsofmeasure.org"
            }
          },
          {
            "high": {
              "value": 10.4,
              "code": "mg/dL",
              "system": "http://unitsofmeasure.org"
            }
          }
        ],
        "text": {
          "status": "generated",
          "div": "<div xmlns=\"http://www.w3.org/1999/xhtml\"><table class=\"hl7__eu__lab__report\"><tr><th>Test</th><th>01-Apr-2019</th><th>Reference&#xA0;Range</th><th>Unit</th></tr><tr><td>Calcium [Mass/volume] in Blood</td><td>9.8</td><td>8.5 - 10.4</td><td></td><td>mg/dL</td></tr></table></div>"
        },
        "status": "final",
        "subject": {
          "reference": "urn:uuid:50fbee66-041f-42a5-8d26-c82dd2a15c0f",
          "display": "Eileen Taylor"
        },
        "effectiveDateTime": "2019-04-01T05:47:02Z",
        "specimen": {
          "reference": "urn:uuid:450628f9-ccf5-4af2-829a-fbad5fe93599"
        }
      }
    },
    {
      "fullUrl": "urn:uuid:3487028e-2b2d-4ca2-98eb-48c05827071a",
      "resource": {
        "resourceType": "Observation",
        "id": "3487028e-2b2d-4ca2-98eb-48c05827071a",
        "meta": {
          "profile": [
            "http://hl7.eu/fhir/laboratory/StructureDefinition/Observation-resultslab-eu-lab"
          ]
        },
        "performer": [
          {
            "display": "The Central European Lab"
          }
        ],
        "category": [
          {
            "coding": [
              {
                "system": "http://terminology.hl7.org/CodeSystem/observation-category",
                "code": "laboratory"
              }
            ]
          }
        ],
        "code": {
          "coding": [
            {
              "code": "2947-0",
              "system": "http://loinc.org",
              "display": "Sodium [Moles/volume] in Blood"
            }
          ],
          "text": "Sodium [Moles/volume] in Blood"
        },
        "valueQuantity": {
          "system": "http://unitsofmeasure.org",
          "value": 142.2,
          "unit": "mmol/L",
          "code": "mmol/L"
        },
        "referenceRange": [
          {
            "low": {
              "value": 135,
              "code": "mmol/L",
              "system": "http://unitsofmeasure.org"
            }
          },
          {
            "high": {
              "value": 145,
              "code": "mmol/L",
              "system": "http://unitsofmeasure.org"
            }
          }
        ],
        "text": {
          "status": "generated",
          "div": "<div xmlns=\"http://www.w3.org/1999/xhtml\"><table class=\"hl7__eu__lab__report\"><tr><th>Test</th><th>01-Apr-2019</th><th>Reference&#xA0;Range</th><th>Unit</th></tr><tr><td>Sodium [Moles/volume] in Blood</td><td>142.2</td><td>135 - 145</td><td></td><td>mmol/L</td></tr></table></div>"
        },
        "status": "final",
        "subject": {
          "reference": "urn:uuid:50fbee66-041f-42a5-8d26-c82dd2a15c0f",
          "display": "Eileen Taylor"
        },
        "effectiveDateTime": "2019-04-01T05:47:02Z",
        "specimen": {
          "reference": "urn:uuid:450628f9-ccf5-4af2-829a-fbad5fe93599"
        }
      }
    },
    {
      "fullUrl": "urn:uuid:7c83e617-8693-4676-8f1d-28096ede7f2c",
      "resource": {
        "resourceType": "Observation",
        "id": "7c83e617-8693-4676-8f1d-28096ede7f2c",
        "meta": {
          "profile": [
            "http://hl7.eu/fhir/laboratory/StructureDefinition/Observation-resultslab-eu-lab"
          ]
        },
        "performer": [
          {
            "display": "The Central European Lab"
          }
        ],
        "category": [
          {
            "coding": [
              {
                "system": "http://terminology.hl7.org/CodeSystem/observation-category",
                "code": "laboratory"
              }
            ]
          }
        ],
        "code": {
          "coding": [
            {
              "code": "6298-4",
              "system": "http://loinc.org",
              "display": "Potassium [Moles/volume] in Blood"
            }
          ],
          "text": "Potassium [Moles/volume] in Blood"
        },
        "valueQuantity": {
          "system": "http://unitsofmeasure.org",
          "value": 5.1,
          "unit": "mmol/L",
          "code": "mmol/L"
        },
        "referenceRange": [
          {
            "low": {
              "value": 3.5,
              "code": "mmol/L",
              "system": "http://unitsofmeasure.org"
            }
          },
          {
            "high": {
              "value": 5.1,
              "code": "mmol/L",
              "system": "http://unitsofmeasure.org"
            }
          }
        ],
        "text": {
          "status": "generated",
          "div": "<div xmlns=\"http://www.w3.org/1999/xhtml\"><table class=\"hl7__eu__lab__report\"><tr><th>Test</th><th>01-Apr-2019</th><th>Reference&#xA0;Range</th><th>Unit</th></tr><tr><td>Potassium [Moles/volume] in Blood</td><td>5.1</td><td>3.5 - 5.1</td><td></td><td>mmol/L</td></tr></table></div>"
        },
        "status": "final",
        "subject": {
          "reference": "urn:uuid:50fbee66-041f-42a5-8d26-c82dd2a15c0f",
          "display": "Eileen Taylor"
        },
        "effectiveDateTime": "2019-04-01T05:47:02Z",
        "specimen": {
          "reference": "urn:uuid:450628f9-ccf5-4af2-829a-fbad5fe93599"
        }
      }
    },
    {
      "fullUrl": "urn:uuid:2f39b46a-3a20-4812-b1f8-d33030deec7a",
      "resource": {
        "resourceType": "Observation",
        "id": "2f39b46a-3a20-4812-b1f8-d33030deec7a",
        "meta": {
          "profile": [
            "http://hl7.eu/fhir/laboratory/StructureDefinition/Observation-resultslab-eu-lab"
          ]
        },
        "performer": [
          {
            "display": "The Central European Lab"
          }
        ],
        "category": [
          {
            "coding": [
              {
                "system": "http://terminology.hl7.org/CodeSystem/observation-category",
                "code": "laboratory"
              }
            ]
          }
        ],
        "code": {
          "coding": [
            {
              "code": "2069-3",
              "system": "http://loinc.org",
              "display": "Chloride [Moles/volume] in Blood"
            }
          ],
          "text": "Chloride [Moles/volume] in Blood"
        },
        "valueQuantity": {
          "system": "http://unitsofmeasure.org",
          "value": 108.1,
          "unit": "mmol/L",
          "code": "mmol/L"
        },
        "referenceRange": [
          {
            "low": {
              "value": 98,
              "code": "mmol/L",
              "system": "http://unitsofmeasure.org"
            }
          },
          {
            "high": {
              "value": 108,
              "code": "mmol/L",
              "system": "http://unitsofmeasure.org"
            }
          }
        ],
        "interpretation": [
          {
            "coding": [
              {
                "code": "H",
                "system": "http://terminology.hl7.org/CodeSystem/v3-ObservationInterpretation",
                "display": "High"
              }
            ]
          }
        ],
        "text": {
          "status": "generated",
          "div": "<div xmlns=\"http://www.w3.org/1999/xhtml\"><table class=\"hl7__eu__lab__report\"><tr><th>Test</th><th>01-Apr-2019</th><th>Reference&#xA0;Range</th><th>Unit</th></tr><tr><td>Chloride [Moles/volume] in Blood</td><td>108.1</td><td>98 - 108</td><td>H</td><td>mmol/L</td></tr></table></div>"
        },
        "status": "final",
        "subject": {
          "reference": "urn:uuid:50fbee66-041f-42a5-8d26-c82dd2a15c0f",
          "display": "Eileen Taylor"
        },
        "effectiveDateTime": "2019-04-01T05:47:02Z",
        "specimen": {
          "reference": "urn:uuid:450628f9-ccf5-4af2-829a-fbad5fe93599"
        }
      }
    },
    {
      "fullUrl": "urn:uuid:51d79ebd-a8f9-4092-aa56-5af52e937596",
      "resource": {
        "resourceType": "Observation",
        "id": "51d79ebd-a8f9-4092-aa56-5af52e937596",
        "meta": {
          "profile": [
            "http://hl7.eu/fhir/laboratory/StructureDefinition/Observation-resultslab-eu-lab"
          ]
        },
        "performer": [
          {
            "display": "The Central European Lab"
          }
        ],
        "category": [
          {
            "coding": [
              {
                "system": "http://terminology.hl7.org/CodeSystem/observation-category",
                "code": "laboratory"
              }
            ]
          }
        ],
        "code": {
          "coding": [
            {
              "code": "20565-8",
              "system": "http://loinc.org",
              "display": "Carbon dioxide, total [Moles/volume] in Blood"
            }
          ],
          "text": "Carbon dioxide, total [Moles/volume] in Blood"
        },
        "valueQuantity": {
          "system": "http://unitsofmeasure.org",
          "value": 28.1,
          "unit": "mmol/L",
          "code": "mmol/L"
        },
        "referenceRange": [
          {
            "low": {
              "value": 22,
              "code": "mmol/L",
              "system": "http://unitsofmeasure.org"
            }
          },
          {
            "high": {
              "value": 29,
              "code": "mmol/L",
              "system": "http://unitsofmeasure.org"
            }
          }
        ],
        "text": {
          "status": "generated",
          "div": "<div xmlns=\"http://www.w3.org/1999/xhtml\"><table class=\"hl7__eu__lab__report\"><tr><th>Test</th><th>01-Apr-2019</th><th>Reference&#xA0;Range</th><th>Unit</th></tr><tr><td>Carbon dioxide, total [Moles/volume] in Blood</td><td>28.1</td><td>22 - 29</td><td></td><td>mmol/L</td></tr></table></div>"
        },
        "status": "final",
        "subject": {
          "reference": "urn:uuid:50fbee66-041f-42a5-8d26-c82dd2a15c0f",
          "display": "Eileen Taylor"
        },
        "effectiveDateTime": "2019-04-01T05:47:02Z",
        "specimen": {
          "reference": "urn:uuid:450628f9-ccf5-4af2-829a-fbad5fe93599"
        }
      }
    },
    {
      "fullUrl": "urn:uuid:1d4b3857-c817-404f-a9f8-5c1ff60e1cec",
      "resource": {
        "resourceType": "Observation",
        "id": "1d4b3857-c817-404f-a9f8-5c1ff60e1cec",
        "meta": {
          "profile": [
            "http://hl7.eu/fhir/laboratory/StructureDefinition/Observation-resultslab-eu-lab"
          ]
        },
        "performer": [
          {
            "display": "The Central European Lab"
          }
        ],
        "category": [
          {
            "coding": [
              {
                "system": "http://terminology.hl7.org/CodeSystem/observation-category",
                "code": "laboratory"
              }
            ]
          }
        ],
        "code": {
          "coding": [
            {
              "code": "2885-2",
              "system": "http://loinc.org",
              "display": "Protein [Mass/volume] in Serum or Plasma"
            }
          ],
          "text": "Protein [Mass/volume] in Serum or Plasma"
        },
        "valueQuantity": {
          "system": "http://unitsofmeasure.org",
          "value": 6.5,
          "unit": "g/dL",
          "code": "g/dL"
        },
        "referenceRange": [
          {
            "low": {
              "value": 6,
              "code": "g/dL",
              "system": "http://unitsofmeasure.org"
            }
          },
          {
            "high": {
              "value": 8.3,
              "code": "g/dL",
              "system": "http://unitsofmeasure.org"
            }
          }
        ],
        "text": {
          "status": "generated",
          "div": "<div xmlns=\"http://www.w3.org/1999/xhtml\"><table class=\"hl7__eu__lab__report\"><tr><th>Test</th><th>01-Apr-2019</th><th>Reference&#xA0;Range</th><th>Unit</th></tr><tr><td>Protein [Mass/volume] in Serum or Plasma</td><td>6.5</td><td>6 - 8.3</td><td></td><td>g/dL</td></tr></table></div>"
        },
        "status": "final",
        "subject": {
          "reference": "urn:uuid:50fbee66-041f-42a5-8d26-c82dd2a15c0f",
          "display": "Eileen Taylor"
        },
        "effectiveDateTime": "2019-04-01T05:47:02Z",
        "specimen": {
          "reference": "urn:uuid:87684b53-44f1-4055-a424-7ac7e80e8177"
        }
      }
    },
    {
      "fullUrl": "urn:uuid:aaf55842-a8b4-4f49-80d6-313a0e909a09",
      "resource": {
        "resourceType": "Observation",
        "id": "aaf55842-a8b4-4f49-80d6-313a0e909a09",
        "meta": {
          "profile": [
            "http://hl7.eu/fhir/laboratory/StructureDefinition/Observation-resultslab-eu-lab"
          ]
        },
        "performer": [
          {
            "display": "The Central European Lab"
          }
        ],
        "category": [
          {
            "coding": [
              {
                "system": "http://terminology.hl7.org/CodeSystem/observation-category",
                "code": "laboratory"
              }
            ]
          }
        ],
        "code": {
          "coding": [
            {
              "code": "1751-7",
              "system": "http://loinc.org",
              "display": "Albumin [Mass/volume] in Serum or Plasma"
            }
          ],
          "text": "Albumin [Mass/volume] in Serum or Plasma"
        },
        "valueQuantity": {
          "system": "http://unitsofmeasure.org",
          "value": 5,
          "unit": "g/dL",
          "code": "g/dL"
        },
        "referenceRange": [
          {
            "low": {
              "value": 3.4,
              "code": "g/dL",
              "system": "http://unitsofmeasure.org"
            }
          },
          {
            "high": {
              "value": 5,
              "code": "g/dL",
              "system": "http://unitsofmeasure.org"
            }
          }
        ],
        "text": {
          "status": "generated",
          "div": "<div xmlns=\"http://www.w3.org/1999/xhtml\"><table class=\"hl7__eu__lab__report\"><tr><th>Test</th><th>01-Apr-2019</th><th>Reference&#xA0;Range</th><th>Unit</th></tr><tr><td>Albumin [Mass/volume] in Serum or Plasma</td><td>5.0</td><td>3.4 - 5</td><td></td><td>g/dL</td></tr></table></div>"
        },
        "status": "final",
        "subject": {
          "reference": "urn:uuid:50fbee66-041f-42a5-8d26-c82dd2a15c0f",
          "display": "Eileen Taylor"
        },
        "effectiveDateTime": "2019-04-01T05:47:02Z",
        "specimen": {
          "reference": "urn:uuid:87684b53-44f1-4055-a424-7ac7e80e8177"
        }
      }
    },
    {
      "fullUrl": "urn:uuid:7aafd35b-ad2e-47d7-af4c-74d13755faad",
      "resource": {
        "resourceType": "Observation",
        "id": "7aafd35b-ad2e-47d7-af4c-74d13755faad",
        "meta": {
          "profile": [
            "http://hl7.eu/fhir/laboratory/StructureDefinition/Observation-resultslab-eu-lab"
          ]
        },
        "performer": [
          {
            "display": "The Central European Lab"
          }
        ],
        "category": [
          {
            "coding": [
              {
                "system": "http://terminology.hl7.org/CodeSystem/observation-category",
                "code": "laboratory"
              }
            ]
          }
        ],
        "code": {
          "coding": [
            {
              "code": "10834-0",
              "system": "http://loinc.org",
              "display": "Globulin [Mass/volume] in Serum by calculation"
            }
          ],
          "text": "Globulin [Mass/volume] in Serum by calculation"
        },
        "valueQuantity": {
          "system": "http://unitsofmeasure.org",
          "value": 2.9,
          "unit": "g/L",
          "code": "g/L"
        },
        "referenceRange": [
          {
            "low": {
              "value": 2,
              "code": "g/L",
              "system": "http://unitsofmeasure.org"
            }
          },
          {
            "high": {
              "value": 3.5,
              "code": "g/L",
              "system": "http://unitsofmeasure.org"
            }
          }
        ],
        "text": {
          "status": "generated",
          "div": "<div xmlns=\"http://www.w3.org/1999/xhtml\"><table class=\"hl7__eu__lab__report\"><tr><th>Test</th><th>01-Apr-2019</th><th>Reference&#xA0;Range</th><th>Unit</th></tr><tr><td>Globulin [Mass/volume] in Serum by calculation</td><td>2.9</td><td>2 - 3.5</td><td></td><td>g/L</td></tr></table></div>"
        },
        "status": "final",
        "subject": {
          "reference": "urn:uuid:50fbee66-041f-42a5-8d26-c82dd2a15c0f",
          "display": "Eileen Taylor"
        },
        "effectiveDateTime": "2019-04-01T05:47:02Z",
        "specimen": {
          "reference": "urn:uuid:e12168e0-25c0-4467-98ea-b767fd24f7b4"
        }
      }
    },
    {
      "fullUrl": "urn:uuid:d938a285-6538-483f-9be3-e5094ea8ada0",
      "resource": {
        "resourceType": "Observation",
        "id": "d938a285-6538-483f-9be3-e5094ea8ada0",
        "meta": {
          "profile": [
            "http://hl7.eu/fhir/laboratory/StructureDefinition/Observation-resultslab-eu-lab"
          ]
        },
        "performer": [
          {
            "display": "The Central European Lab"
          }
        ],
        "category": [
          {
            "coding": [
              {
                "system": "http://terminology.hl7.org/CodeSystem/observation-category",
                "code": "laboratory"
              }
            ]
          }
        ],
        "code": {
          "coding": [
            {
              "code": "1975-2",
              "system": "http://loinc.org",
              "display": "Bilirubin.total [Mass/volume] in Serum or Plasma"
            }
          ],
          "text": "Bilirubin.total [Mass/volume] in Serum or Plasma"
        },
        "valueQuantity": {
          "system": "http://unitsofmeasure.org",
          "value": 1,
          "unit": "mg/dL",
          "code": "mg/dL"
        },
        "referenceRange": [
          {
            "low": {
              "value": 0.2,
              "code": "mg/dL",
              "system": "http://unitsofmeasure.org"
            }
          },
          {
            "high": {
              "value": 1.2,
              "code": "mg/dL",
              "system": "http://unitsofmeasure.org"
            }
          }
        ],
        "text": {
          "status": "generated",
          "div": "<div xmlns=\"http://www.w3.org/1999/xhtml\"><table class=\"hl7__eu__lab__report\"><tr><th>Test</th><th>01-Apr-2019</th><th>Reference&#xA0;Range</th><th>Unit</th></tr><tr><td>Bilirubin.total [Mass/volume] in Serum or Plasma</td><td>1.0</td><td>0.2 - 1.2</td><td></td><td>mg/dL</td></tr></table></div>"
        },
        "status": "final",
        "subject": {
          "reference": "urn:uuid:50fbee66-041f-42a5-8d26-c82dd2a15c0f",
          "display": "Eileen Taylor"
        },
        "effectiveDateTime": "2019-04-01T05:47:02Z",
        "specimen": {
          "reference": "urn:uuid:87684b53-44f1-4055-a424-7ac7e80e8177"
        }
      }
    },
    {
      "fullUrl": "urn:uuid:1b429379-01c5-4c57-bfb7-b879dccd5bf1",
      "resource": {
        "resourceType": "Observation",
        "id": "1b429379-01c5-4c57-bfb7-b879dccd5bf1",
        "meta": {
          "profile": [
            "http://hl7.eu/fhir/laboratory/StructureDefinition/Observation-resultslab-eu-lab"
          ]
        },
        "performer": [
          {
            "display": "The Central European Lab"
          }
        ],
        "category": [
          {
            "coding": [
              {
                "system": "http://terminology.hl7.org/CodeSystem/observation-category",
                "code": "laboratory"
              }
            ]
          }
        ],
        "code": {
          "coding": [
            {
              "code": "6768-6",
              "system": "http://loinc.org",
              "display": "Alkaline phosphatase [Enzymatic activity/volume] in Serum or Plasma"
            }
          ],
          "text": "Alkaline phosphatase [Enzymatic activity/volume] in Serum or Plasma"
        },
        "valueQuantity": {
          "system": "http://unitsofmeasure.org",
          "value": 45.3,
          "unit": "U/L",
          "code": "U/L"
        },
        "referenceRange": [
          {
            "low": {
              "value": 44,
              "code": "U/L",
              "system": "http://unitsofmeasure.org"
            }
          },
          {
            "high": {
              "value": 104,
              "code": "U/L",
              "system": "http://unitsofmeasure.org"
            }
          }
        ],
        "text": {
          "status": "generated",
          "div": "<div xmlns=\"http://www.w3.org/1999/xhtml\"><table class=\"hl7__eu__lab__report\"><tr><th>Test</th><th>01-Apr-2019</th><th>Reference&#xA0;Range</th><th>Unit</th></tr><tr><td>Alkaline phosphatase [Enzymatic activity/volume] in Serum or Plasma</td><td>45.3</td><td>44 - 104</td><td></td><td>U/L</td></tr></table></div>"
        },
        "status": "final",
        "subject": {
          "reference": "urn:uuid:50fbee66-041f-42a5-8d26-c82dd2a15c0f",
          "display": "Eileen Taylor"
        },
        "effectiveDateTime": "2019-04-01T05:47:02Z",
        "specimen": {
          "reference": "urn:uuid:87684b53-44f1-4055-a424-7ac7e80e8177"
        }
      }
    },
    {
      "fullUrl": "urn:uuid:d9fb1729-6dde-4772-8816-f0a6c7969acf",
      "resource": {
        "resourceType": "Observation",
        "id": "d9fb1729-6dde-4772-8816-f0a6c7969acf",
        "meta": {
          "profile": [
            "http://hl7.eu/fhir/laboratory/StructureDefinition/Observation-resultslab-eu-lab"
          ]
        },
        "performer": [
          {
            "display": "The Central European Lab"
          }
        ],
        "category": [
          {
            "coding": [
              {
                "system": "http://terminology.hl7.org/CodeSystem/observation-category",
                "code": "laboratory"
              }
            ]
          }
        ],
        "code": {
          "coding": [
            {
              "code": "1742-6",
              "system": "http://loinc.org",
              "display": "Alanine aminotransferase [Enzymatic activity/volume] in Serum or Plasma"
            }
          ],
          "text": "Alanine aminotransferase [Enzymatic activity/volume] in Serum or Plasma"
        },
        "valueQuantity": {
          "system": "http://unitsofmeasure.org",
          "value": 40.7,
          "unit": "U/L",
          "code": "U/L"
        },
        "referenceRange": [
          {
            "low": {
              "value": 13,
              "code": "U/L",
              "system": "http://unitsofmeasure.org"
            }
          },
          {
            "high": {
              "value": 36,
              "code": "U/L",
              "system": "http://unitsofmeasure.org"
            }
          }
        ],
        "interpretation": [
          {
            "coding": [
              {
                "code": "H",
                "system": "http://terminology.hl7.org/CodeSystem/v3-ObservationInterpretation",
                "display": "High"
              }
            ]
          }
        ],
        "text": {
          "status": "generated",
          "div": "<div xmlns=\"http://www.w3.org/1999/xhtml\"><table class=\"hl7__eu__lab__report\"><tr><th>Test</th><th>01-Apr-2019</th><th>Reference&#xA0;Range</th><th>Unit</th></tr><tr><td>Alanine aminotransferase [Enzymatic activity/volume] in Serum or Plasma</td><td>40.7</td><td>13 - 36</td><td>H</td><td>U/L</td></tr></table></div>"
        },
        "status": "final",
        "subject": {
          "reference": "urn:uuid:50fbee66-041f-42a5-8d26-c82dd2a15c0f",
          "display": "Eileen Taylor"
        },
        "effectiveDateTime": "2019-04-01T05:47:02Z",
        "specimen": {
          "reference": "urn:uuid:87684b53-44f1-4055-a424-7ac7e80e8177"
        }
      }
    },
    {
      "fullUrl": "urn:uuid:45eada6a-b34c-4adf-b9aa-2e39a0c2fb52",
      "resource": {
        "resourceType": "Observation",
        "id": "45eada6a-b34c-4adf-b9aa-2e39a0c2fb52",
        "meta": {
          "profile": [
            "http://hl7.eu/fhir/laboratory/StructureDefinition/Observation-resultslab-eu-lab"
          ]
        },
        "performer": [
          {
            "display": "The Central European Lab"
          }
        ],
        "category": [
          {
            "coding": [
              {
                "system": "http://terminology.hl7.org/CodeSystem/observation-category",
                "code": "laboratory"
              }
            ]
          }
        ],
        "code": {
          "coding": [
            {
              "code": "1920-8",
              "system": "http://loinc.org",
              "display": "Aspartate aminotransferase [Enzymatic activity/volume] in Serum or Plasma"
            }
          ],
          "text": "Aspartate aminotransferase [Enzymatic activity/volume] in Serum or Plasma"
        },
        "valueQuantity": {
          "system": "http://unitsofmeasure.org",
          "value": 30.8,
          "unit": "U/L",
          "code": "U/L"
        },
        "referenceRange": [
          {
            "low": {
              "value": 10,
              "code": "U/L",
              "system": "http://unitsofmeasure.org"
            }
          },
          {
            "high": {
              "value": 40,
              "code": "U/L",
              "system": "http://unitsofmeasure.org"
            }
          }
        ],
        "text": {
          "status": "generated",
          "div": "<div xmlns=\"http://www.w3.org/1999/xhtml\"><table class=\"hl7__eu__lab__report\"><tr><th>Test</th><th>01-Apr-2019</th><th>Reference&#xA0;Range</th><th>Unit</th></tr><tr><td>Aspartate aminotransferase [Enzymatic activity/volume] in Serum or Plasma</td><td>30.8</td><td>10 - 40</td><td></td><td>U/L</td></tr></table></div>"
        },
        "status": "final",
        "subject": {
          "reference": "urn:uuid:50fbee66-041f-42a5-8d26-c82dd2a15c0f",
          "display": "Eileen Taylor"
        },
        "effectiveDateTime": "2019-04-01T05:47:02Z",
        "specimen": {
          "reference": "urn:uuid:87684b53-44f1-4055-a424-7ac7e80e8177"
        }
      }
    },
    {
      "fullUrl": "urn:uuid:90156e97-b9bb-4a2e-8662-e60d1bd5adba",
      "resource": {
        "resourceType": "Observation",
        "id": "90156e97-b9bb-4a2e-8662-e60d1bd5adba",
        "meta": {
          "profile": [
            "http://hl7.eu/fhir/laboratory/StructureDefinition/Observation-resultslab-eu-lab"
          ]
        },
        "performer": [
          {
            "display": "The Central European Lab"
          }
        ],
        "category": [
          {
            "coding": [
              {
                "system": "http://terminology.hl7.org/CodeSystem/observation-category",
                "code": "laboratory"
              }
            ]
          }
        ],
        "code": {
          "coding": [
            {
              "code": "2093-3",
              "system": "http://loinc.org",
              "display": "Cholesterol [Mass/volume] in Serum or Plasma"
            }
          ],
          "text": "Cholesterol [Mass/volume] in Serum or Plasma"
        },
        "valueQuantity": {
          "system": "http://unitsofmeasure.org",
          "value": 188.3,
          "unit": "mg/dL",
          "code": "mg/dL"
        },
        "referenceRange": [
          {
            "low": {
              "value": 130,
              "code": "mg/dL",
              "system": "http://unitsofmeasure.org"
            }
          },
          {
            "high": {
              "value": 200,
              "code": "mg/dL",
              "system": "http://unitsofmeasure.org"
            }
          }
        ],
        "text": {
          "status": "generated",
          "div": "<div xmlns=\"http://www.w3.org/1999/xhtml\"><table class=\"hl7__eu__lab__report\"><tr><th>Test</th><th>01-Apr-2019</th><th>Reference&#xA0;Range</th><th>Unit</th></tr><tr><td>Cholesterol [Mass/volume] in Serum or Plasma</td><td>188.3</td><td>130 - 200</td><td></td><td>mg/dL</td></tr></table></div>"
        },
        "status": "final",
        "subject": {
          "reference": "urn:uuid:50fbee66-041f-42a5-8d26-c82dd2a15c0f",
          "display": "Eileen Taylor"
        },
        "effectiveDateTime": "2019-04-01T05:47:02Z",
        "specimen": {
          "reference": "urn:uuid:87684b53-44f1-4055-a424-7ac7e80e8177"
        }
      }
    },
    {
      "fullUrl": "urn:uuid:5ff7078e-7d40-4fa2-8733-17c5cddcf431",
      "resource": {
        "resourceType": "Observation",
        "id": "5ff7078e-7d40-4fa2-8733-17c5cddcf431",
        "meta": {
          "profile": [
            "http://hl7.eu/fhir/laboratory/StructureDefinition/Observation-resultslab-eu-lab"
          ]
        },
        "performer": [
          {
            "display": "The Central European Lab"
          }
        ],
        "category": [
          {
            "coding": [
              {
                "system": "http://terminology.hl7.org/CodeSystem/observation-category",
                "code": "laboratory"
              }
            ]
          }
        ],
        "code": {
          "coding": [
            {
              "code": "2571-8",
              "system": "http://loinc.org",
              "display": "Triglyceride [Mass/volume] in Serum or Plasma"
            }
          ],
          "text": "Triglyceride [Mass/volume] in Serum or Plasma"
        },
        "valueQuantity": {
          "system": "http://unitsofmeasure.org",
          "value": 127.4,
          "unit": "mg/dL",
          "code": "mg/dL"
        },
        "referenceRange": [
          {
            "low": {
              "value": 35,
              "code": "mg/dL",
              "system": "http://unitsofmeasure.org"
            }
          },
          {
            "high": {
              "value": 175,
              "code": "mg/dL",
              "system": "http://unitsofmeasure.org"
            }
          }
        ],
        "text": {
          "status": "generated",
          "div": "<div xmlns=\"http://www.w3.org/1999/xhtml\"><table class=\"hl7__eu__lab__report\"><tr><th>Test</th><th>01-Apr-2019</th><th>Reference&#xA0;Range</th><th>Unit</th></tr><tr><td>Triglyceride [Mass/volume] in Serum or Plasma</td><td>127.4</td><td>35 - 175</td><td></td><td>mg/dL</td></tr></table></div>"
        },
        "status": "final",
        "subject": {
          "reference": "urn:uuid:50fbee66-041f-42a5-8d26-c82dd2a15c0f",
          "display": "Eileen Taylor"
        },
        "effectiveDateTime": "2019-04-01T05:47:02Z",
        "specimen": {
          "reference": "urn:uuid:87684b53-44f1-4055-a424-7ac7e80e8177"
        }
      }
    },
    {
      "fullUrl": "urn:uuid:c5bf6abf-3591-43fc-accd-81db3070b076",
      "resource": {
        "resourceType": "Observation",
        "id": "c5bf6abf-3591-43fc-accd-81db3070b076",
        "meta": {
          "profile": [
            "http://hl7.eu/fhir/laboratory/StructureDefinition/Observation-resultslab-eu-lab"
          ]
        },
        "performer": [
          {
            "display": "The Central European Lab"
          }
        ],
        "category": [
          {
            "coding": [
              {
                "system": "http://terminology.hl7.org/CodeSystem/observation-category",
                "code": "laboratory"
              }
            ]
          }
        ],
        "code": {
          "coding": [
            {
              "code": "18262-6",
              "system": "http://loinc.org",
              "display": "Cholesterol in LDL [Mass/volume] in Serum or Plasma by Direct assay"
            }
          ],
          "text": "Cholesterol in LDL [Mass/volume] in Serum or Plasma by Direct assay"
        },
        "valueQuantity": {
          "system": "http://unitsofmeasure.org",
          "value": 83.6,
          "unit": "mg/dL",
          "code": "mg/dL"
        },
        "referenceRange": [
          {
            "low": {
              "value": 0,
              "code": "mg/dL",
              "system": "http://unitsofmeasure.org"
            }
          },
          {
            "high": {
              "value": 190,
              "code": "mg/dL",
              "system": "http://unitsofmeasure.org"
            }
          }
        ],
        "text": {
          "status": "generated",
          "div": "<div xmlns=\"http://www.w3.org/1999/xhtml\"><table class=\"hl7__eu__lab__report\"><tr><th>Test</th><th>01-Apr-2019</th><th>Reference&#xA0;Range</th><th>Unit</th></tr><tr><td>Cholesterol in LDL [Mass/volume] in Serum or Plasma by Direct assay</td><td>83.6</td><td>0 - 190</td><td></td><td>mg/dL</td></tr></table></div>"
        },
        "status": "final",
        "subject": {
          "reference": "urn:uuid:50fbee66-041f-42a5-8d26-c82dd2a15c0f",
          "display": "Eileen Taylor"
        },
        "effectiveDateTime": "2019-04-01T05:47:02Z",
        "specimen": {
          "reference": "urn:uuid:87684b53-44f1-4055-a424-7ac7e80e8177"
        }
      }
    },
    {
      "fullUrl": "urn:uuid:ced6e19b-f280-4d4b-a27b-fd5684218686",
      "resource": {
        "resourceType": "Observation",
        "id": "ced6e19b-f280-4d4b-a27b-fd5684218686",
        "meta": {
          "profile": [
            "http://hl7.eu/fhir/laboratory/StructureDefinition/Observation-resultslab-eu-lab"
          ]
        },
        "performer": [
          {
            "display": "The Central European Lab"
          }
        ],
        "category": [
          {
            "coding": [
              {
                "system": "http://terminology.hl7.org/CodeSystem/observation-category",
                "code": "laboratory"
              }
            ]
          }
        ],
        "code": {
          "coding": [
            {
              "code": "2085-9",
              "system": "http://loinc.org",
              "display": "Cholesterol in HDL [Mass/volume] in Serum or Plasma"
            }
          ],
          "text": "Cholesterol in HDL [Mass/volume] in Serum or Plasma"
        },
        "valueQuantity": {
          "system": "http://unitsofmeasure.org",
          "value": 57,
          "unit": "mg/dL",
          "code": "mg/dL"
        },
        "referenceRange": [
          {
            "low": {
              "value": 50,
              "code": "mg/dL",
              "system": "http://unitsofmeasure.org"
            }
          },
          {
            "high": {
              "value": 100,
              "code": "mg/dL",
              "system": "http://unitsofmeasure.org"
            }
          }
        ],
        "text": {
          "status": "generated",
          "div": "<div xmlns=\"http://www.w3.org/1999/xhtml\"><table class=\"hl7__eu__lab__report\"><tr><th>Test</th><th>01-Apr-2019</th><th>Reference&#xA0;Range</th><th>Unit</th></tr><tr><td>Cholesterol in HDL [Mass/volume] in Serum or Plasma</td><td>57.0</td><td>50 - 100</td><td></td><td>mg/dL</td></tr></table></div>"
        },
        "status": "final",
        "subject": {
          "reference": "urn:uuid:50fbee66-041f-42a5-8d26-c82dd2a15c0f",
          "display": "Eileen Taylor"
        },
        "effectiveDateTime": "2019-04-01T05:47:02Z",
        "specimen": {
          "reference": "urn:uuid:87684b53-44f1-4055-a424-7ac7e80e8177"
        }
      }
    },
    {
      "fullUrl": "urn:uuid:682dc56a-ca2d-4d50-b8ed-be7062791c26",
      "resource": {
        "resourceType": "Device",
        "id": "682dc56a-ca2d-4d50-b8ed-be7062791c26",
        "deviceName": [
          {
            "name": "SYNDERAI Synthetic Generator",
            "type": "manufacturer-name"
          }
        ],
        "version": [
          {
            "value": "5.0"
          }
        ],
        "text": {
          "status": "generated",
          "div": "<div xmlns=\"http://www.w3.org/1999/xhtml\">SYNDERAI Synthetic Generator v5.0</div>"
        },
        "status": "active\"",
        "distinctIdentifier": "synderai-generator-50",
        "manufacturer": "SYNDERAI Project"
      }
    },
    {
      "fullUrl": "urn:uuid:732f815c-811d-4138-bd55-6aeb17c5ccc8",
      "resource": {
        "resourceType": "Provenance",
        "id": "732f815c-811d-4138-bd55-6aeb17c5ccc8",
        "target": [
          {
            "reference": "Patient/50fbee66-041f-42a5-8d26-c82dd2a15c0f"
          },
          {
            "reference": "Bundle/41b6a4aa-3562-4400-9159-30c8900431cb"
          },
          {
            "reference": "Composition/a7255233-9d29-4c76-a4da-d52484f0c3a3"
          },
          {
            "reference": "PractitionerRole/3eb48d72-652f-4ef4-89f1-a4b484a52a6d"
          },
          {
            "reference": "Practitioner/afaf6698-0db0-4f01-bdbd-5c00ab350503"
          },
          {
            "reference": "PractitionerRole/b8ab6c4a-6488-4c4e-b899-e709734d51fd"
          },
          {
            "reference": "Organization/56f6e21a-2e01-4446-be01-7efdefe16227"
          }
        ],
        "activity": {
          "text": "Synthetic Example Data Generation"
        },
        "policy": [
          "https://synderai.net/synderai-synthetic-data-policy"
        ],
        "agent": [
          {
            "type": {
              "text": "author"
            },
            "who": {
              "reference": "Device/682dc56a-ca2d-4d50-b8ed-be7062791c26"
            }
          }
        ],
        "reason": [
          {
            "text": "Interoperability Testing and Training (non-clinical use)"
          }
        ],
        "text": {
          "status": "generated",
          "div": "<div xmlns=\"http://www.w3.org/1999/xhtml\">Provenance for SYNDERAI Synthetic Example Data Resource</div>"
        },
        "recorded": "2019-04-01T07:47:02Z"
      }
    },
    {
      "fullUrl": "urn:uuid:3eb48d72-652f-4ef4-89f1-a4b484a52a6d",
      "resource": {
        "resourceType": "PractitionerRole",
        "id": "3eb48d72-652f-4ef4-89f1-a4b484a52a6d",
        "meta": {
          "profile": [
            "http://hl7.eu/fhir/base/StructureDefinition/practitionerRole-eu"
          ]
        },
        "text": {
          "status": "generated",
          "div": "<div xmlns=\"http://www.w3.org/1999/xhtml\">Laboratory Role Id: 3eb48d72-652f-4ef4-89f1-a4b484a52a6d</div>"
        },
        "practitioner": {
          "reference": "urn:uuid:afaf6698-0db0-4f01-bdbd-5c00ab350503"
        }
      }
    },
    {
      "fullUrl": "urn:uuid:afaf6698-0db0-4f01-bdbd-5c00ab350503",
      "resource": {
        "resourceType": "Practitioner",
        "id": "afaf6698-0db0-4f01-bdbd-5c00ab350503",
        "meta": {
          "profile": [
            "http://hl7.eu/fhir/base/StructureDefinition/practitioner-eu"
          ]
        },
        "identifier": [
          {
            "assigner": {
              "display": "HL7 Europe"
            },
            "system": "urn:oid:2.16.840.1.113883.2.51.999",
            "value": "85306da2-a9e8-40dd-8acb-ad763ba31778"
          }
        ],
        "name": [
          {
            "prefix": [
              "dr"
            ],
            "given": [
              "Ex"
            ],
            "family": "Ample"
          }
        ],
        "address": [
          {
            "line": [
              "Laboratoire Central Europenne",
              "Boulevard du Jardin Botanique 32"
            ],
            "postalCode": "1000",
            "city": "Brussels",
            "country": "Belgium"
          }
        ],
        "text": {
          "status": "generated",
          "div": "<div xmlns=\"http://www.w3.org/1999/xhtml\">Laboratory: Laboratoire Central Europenne, 1000 Brussels, Belgium</div>"
        }
      }
    }
  ],
  "type": "document",
  "timestamp": "2019-04-01T07:47:02Z"
}
