{
  "resourceType": "Bundle",
  "id": "7f3dca5d-c49f-4f91-9380-59b392a0e864",
  "meta": {
    "profile": [
      "http://hl7.eu/fhir/laboratory/StructureDefinition/Bundle-eu-lab"
    ]
  },
  "identifier": {
    "assigner": {
      "display": "HL7 Europe"
    },
    "system": "urn:oid:2.16.840.1.113883.2.51.999",
    "value": "67f97d4d-459a-4222-8204-1432273c7787"
  },
  "entry": [
    {
      "fullUrl": "urn:uuid:f189ae05-6202-4303-be0c-6444e675f4de",
      "resource": {
        "resourceType": "Composition",
        "id": "f189ae05-6202-4303-be0c-6444e675f4de",
        "meta": {
          "profile": [
            "http://hl7.eu/fhir/laboratory/StructureDefinition/Composition-eu-lab"
          ]
        },
        "identifier": {
          "assigner": {
            "display": "HL7 Europe"
          },
          "system": "urn:oid:2.16.840.1.113883.2.51.999",
          "value": "719d8b35-4096-47e9-b7a2-ffa4c07f11de"
        },
        "author": [
          {
            "reference": "urn:uuid:d8ca9e2b-628b-419c-b3b9-e5f4df2d0660"
          }
        ],
        "category": [
          {
            "coding": [
              {
                "code": "26436-6",
                "system": "http://loinc.org",
                "display": "Laboratory studies (set)"
              }
            ]
          }
        ],
        "type": {
          "coding": [
            {
              "code": "11502-2",
              "system": "http://loinc.org",
              "display": "Laboratory report"
            }
          ],
          "text": "Laboratory Report"
        },
        "section": [
          {
            "code": {
              "coding": [
                {
                  "code": "26436-6",
                  "system": "http://loinc.org",
                  "display": "Laboratory studies (set)"
                }
              ],
              "text": "Laboratory studies"
            },
            "section": [
              {
                "code": {
                  "coding": [
                    {
                      "code": "$18719-5",
                      "system": "http://loinc.org",
                      "display": "Chemistry studies (set)"
                    }
                  ],
                  "text": "Chemistry"
                },
                "entry": [
                  {
                    "reference": "urn:uuid:4a08bde0-5392-4bc3-bc91-14ae6564cd75"
                  },
                  {
                    "reference": "urn:uuid:b494cf33-0b24-4b19-8195-5e4c31065b95"
                  },
                  {
                    "reference": "urn:uuid:a3093ed8-e14c-4973-a9de-1757d71436c1"
                  },
                  {
                    "reference": "urn:uuid:3df59254-8b87-4c35-9e31-8ac569b4170b"
                  },
                  {
                    "reference": "urn:uuid:140fc986-b68b-4821-b072-d1d2b81e6a26"
                  },
                  {
                    "reference": "urn:uuid:1e3c2a22-5e23-43b9-99aa-e5ca3cc6a6ca"
                  },
                  {
                    "reference": "urn:uuid:92ccc77b-e3f7-4730-b8ea-4ad790a4718d"
                  },
                  {
                    "reference": "urn:uuid:a722dbee-e918-4861-8d24-f73277b0ff9c"
                  },
                  {
                    "reference": "urn:uuid:dd88d3f5-fa3d-4b8d-afc4-1c9c6221ce37"
                  },
                  {
                    "reference": "urn:uuid:270d1ec5-85d7-4868-96c9-b797602ff14a"
                  },
                  {
                    "reference": "urn:uuid:a74726ff-d646-471e-bc0d-d1026f5893a6"
                  },
                  {
                    "reference": "urn:uuid:f7ac43fc-aa74-4719-a8be-65c872e71fde"
                  },
                  {
                    "reference": "urn:uuid:3441d369-cc0d-4ad9-a4aa-5c2dc095fa5e"
                  },
                  {
                    "reference": "urn:uuid:0d0a11e2-cee0-42f9-ba4a-8d3339c585e0"
                  },
                  {
                    "reference": "urn:uuid:8d92666d-1b6c-492e-a4ae-0e5319f237e0"
                  },
                  {
                    "reference": "urn:uuid:bde18019-761c-4610-9bae-16f615ee5c37"
                  }
                ],
                "text": {
                  "status": "generated",
                  "div": "<div xmlns=\"http://www.w3.org/1999/xhtml\"><h3>Chemistry</h3><table class=\"hl7__eu__lab__report\"><thead><tr><th>Test</th><th>13-OCT-2015</th><th>Reference&#xA0;Range</th><th>Unit</th></tr></thead><tbody><tr><td>Glucose [Mass/volume] in Blood</td><td>98.8</td><td>70 - 140</td><td>mg/dL</td></tr><tr><td>Urea nitrogen [Mass/volume] in Blood</td><td>14.4</td><td>7 - 25</td><td>mg/dL</td></tr><tr><td>Creatinine [Mass/volume] in Blood</td><td><strong>3.0 H</strong></td><td>0.6 - 1.1</td><td>mg/dL</td></tr><tr><td>Calcium [Mass/volume] in Blood</td><td>9.0</td><td>8.6 - 10.4</td><td>mg/dL</td></tr><tr><td>Sodium [Moles/volume] in Blood</td><td>138.2</td><td>135 - 145</td><td>mmol/L</td></tr><tr><td>Potassium [Moles/volume] in Blood</td><td>4.0</td><td>3.5 - 5.1</td><td>mmol/L</td></tr><tr><td>Chloride [Moles/volume] in Blood</td><td>108.4</td><td>98 - 110</td><td>mmol/L</td></tr><tr><td>Carbon dioxide, total [Moles/volume] in Blood</td><td>27.0</td><td>22 - 29</td><td>mmol/L</td></tr><tr><td>Protein [Mass/volume] in Serum or Plasma</td><td>6.8</td><td>6.6 - 8.3</td><td>g/dL</td></tr><tr><td>Albumin [Mass/volume] in Serum or Plasma</td><td>4.5</td><td>3.5 - 5</td><td>g/dL</td></tr><tr><td>Globulin [Mass/volume] in Serum by calculation</td><td>2.6</td><td>2 - 3.5</td><td>g/L</td></tr><tr><td>Bilirubin.total [Mass/volume] in Serum or Plasma</td><td>0.9</td><td>0.3 - 1.2</td><td>mg/dL</td></tr><tr><td>Alkaline phosphatase [Enzymatic activity/volume] in Serum or Plasma</td><td><strong>20.3 L</strong></td><td>39 - 141</td><td>U/L</td></tr><tr><td>Alanine aminotransferase [Enzymatic activity/volume] in Serum or Plasma</td><td>38.8</td><td>7 - 40</td><td>U/L</td></tr><tr><td>Aspartate aminotransferase [Enzymatic activity/volume] in Serum or Plasma</td><td>26.0</td><td>10 - 32</td><td>U/L</td></tr><tr><td>Ketones [Presence] in Urine by Test strip</td><td>Urine ketone test = +++</td><td></td><td></td></tr></tbody></table></div>"
                },
                "title": "Chemistry"
              },
              {
                "code": {
                  "coding": [
                    {
                      "code": "$18729-4",
                      "system": "http://loinc.org",
                      "display": "Urinalysis studies (set)"
                    }
                  ],
                  "text": "Urinalysis"
                },
                "entry": [
                  {
                    "reference": "urn:uuid:70a92047-28d4-4e48-a1db-40c16892ebba"
                  },
                  {
                    "reference": "urn:uuid:c2aa738c-af63-4b0a-af5c-93728fa334db"
                  },
                  {
                    "reference": "urn:uuid:0d63e6a9-1325-4000-82cc-21671e00740a"
                  },
                  {
                    "reference": "urn:uuid:f2cd07e5-54fe-4172-8abb-030309feea99"
                  },
                  {
                    "reference": "urn:uuid:705c2cb7-5809-43a6-a058-d02d3b20f6c4"
                  },
                  {
                    "reference": "urn:uuid:47992e88-b10b-48b3-a8db-35950e89c1c2"
                  },
                  {
                    "reference": "urn:uuid:e3913d0a-10b8-430e-8376-2edd27b6d52f"
                  },
                  {
                    "reference": "urn:uuid:e2efef8d-3bab-4a96-8ca3-9e5eecdfefcd"
                  },
                  {
                    "reference": "urn:uuid:65bf0dd7-32f2-49c7-8e63-0ece38a4c9a0"
                  },
                  {
                    "reference": "urn:uuid:27e88ceb-22a1-4497-bd37-302b52f538ce"
                  },
                  {
                    "reference": "urn:uuid:923fb4fe-9b74-4af0-a0cc-61b4d7b0819d"
                  },
                  {
                    "reference": "urn:uuid:c54b4822-e857-4ee0-a963-28c854ed52e8"
                  }
                ],
                "text": {
                  "status": "generated",
                  "div": "<div xmlns=\"http://www.w3.org/1999/xhtml\"><h3>Urinalysis</h3><table class=\"hl7__eu__lab__report\"><thead><tr><th>Test</th><th>13-OCT-2015</th><th>Reference&#xA0;Range</th><th>Unit</th></tr></thead><tbody><tr><td>Glucose [Mass/volume] in Urine by Test strip</td><td><strong>1.8 H</strong></td><td>0 - 0.8</td><td>mg/dL</td></tr><tr><td>Glucose [Presence] in Urine by Test strip</td><td>++</td><td></td><td></td></tr><tr><td>Bilirubin.total [Mass/volume] in Urine by Test strip</td><td>0.7</td><td>0 - 1</td><td>mg/dL</td></tr><tr><td>Bilirubin.total [Presence] in Urine by Test strip</td><td>Finding of bilirubin in urine</td><td></td><td></td></tr><tr><td>Ketones [Mass/volume] in Urine by Test strip</td><td><strong>17.8 H</strong></td><td>0 - 4</td><td>mg/dL</td></tr><tr><td>Specific gravity of Urine by Test strip</td><td><strong>1.0 L</strong></td><td>1.005 - 1.03</td><td>{nominal}</td></tr><tr><td>pH of Urine by Test strip</td><td>5.9</td><td>4.5 - 7</td><td>pH</td></tr><tr><td>Protein [Mass/volume] in Urine by Test strip</td><td><strong>324.6 H</strong></td><td>0 - 145</td><td>mg/dL</td></tr><tr><td>Protein [Presence] in Urine by Test strip</td><td>Urine protein test = +++</td><td></td><td></td></tr><tr><td>Nitrite [Presence] in Urine by Test strip</td><td>Urine nitrite negative</td><td></td><td></td></tr><tr><td>Hemoglobin [Presence] in Urine by Test strip</td><td>Urine blood test = negative</td><td></td><td></td></tr><tr><td>Leukocyte esterase [Presence] in Urine by Test strip</td><td>Urine leukocyte test negative</td><td></td><td></td></tr></tbody></table></div>"
                },
                "title": "Urinalysis"
              },
              {
                "code": {
                  "coding": [
                    {
                      "code": "$LP7846-1",
                      "system": "http://loinc.org",
                      "display": "Specimen information"
                    }
                  ],
                  "text": "Specimen information"
                },
                "entry": [
                  {
                    "reference": "urn:uuid:866dea08-a238-42d2-8133-0255f89e9343"
                  },
                  {
                    "reference": "urn:uuid:6e3d996f-a3d0-4354-a093-d6cd0b257d4c"
                  },
                  {
                    "reference": "urn:uuid:26632f9c-8819-4008-b8ad-cb9a6d3dc465"
                  },
                  {
                    "reference": "urn:uuid:3a5cf707-73eb-48e3-8048-3ae8ea483820"
                  }
                ],
                "text": {
                  "status": "generated",
                  "div": "<div xmlns=\"http://www.w3.org/1999/xhtml\"><h3>Specimen information</h3><table class=\"hl7__eu__lab__report\"><thead><tr><th>Test</th><th>13-OCT-2015</th><th>Specimen</th><th></th></tr></thead><tbody><tr><td>Appearance of Urine</td><td>Cloudy urine</td><td>Urine</td><td></td></tr><tr><td>Odor of Urine</td><td>Urine smell ammoniacal</td><td>Urine</td><td></td></tr><tr><td>Clarity of Urine</td><td>Translucent</td><td>Urine</td><td></td></tr><tr><td>Color of Urine</td><td>Brown color</td><td>Urine</td><td></td></tr></tbody></table></div>"
                },
                "title": "Specimen information"
              }
            ],
            "title": "Laboratory Report"
          },
          {
            "text": {
              "status": "generated",
              "div": "<div xmlns=\"http://www.w3.org/1999/xhtml\"><h3>Annotation</h3><table class=\"hl7__eu__lab__report\"><tr><th>Conclusion and Recommendations based on this report and previous findings known to us</th></tr><tr><td>The patient shows markedly elevated serum creatinine, indicating significant renal impairment. Urinalysis reveals proteinuria, glucosuria, and ketonuria, with abnormal urine appearance and color, supporting possible nephropathy and metabolic derangement (e.g., diabetic ketoacidosis). Alkaline phosphatase is low but of unclear clinical significance. No evidence of urinary tract infection. Immediate clinical evaluation and nephrology consultation are recommended.</td></tr></table></div>"
            },
            "code": {
              "coding": [
                {
                  "system": "http://loinc.org",
                  "code": "48767-8",
                  "display": "Annotation comment"
                }
              ]
            },
            "title": "Annotation comment"
          }
        ],
        "status": "final",
        "subject": {
          "reference": "urn:uuid:507dd3e9-e0f3-4ce5-8a04-101e8615ae4a",
          "display": "Iva Kratochvílová"
        },
        "date": "2015-10-13T02:23:29Z",
        "title": "Laboratory Report",
        "confidentiality": "N"
      }
    },
    {
      "fullUrl": "urn:uuid:d4b01787-701e-45d1-aeef-2845d7de042b",
      "resource": {
        "resourceType": "DiagnosticReport",
        "id": "d4b01787-701e-45d1-aeef-2845d7de042b",
        "meta": {
          "profile": [
            "http://hl7.eu/fhir/laboratory/StructureDefinition/DiagnosticReport-eu-lab"
          ]
        },
        "identifier": [
          {
            "assigner": {
              "display": "HL7 Europe"
            },
            "system": "urn:oid:2.16.840.1.113883.2.51.999",
            "value": "7081e870-b3ec-412b-9521-9a36e9157342"
          }
        ],
        "extension": [
          {
            "url": "http://hl7.org/fhir/5.0/StructureDefinition/extension-DiagnosticReport.composition",
            "valueReference": {
              "reference": "urn:uuid:719d8b35-4096-47e9-b7a2-ffa4c07f11de"
            }
          }
        ],
        "category": [
          {
            "coding": [
              {
                "code": "26436-6",
                "system": "http://loinc.org",
                "display": "Laboratory studies (set)"
              }
            ]
          }
        ],
        "specimen": [
          {
            "reference": "urn:uuid:e810c655-67cb-44af-9789-9f1472ea8fd0"
          },
          {
            "reference": "urn:uuid:a5694a74-6782-42c0-ac43-1aeb1f574b08"
          },
          {
            "reference": "urn:uuid:18c73979-1ab0-4f88-838f-b34e052b4a79"
          },
          {
            "reference": "urn:uuid:e4744a8b-108b-4e43-8e0e-e6167ff1255c"
          }
        ],
        "result": [
          {
            "reference": "urn:uuid:4a08bde0-5392-4bc3-bc91-14ae6564cd75"
          },
          {
            "reference": "urn:uuid:b494cf33-0b24-4b19-8195-5e4c31065b95"
          },
          {
            "reference": "urn:uuid:a3093ed8-e14c-4973-a9de-1757d71436c1"
          },
          {
            "reference": "urn:uuid:3df59254-8b87-4c35-9e31-8ac569b4170b"
          },
          {
            "reference": "urn:uuid:140fc986-b68b-4821-b072-d1d2b81e6a26"
          },
          {
            "reference": "urn:uuid:1e3c2a22-5e23-43b9-99aa-e5ca3cc6a6ca"
          },
          {
            "reference": "urn:uuid:92ccc77b-e3f7-4730-b8ea-4ad790a4718d"
          },
          {
            "reference": "urn:uuid:a722dbee-e918-4861-8d24-f73277b0ff9c"
          },
          {
            "reference": "urn:uuid:dd88d3f5-fa3d-4b8d-afc4-1c9c6221ce37"
          },
          {
            "reference": "urn:uuid:270d1ec5-85d7-4868-96c9-b797602ff14a"
          },
          {
            "reference": "urn:uuid:a74726ff-d646-471e-bc0d-d1026f5893a6"
          },
          {
            "reference": "urn:uuid:f7ac43fc-aa74-4719-a8be-65c872e71fde"
          },
          {
            "reference": "urn:uuid:3441d369-cc0d-4ad9-a4aa-5c2dc095fa5e"
          },
          {
            "reference": "urn:uuid:0d0a11e2-cee0-42f9-ba4a-8d3339c585e0"
          },
          {
            "reference": "urn:uuid:8d92666d-1b6c-492e-a4ae-0e5319f237e0"
          },
          {
            "reference": "urn:uuid:866dea08-a238-42d2-8133-0255f89e9343"
          },
          {
            "reference": "urn:uuid:6e3d996f-a3d0-4354-a093-d6cd0b257d4c"
          },
          {
            "reference": "urn:uuid:26632f9c-8819-4008-b8ad-cb9a6d3dc465"
          },
          {
            "reference": "urn:uuid:3a5cf707-73eb-48e3-8048-3ae8ea483820"
          },
          {
            "reference": "urn:uuid:70a92047-28d4-4e48-a1db-40c16892ebba"
          },
          {
            "reference": "urn:uuid:c2aa738c-af63-4b0a-af5c-93728fa334db"
          },
          {
            "reference": "urn:uuid:0d63e6a9-1325-4000-82cc-21671e00740a"
          },
          {
            "reference": "urn:uuid:f2cd07e5-54fe-4172-8abb-030309feea99"
          },
          {
            "reference": "urn:uuid:705c2cb7-5809-43a6-a058-d02d3b20f6c4"
          },
          {
            "reference": "urn:uuid:bde18019-761c-4610-9bae-16f615ee5c37"
          },
          {
            "reference": "urn:uuid:47992e88-b10b-48b3-a8db-35950e89c1c2"
          },
          {
            "reference": "urn:uuid:e3913d0a-10b8-430e-8376-2edd27b6d52f"
          },
          {
            "reference": "urn:uuid:e2efef8d-3bab-4a96-8ca3-9e5eecdfefcd"
          },
          {
            "reference": "urn:uuid:65bf0dd7-32f2-49c7-8e63-0ece38a4c9a0"
          },
          {
            "reference": "urn:uuid:27e88ceb-22a1-4497-bd37-302b52f538ce"
          },
          {
            "reference": "urn:uuid:923fb4fe-9b74-4af0-a0cc-61b4d7b0819d"
          },
          {
            "reference": "urn:uuid:c54b4822-e857-4ee0-a963-28c854ed52e8"
          }
        ],
        "status": "registered",
        "code": {
          "coding": [
            {
              "code": "11502-2",
              "system": "http://loinc.org",
              "display": "Laboratory report"
            }
          ]
        },
        "subject": {
          "reference": "urn:uuid:507dd3e9-e0f3-4ce5-8a04-101e8615ae4a",
          "display": "Iva Kratochvílová"
        }
      }
    },
    {
      "fullUrl": "urn:uuid:507dd3e9-e0f3-4ce5-8a04-101e8615ae4a",
      "resource": {
        "resourceType": "Patient",
        "id": "507dd3e9-e0f3-4ce5-8a04-101e8615ae4a",
        "meta": {
          "security": [
            {
              "system": "http://terminology.hl7.org/CodeSystem/v3-ActReason",
              "code": "HTEST"
            },
            {
              "system": "http://terminology.hl7.org/CodeSystem/v3-ActReason",
              "code": "TRAIN"
            }
          ],
          "tag": [
            {
              "system": "https://synderai.net/fhir/CodeSystem/tags",
              "code": "synthetic",
              "display": "SYNDERAI Synthetic data"
            }
          ],
          "profile": [
            "http://hl7.eu/fhir/base/StructureDefinition/patient-eu-core"
          ]
        },
        "identifier": [
          {
            "type": {
              "coding": [
                {
                  "code": "PT",
                  "system": "http://terminology.hl7.org/CodeSystem/v2-0203"
                }
              ]
            },
            "system": "http://ec.europa.eu/identifier/eci",
            "value": "4380-389488-0"
          },
          {
            "type": {
              "coding": [
                {
                  "code": "MR",
                  "system": "http://terminology.hl7.org/CodeSystem/v2-0203"
                }
              ]
            },
            "system": "http://local.setting.eu/identifier",
            "value": "f8f9ebdc-03dd-2fc0-819c-affa4ffd7f67"
          }
        ],
        "name": [
          {
            "family": "Kratochvílová"
          },
          {
            "given": [
              "Iva"
            ]
          },
          {
            "text": "Iva Kratochvílová"
          }
        ],
        "address": [
          {
            "line": [
              "Žofie Podlipské 4"
            ],
            "use": "home",
            "type": "physical",
            "postalCode": "27324",
            "city": "Postoloprty",
            "country": "Czechia"
          }
        ],
        "telecom": [
          {
            "system": "phone",
            "value": "00420 607 985 072"
          }
        ],
        "extension": [
          {
            "url": "http://hl7.org/fhir/StructureDefinition/patient-nationality",
            "valueCodeableConcept": {
              "coding": [
                {
                  "code": "CZ",
                  "system": "http://hl7.org/fhir/ValueSet/country"
                }
              ]
            }
          }
        ],
        "text": {
          "status": "generated",
          "div": "<div xmlns=\"http://www.w3.org/1999/xhtml\"><table class=\"hl7__ips\"><tr><td>Iva Kratochvílová</td><td>female</td><td>17-Sep-1964</td></tr></table></div>"
        },
        "gender": "female",
        "birthDate": "1964-09-17"
      }
    },
    {
      "fullUrl": "urn:uuid:9e444c8a-9e09-492f-8a94-52e020ce46ea",
      "resource": {
        "resourceType": "ServiceRequest",
        "id": "9e444c8a-9e09-492f-8a94-52e020ce46ea",
        "meta": {
          "profile": [
            "http://hl7.eu/fhir/laboratory/StructureDefinition/ServiceRequest-eu-lab"
          ]
        },
        "identifier": [
          {
            "system": "http://example.org",
            "value": "26d00401-f5ba-462b-93bf-4f649e117864"
          }
        ],
        "specimen": [
          {
            "reference": "urn:uuid:e810c655-67cb-44af-9789-9f1472ea8fd0"
          },
          {
            "reference": "urn:uuid:a5694a74-6782-42c0-ac43-1aeb1f574b08"
          },
          {
            "reference": "urn:uuid:18c73979-1ab0-4f88-838f-b34e052b4a79"
          },
          {
            "reference": "urn:uuid:e4744a8b-108b-4e43-8e0e-e6167ff1255c"
          }
        ],
        "reasonCode": [
          {
            "coding": [
              {
                "code": "431856006",
                "system": "http://snomed.info/sct",
                "display": "Chronic kidney disease stage 2"
              }
            ]
          },
          {
            "coding": [
              {
                "code": "431855005",
                "system": "http://snomed.info/sct",
                "display": "Chronic kidney disease stage 1"
              }
            ]
          },
          {
            "coding": [
              {
                "code": "237602007",
                "system": "http://snomed.info/sct",
                "display": "Metabolic syndrome X"
              }
            ]
          },
          {
            "coding": [
              {
                "code": "91302008",
                "system": "http://snomed.info/sct",
                "display": "Sepsis"
              }
            ]
          },
          {
            "coding": [
              {
                "code": "271737000",
                "system": "http://snomed.info/sct",
                "display": "Anemia"
              }
            ]
          },
          {
            "coding": [
              {
                "code": "15777000",
                "system": "http://snomed.info/sct",
                "display": "Prediabetes"
              }
            ]
          },
          {
            "coding": [
              {
                "code": "157141000119108",
                "system": "http://snomed.info/sct",
                "display": "Proteinuria due to type 2 diabetes mellitus"
              }
            ]
          },
          {
            "coding": [
              {
                "code": "90781000119102",
                "system": "http://snomed.info/sct",
                "display": "Microalbuminuria due to type 2 diabetes mellitus"
              }
            ]
          },
          {
            "coding": [
              {
                "code": "239872002",
                "system": "http://snomed.info/sct",
                "display": "Osteoarthritis of hip"
              }
            ]
          },
          {
            "coding": [
              {
                "code": "40055000",
                "system": "http://snomed.info/sct",
                "display": "Chronic sinusitis"
              }
            ]
          },
          {
            "coding": [
              {
                "code": "127013003",
                "system": "http://snomed.info/sct",
                "display": "Disorder of kidney due to diabetes mellitus"
              }
            ]
          },
          {
            "coding": [
              {
                "code": "59621000",
                "system": "http://snomed.info/sct",
                "display": "Essential hypertension"
              }
            ]
          }
        ],
        "status": "active",
        "intent": "order",
        "code": {
          "coding": [
            {
              "code": "108252007",
              "system": "http://snomed.info/sct",
              "display": "Laboratory procedure"
            }
          ]
        },
        "subject": {
          "reference": "urn:uuid:507dd3e9-e0f3-4ce5-8a04-101e8615ae4a",
          "display": "Iva Kratochvílová"
        },
        "requester": {
          "reference": "urn:uuid:e7d87f1f-e224-4155-810e-e21ad6b07eee"
        }
      }
    },
    {
      "fullUrl": "urn:uuid:e7d87f1f-e224-4155-810e-e21ad6b07eee",
      "resource": {
        "resourceType": "PractitionerRole",
        "id": "e7d87f1f-e224-4155-810e-e21ad6b07eee",
        "meta": {
          "profile": [
            "http://hl7.eu/fhir/base/StructureDefinition/practitionerRole-eu"
          ]
        },
        "text": {
          "status": "generated",
          "div": "<div xmlns=\"http://www.w3.org/1999/xhtml\">Provider Role Id: e7d87f1f-e224-4155-810e-e21ad6b07eee</div>"
        },
        "organization": {
          "reference": "urn:uuid:5c4e6f98-d086-4fbc-9786-b648f1258d21"
        }
      }
    },
    {
      "fullUrl": "urn:uuid:5c4e6f98-d086-4fbc-9786-b648f1258d21",
      "resource": {
        "resourceType": "Organization",
        "id": "5c4e6f98-d086-4fbc-9786-b648f1258d21",
        "meta": {
          "profile": [
            "http://hl7.eu/fhir/base/StructureDefinition/organization-eu"
          ]
        },
        "identifier": [
          {
            "assigner": {
              "display": "HL7 Europe"
            },
            "system": "urn:oid:2.16.840.1.113883.2.51.999",
            "value": "404d38da-4f3f-45f9-899c-7155e3a06395"
          }
        ],
        "address": [
          {
            "city": "Kadaň",
            "postalCode": "432 01",
            "country": "Czechia"
          }
        ],
        "text": {
          "status": "generated",
          "div": "<div xmlns=\"http://www.w3.org/1999/xhtml\">Provider Organization: Nemocnice s poliklinikou Kadaň</div>"
        },
        "name": "Nemocnice s poliklinikou Kadaň"
      }
    },
    {
      "fullUrl": "urn:uuid:e810c655-67cb-44af-9789-9f1472ea8fd0",
      "resource": {
        "resourceType": "Specimen",
        "id": "e810c655-67cb-44af-9789-9f1472ea8fd0",
        "meta": {
          "profile": [
            "http://hl7.eu/fhir/laboratory/StructureDefinition/Specimen-eu-lab"
          ]
        },
        "collection": {
          "collectedDateTime": "2015-10-13"
        },
        "text": {
          "status": "generated",
          "div": "<div xmlns=\"http://www.w3.org/1999/xhtml\"><table class=\"hl7__eu__lab__report\"><tr><th>Specimen</th><th>Collection Date</th></tr><tr><td>Whole blood specimen (specimen)</td><td><span class=\"nb\">13-Oct-2015</span></td></tr></table></div>"
        },
        "type": {
          "coding": [
            {
              "code": "258580003",
              "system": "http://snomed.info/sct",
              "display": "Whole blood specimen (specimen)"
            }
          ]
        }
      }
    },
    {
      "fullUrl": "urn:uuid:a5694a74-6782-42c0-ac43-1aeb1f574b08",
      "resource": {
        "resourceType": "Specimen",
        "id": "a5694a74-6782-42c0-ac43-1aeb1f574b08",
        "meta": {
          "profile": [
            "http://hl7.eu/fhir/laboratory/StructureDefinition/Specimen-eu-lab"
          ]
        },
        "collection": {
          "collectedDateTime": "2015-10-13"
        },
        "text": {
          "status": "generated",
          "div": "<div xmlns=\"http://www.w3.org/1999/xhtml\"><table class=\"hl7__eu__lab__report\"><tr><th>Specimen</th><th>Collection Date</th></tr><tr><td>Acellular blood (serum or plasma) specimen</td><td><span class=\"nb\">13-Oct-2015</span></td></tr></table></div>"
        },
        "type": {
          "coding": [
            {
              "code": "122592007",
              "system": "http://snomed.info/sct",
              "display": "Acellular blood (serum or plasma) specimen"
            }
          ]
        }
      }
    },
    {
      "fullUrl": "urn:uuid:18c73979-1ab0-4f88-838f-b34e052b4a79",
      "resource": {
        "resourceType": "Specimen",
        "id": "18c73979-1ab0-4f88-838f-b34e052b4a79",
        "meta": {
          "profile": [
            "http://hl7.eu/fhir/laboratory/StructureDefinition/Specimen-eu-lab"
          ]
        },
        "collection": {
          "collectedDateTime": "2015-10-13"
        },
        "text": {
          "status": "generated",
          "div": "<div xmlns=\"http://www.w3.org/1999/xhtml\"><table class=\"hl7__eu__lab__report\"><tr><th>Specimen</th><th>Collection Date</th></tr><tr><td>Serum specimen</td><td><span class=\"nb\">13-Oct-2015</span></td></tr></table></div>"
        },
        "type": {
          "coding": [
            {
              "code": "119364003",
              "system": "http://snomed.info/sct",
              "display": "Serum specimen"
            }
          ]
        }
      }
    },
    {
      "fullUrl": "urn:uuid:e4744a8b-108b-4e43-8e0e-e6167ff1255c",
      "resource": {
        "resourceType": "Specimen",
        "id": "e4744a8b-108b-4e43-8e0e-e6167ff1255c",
        "meta": {
          "profile": [
            "http://hl7.eu/fhir/laboratory/StructureDefinition/Specimen-eu-lab"
          ]
        },
        "collection": {
          "collectedDateTime": "2015-10-13"
        },
        "text": {
          "status": "generated",
          "div": "<div xmlns=\"http://www.w3.org/1999/xhtml\"><table class=\"hl7__eu__lab__report\"><tr><th>Specimen</th><th>Collection Date</th></tr><tr><td>Urine specimen</td><td><span class=\"nb\">13-Oct-2015</span></td></tr></table></div>"
        },
        "type": {
          "coding": [
            {
              "code": "122575003",
              "system": "http://snomed.info/sct",
              "display": "Urine specimen"
            }
          ]
        }
      }
    },
    {
      "fullUrl": "urn:uuid:4a08bde0-5392-4bc3-bc91-14ae6564cd75",
      "resource": {
        "resourceType": "Observation",
        "id": "4a08bde0-5392-4bc3-bc91-14ae6564cd75",
        "meta": {
          "profile": [
            "http://hl7.eu/fhir/laboratory/StructureDefinition/Observation-resultslab-eu-lab"
          ]
        },
        "performer": [
          {
            "display": "The Central European Lab"
          }
        ],
        "category": [
          {
            "coding": [
              {
                "system": "http://terminology.hl7.org/CodeSystem/observation-category",
                "code": "laboratory"
              }
            ]
          }
        ],
        "code": {
          "coding": [
            {
              "code": "2339-0",
              "system": "http://loinc.org",
              "display": "Glucose [Mass/volume] in Blood"
            }
          ],
          "text": "Glucose [Mass/volume] in Blood"
        },
        "valueQuantity": {
          "system": "http://unitsofmeasure.org",
          "value": 98.8,
          "unit": "mg/dL",
          "code": "mg/dL"
        },
        "referenceRange": [
          {
            "low": {
              "value": 70,
              "code": "mg/dL",
              "system": "http://unitsofmeasure.org"
            }
          },
          {
            "high": {
              "value": 140,
              "code": "mg/dL",
              "system": "http://unitsofmeasure.org"
            }
          }
        ],
        "text": {
          "status": "generated",
          "div": "<div xmlns=\"http://www.w3.org/1999/xhtml\"><table class=\"hl7__eu__lab__report\"><tr><th>Test</th><th>13-Oct-2015</th><th>Reference&#xA0;Range</th><th>Unit</th></tr><tr><td>Glucose [Mass/volume] in Blood</td><td>98.8</td><td>70 - 140</td><td></td><td>mg/dL</td></tr></table></div>"
        },
        "status": "final",
        "subject": {
          "reference": "urn:uuid:507dd3e9-e0f3-4ce5-8a04-101e8615ae4a",
          "display": "Iva Kratochvílová"
        },
        "effectiveDateTime": "2015-10-13T00:23:29Z",
        "specimen": {
          "reference": "urn:uuid:e810c655-67cb-44af-9789-9f1472ea8fd0"
        }
      }
    },
    {
      "fullUrl": "urn:uuid:b494cf33-0b24-4b19-8195-5e4c31065b95",
      "resource": {
        "resourceType": "Observation",
        "id": "b494cf33-0b24-4b19-8195-5e4c31065b95",
        "meta": {
          "profile": [
            "http://hl7.eu/fhir/laboratory/StructureDefinition/Observation-resultslab-eu-lab"
          ]
        },
        "performer": [
          {
            "display": "The Central European Lab"
          }
        ],
        "category": [
          {
            "coding": [
              {
                "system": "http://terminology.hl7.org/CodeSystem/observation-category",
                "code": "laboratory"
              }
            ]
          }
        ],
        "code": {
          "coding": [
            {
              "code": "6299-2",
              "system": "http://loinc.org",
              "display": "Urea nitrogen [Mass/volume] in Blood"
            }
          ],
          "text": "Urea nitrogen [Mass/volume] in Blood"
        },
        "valueQuantity": {
          "system": "http://unitsofmeasure.org",
          "value": 14.4,
          "unit": "mg/dL",
          "code": "mg/dL"
        },
        "referenceRange": [
          {
            "low": {
              "value": 7,
              "code": "mg/dL",
              "system": "http://unitsofmeasure.org"
            }
          },
          {
            "high": {
              "value": 25,
              "code": "mg/dL",
              "system": "http://unitsofmeasure.org"
            }
          }
        ],
        "text": {
          "status": "generated",
          "div": "<div xmlns=\"http://www.w3.org/1999/xhtml\"><table class=\"hl7__eu__lab__report\"><tr><th>Test</th><th>13-Oct-2015</th><th>Reference&#xA0;Range</th><th>Unit</th></tr><tr><td>Urea nitrogen [Mass/volume] in Blood</td><td>14.4</td><td>7 - 25</td><td></td><td>mg/dL</td></tr></table></div>"
        },
        "status": "final",
        "subject": {
          "reference": "urn:uuid:507dd3e9-e0f3-4ce5-8a04-101e8615ae4a",
          "display": "Iva Kratochvílová"
        },
        "effectiveDateTime": "2015-10-13T00:23:29Z",
        "specimen": {
          "reference": "urn:uuid:e810c655-67cb-44af-9789-9f1472ea8fd0"
        }
      }
    },
    {
      "fullUrl": "urn:uuid:a3093ed8-e14c-4973-a9de-1757d71436c1",
      "resource": {
        "resourceType": "Observation",
        "id": "a3093ed8-e14c-4973-a9de-1757d71436c1",
        "meta": {
          "profile": [
            "http://hl7.eu/fhir/laboratory/StructureDefinition/Observation-resultslab-eu-lab"
          ]
        },
        "performer": [
          {
            "display": "The Central European Lab"
          }
        ],
        "category": [
          {
            "coding": [
              {
                "system": "http://terminology.hl7.org/CodeSystem/observation-category",
                "code": "laboratory"
              }
            ]
          }
        ],
        "code": {
          "coding": [
            {
              "code": "38483-4",
              "system": "http://loinc.org",
              "display": "Creatinine [Mass/volume] in Blood"
            }
          ],
          "text": "Creatinine [Mass/volume] in Blood"
        },
        "valueQuantity": {
          "system": "http://unitsofmeasure.org",
          "value": 3,
          "unit": "mg/dL",
          "code": "mg/dL"
        },
        "referenceRange": [
          {
            "low": {
              "value": 0.6,
              "code": "mg/dL",
              "system": "http://unitsofmeasure.org"
            }
          },
          {
            "high": {
              "value": 1.1,
              "code": "mg/dL",
              "system": "http://unitsofmeasure.org"
            }
          }
        ],
        "interpretation": [
          {
            "coding": [
              {
                "code": "H",
                "system": "http://terminology.hl7.org/CodeSystem/v3-ObservationInterpretation",
                "display": "High"
              }
            ]
          }
        ],
        "text": {
          "status": "generated",
          "div": "<div xmlns=\"http://www.w3.org/1999/xhtml\"><table class=\"hl7__eu__lab__report\"><tr><th>Test</th><th>13-Oct-2015</th><th>Reference&#xA0;Range</th><th>Unit</th></tr><tr><td>Creatinine [Mass/volume] in Blood</td><td>3.0</td><td>0.6 - 1.1</td><td>H</td><td>mg/dL</td></tr></table></div>"
        },
        "status": "final",
        "subject": {
          "reference": "urn:uuid:507dd3e9-e0f3-4ce5-8a04-101e8615ae4a",
          "display": "Iva Kratochvílová"
        },
        "effectiveDateTime": "2015-10-13T00:23:29Z",
        "specimen": {
          "reference": "urn:uuid:e810c655-67cb-44af-9789-9f1472ea8fd0"
        }
      }
    },
    {
      "fullUrl": "urn:uuid:3df59254-8b87-4c35-9e31-8ac569b4170b",
      "resource": {
        "resourceType": "Observation",
        "id": "3df59254-8b87-4c35-9e31-8ac569b4170b",
        "meta": {
          "profile": [
            "http://hl7.eu/fhir/laboratory/StructureDefinition/Observation-resultslab-eu-lab"
          ]
        },
        "performer": [
          {
            "display": "The Central European Lab"
          }
        ],
        "category": [
          {
            "coding": [
              {
                "system": "http://terminology.hl7.org/CodeSystem/observation-category",
                "code": "laboratory"
              }
            ]
          }
        ],
        "code": {
          "coding": [
            {
              "code": "49765-1",
              "system": "http://loinc.org",
              "display": "Calcium [Mass/volume] in Blood"
            }
          ],
          "text": "Calcium [Mass/volume] in Blood"
        },
        "valueQuantity": {
          "system": "http://unitsofmeasure.org",
          "value": 9,
          "unit": "mg/dL",
          "code": "mg/dL"
        },
        "referenceRange": [
          {
            "low": {
              "value": 8.6,
              "code": "mg/dL",
              "system": "http://unitsofmeasure.org"
            }
          },
          {
            "high": {
              "value": 10.4,
              "code": "mg/dL",
              "system": "http://unitsofmeasure.org"
            }
          }
        ],
        "text": {
          "status": "generated",
          "div": "<div xmlns=\"http://www.w3.org/1999/xhtml\"><table class=\"hl7__eu__lab__report\"><tr><th>Test</th><th>13-Oct-2015</th><th>Reference&#xA0;Range</th><th>Unit</th></tr><tr><td>Calcium [Mass/volume] in Blood</td><td>9.0</td><td>8.6 - 10.4</td><td></td><td>mg/dL</td></tr></table></div>"
        },
        "status": "final",
        "subject": {
          "reference": "urn:uuid:507dd3e9-e0f3-4ce5-8a04-101e8615ae4a",
          "display": "Iva Kratochvílová"
        },
        "effectiveDateTime": "2015-10-13T00:23:29Z",
        "specimen": {
          "reference": "urn:uuid:e810c655-67cb-44af-9789-9f1472ea8fd0"
        }
      }
    },
    {
      "fullUrl": "urn:uuid:140fc986-b68b-4821-b072-d1d2b81e6a26",
      "resource": {
        "resourceType": "Observation",
        "id": "140fc986-b68b-4821-b072-d1d2b81e6a26",
        "meta": {
          "profile": [
            "http://hl7.eu/fhir/laboratory/StructureDefinition/Observation-resultslab-eu-lab"
          ]
        },
        "performer": [
          {
            "display": "The Central European Lab"
          }
        ],
        "category": [
          {
            "coding": [
              {
                "system": "http://terminology.hl7.org/CodeSystem/observation-category",
                "code": "laboratory"
              }
            ]
          }
        ],
        "code": {
          "coding": [
            {
              "code": "2947-0",
              "system": "http://loinc.org",
              "display": "Sodium [Moles/volume] in Blood"
            }
          ],
          "text": "Sodium [Moles/volume] in Blood"
        },
        "valueQuantity": {
          "system": "http://unitsofmeasure.org",
          "value": 138.2,
          "unit": "mmol/L",
          "code": "mmol/L"
        },
        "referenceRange": [
          {
            "low": {
              "value": 135,
              "code": "mmol/L",
              "system": "http://unitsofmeasure.org"
            }
          },
          {
            "high": {
              "value": 145,
              "code": "mmol/L",
              "system": "http://unitsofmeasure.org"
            }
          }
        ],
        "text": {
          "status": "generated",
          "div": "<div xmlns=\"http://www.w3.org/1999/xhtml\"><table class=\"hl7__eu__lab__report\"><tr><th>Test</th><th>13-Oct-2015</th><th>Reference&#xA0;Range</th><th>Unit</th></tr><tr><td>Sodium [Moles/volume] in Blood</td><td>138.2</td><td>135 - 145</td><td></td><td>mmol/L</td></tr></table></div>"
        },
        "status": "final",
        "subject": {
          "reference": "urn:uuid:507dd3e9-e0f3-4ce5-8a04-101e8615ae4a",
          "display": "Iva Kratochvílová"
        },
        "effectiveDateTime": "2015-10-13T00:23:29Z",
        "specimen": {
          "reference": "urn:uuid:e810c655-67cb-44af-9789-9f1472ea8fd0"
        }
      }
    },
    {
      "fullUrl": "urn:uuid:1e3c2a22-5e23-43b9-99aa-e5ca3cc6a6ca",
      "resource": {
        "resourceType": "Observation",
        "id": "1e3c2a22-5e23-43b9-99aa-e5ca3cc6a6ca",
        "meta": {
          "profile": [
            "http://hl7.eu/fhir/laboratory/StructureDefinition/Observation-resultslab-eu-lab"
          ]
        },
        "performer": [
          {
            "display": "The Central European Lab"
          }
        ],
        "category": [
          {
            "coding": [
              {
                "system": "http://terminology.hl7.org/CodeSystem/observation-category",
                "code": "laboratory"
              }
            ]
          }
        ],
        "code": {
          "coding": [
            {
              "code": "6298-4",
              "system": "http://loinc.org",
              "display": "Potassium [Moles/volume] in Blood"
            }
          ],
          "text": "Potassium [Moles/volume] in Blood"
        },
        "valueQuantity": {
          "system": "http://unitsofmeasure.org",
          "value": 4,
          "unit": "mmol/L",
          "code": "mmol/L"
        },
        "referenceRange": [
          {
            "low": {
              "value": 3.5,
              "code": "mmol/L",
              "system": "http://unitsofmeasure.org"
            }
          },
          {
            "high": {
              "value": 5.1,
              "code": "mmol/L",
              "system": "http://unitsofmeasure.org"
            }
          }
        ],
        "text": {
          "status": "generated",
          "div": "<div xmlns=\"http://www.w3.org/1999/xhtml\"><table class=\"hl7__eu__lab__report\"><tr><th>Test</th><th>13-Oct-2015</th><th>Reference&#xA0;Range</th><th>Unit</th></tr><tr><td>Potassium [Moles/volume] in Blood</td><td>4.0</td><td>3.5 - 5.1</td><td></td><td>mmol/L</td></tr></table></div>"
        },
        "status": "final",
        "subject": {
          "reference": "urn:uuid:507dd3e9-e0f3-4ce5-8a04-101e8615ae4a",
          "display": "Iva Kratochvílová"
        },
        "effectiveDateTime": "2015-10-13T00:23:29Z",
        "specimen": {
          "reference": "urn:uuid:e810c655-67cb-44af-9789-9f1472ea8fd0"
        }
      }
    },
    {
      "fullUrl": "urn:uuid:92ccc77b-e3f7-4730-b8ea-4ad790a4718d",
      "resource": {
        "resourceType": "Observation",
        "id": "92ccc77b-e3f7-4730-b8ea-4ad790a4718d",
        "meta": {
          "profile": [
            "http://hl7.eu/fhir/laboratory/StructureDefinition/Observation-resultslab-eu-lab"
          ]
        },
        "performer": [
          {
            "display": "The Central European Lab"
          }
        ],
        "category": [
          {
            "coding": [
              {
                "system": "http://terminology.hl7.org/CodeSystem/observation-category",
                "code": "laboratory"
              }
            ]
          }
        ],
        "code": {
          "coding": [
            {
              "code": "2069-3",
              "system": "http://loinc.org",
              "display": "Chloride [Moles/volume] in Blood"
            }
          ],
          "text": "Chloride [Moles/volume] in Blood"
        },
        "valueQuantity": {
          "system": "http://unitsofmeasure.org",
          "value": 108.4,
          "unit": "mmol/L",
          "code": "mmol/L"
        },
        "referenceRange": [
          {
            "low": {
              "value": 98,
              "code": "mmol/L",
              "system": "http://unitsofmeasure.org"
            }
          },
          {
            "high": {
              "value": 110,
              "code": "mmol/L",
              "system": "http://unitsofmeasure.org"
            }
          }
        ],
        "text": {
          "status": "generated",
          "div": "<div xmlns=\"http://www.w3.org/1999/xhtml\"><table class=\"hl7__eu__lab__report\"><tr><th>Test</th><th>13-Oct-2015</th><th>Reference&#xA0;Range</th><th>Unit</th></tr><tr><td>Chloride [Moles/volume] in Blood</td><td>108.4</td><td>98 - 110</td><td></td><td>mmol/L</td></tr></table></div>"
        },
        "status": "final",
        "subject": {
          "reference": "urn:uuid:507dd3e9-e0f3-4ce5-8a04-101e8615ae4a",
          "display": "Iva Kratochvílová"
        },
        "effectiveDateTime": "2015-10-13T00:23:29Z",
        "specimen": {
          "reference": "urn:uuid:e810c655-67cb-44af-9789-9f1472ea8fd0"
        }
      }
    },
    {
      "fullUrl": "urn:uuid:a722dbee-e918-4861-8d24-f73277b0ff9c",
      "resource": {
        "resourceType": "Observation",
        "id": "a722dbee-e918-4861-8d24-f73277b0ff9c",
        "meta": {
          "profile": [
            "http://hl7.eu/fhir/laboratory/StructureDefinition/Observation-resultslab-eu-lab"
          ]
        },
        "performer": [
          {
            "display": "The Central European Lab"
          }
        ],
        "category": [
          {
            "coding": [
              {
                "system": "http://terminology.hl7.org/CodeSystem/observation-category",
                "code": "laboratory"
              }
            ]
          }
        ],
        "code": {
          "coding": [
            {
              "code": "20565-8",
              "system": "http://loinc.org",
              "display": "Carbon dioxide, total [Moles/volume] in Blood"
            }
          ],
          "text": "Carbon dioxide, total [Moles/volume] in Blood"
        },
        "valueQuantity": {
          "system": "http://unitsofmeasure.org",
          "value": 27,
          "unit": "mmol/L",
          "code": "mmol/L"
        },
        "referenceRange": [
          {
            "low": {
              "value": 22,
              "code": "mmol/L",
              "system": "http://unitsofmeasure.org"
            }
          },
          {
            "high": {
              "value": 29,
              "code": "mmol/L",
              "system": "http://unitsofmeasure.org"
            }
          }
        ],
        "text": {
          "status": "generated",
          "div": "<div xmlns=\"http://www.w3.org/1999/xhtml\"><table class=\"hl7__eu__lab__report\"><tr><th>Test</th><th>13-Oct-2015</th><th>Reference&#xA0;Range</th><th>Unit</th></tr><tr><td>Carbon dioxide, total [Moles/volume] in Blood</td><td>27.0</td><td>22 - 29</td><td></td><td>mmol/L</td></tr></table></div>"
        },
        "status": "final",
        "subject": {
          "reference": "urn:uuid:507dd3e9-e0f3-4ce5-8a04-101e8615ae4a",
          "display": "Iva Kratochvílová"
        },
        "effectiveDateTime": "2015-10-13T00:23:29Z",
        "specimen": {
          "reference": "urn:uuid:e810c655-67cb-44af-9789-9f1472ea8fd0"
        }
      }
    },
    {
      "fullUrl": "urn:uuid:dd88d3f5-fa3d-4b8d-afc4-1c9c6221ce37",
      "resource": {
        "resourceType": "Observation",
        "id": "dd88d3f5-fa3d-4b8d-afc4-1c9c6221ce37",
        "meta": {
          "profile": [
            "http://hl7.eu/fhir/laboratory/StructureDefinition/Observation-resultslab-eu-lab"
          ]
        },
        "performer": [
          {
            "display": "The Central European Lab"
          }
        ],
        "category": [
          {
            "coding": [
              {
                "system": "http://terminology.hl7.org/CodeSystem/observation-category",
                "code": "laboratory"
              }
            ]
          }
        ],
        "code": {
          "coding": [
            {
              "code": "2885-2",
              "system": "http://loinc.org",
              "display": "Protein [Mass/volume] in Serum or Plasma"
            }
          ],
          "text": "Protein [Mass/volume] in Serum or Plasma"
        },
        "valueQuantity": {
          "system": "http://unitsofmeasure.org",
          "value": 6.8,
          "unit": "g/dL",
          "code": "g/dL"
        },
        "referenceRange": [
          {
            "low": {
              "value": 6.6,
              "code": "g/dL",
              "system": "http://unitsofmeasure.org"
            }
          },
          {
            "high": {
              "value": 8.3,
              "code": "g/dL",
              "system": "http://unitsofmeasure.org"
            }
          }
        ],
        "text": {
          "status": "generated",
          "div": "<div xmlns=\"http://www.w3.org/1999/xhtml\"><table class=\"hl7__eu__lab__report\"><tr><th>Test</th><th>13-Oct-2015</th><th>Reference&#xA0;Range</th><th>Unit</th></tr><tr><td>Protein [Mass/volume] in Serum or Plasma</td><td>6.8</td><td>6.6 - 8.3</td><td></td><td>g/dL</td></tr></table></div>"
        },
        "status": "final",
        "subject": {
          "reference": "urn:uuid:507dd3e9-e0f3-4ce5-8a04-101e8615ae4a",
          "display": "Iva Kratochvílová"
        },
        "effectiveDateTime": "2015-10-13T00:23:29Z",
        "specimen": {
          "reference": "urn:uuid:a5694a74-6782-42c0-ac43-1aeb1f574b08"
        }
      }
    },
    {
      "fullUrl": "urn:uuid:270d1ec5-85d7-4868-96c9-b797602ff14a",
      "resource": {
        "resourceType": "Observation",
        "id": "270d1ec5-85d7-4868-96c9-b797602ff14a",
        "meta": {
          "profile": [
            "http://hl7.eu/fhir/laboratory/StructureDefinition/Observation-resultslab-eu-lab"
          ]
        },
        "performer": [
          {
            "display": "The Central European Lab"
          }
        ],
        "category": [
          {
            "coding": [
              {
                "system": "http://terminology.hl7.org/CodeSystem/observation-category",
                "code": "laboratory"
              }
            ]
          }
        ],
        "code": {
          "coding": [
            {
              "code": "1751-7",
              "system": "http://loinc.org",
              "display": "Albumin [Mass/volume] in Serum or Plasma"
            }
          ],
          "text": "Albumin [Mass/volume] in Serum or Plasma"
        },
        "valueQuantity": {
          "system": "http://unitsofmeasure.org",
          "value": 4.5,
          "unit": "g/dL",
          "code": "g/dL"
        },
        "referenceRange": [
          {
            "low": {
              "value": 3.5,
              "code": "g/dL",
              "system": "http://unitsofmeasure.org"
            }
          },
          {
            "high": {
              "value": 5,
              "code": "g/dL",
              "system": "http://unitsofmeasure.org"
            }
          }
        ],
        "text": {
          "status": "generated",
          "div": "<div xmlns=\"http://www.w3.org/1999/xhtml\"><table class=\"hl7__eu__lab__report\"><tr><th>Test</th><th>13-Oct-2015</th><th>Reference&#xA0;Range</th><th>Unit</th></tr><tr><td>Albumin [Mass/volume] in Serum or Plasma</td><td>4.5</td><td>3.5 - 5</td><td></td><td>g/dL</td></tr></table></div>"
        },
        "status": "final",
        "subject": {
          "reference": "urn:uuid:507dd3e9-e0f3-4ce5-8a04-101e8615ae4a",
          "display": "Iva Kratochvílová"
        },
        "effectiveDateTime": "2015-10-13T00:23:29Z",
        "specimen": {
          "reference": "urn:uuid:a5694a74-6782-42c0-ac43-1aeb1f574b08"
        }
      }
    },
    {
      "fullUrl": "urn:uuid:a74726ff-d646-471e-bc0d-d1026f5893a6",
      "resource": {
        "resourceType": "Observation",
        "id": "a74726ff-d646-471e-bc0d-d1026f5893a6",
        "meta": {
          "profile": [
            "http://hl7.eu/fhir/laboratory/StructureDefinition/Observation-resultslab-eu-lab"
          ]
        },
        "performer": [
          {
            "display": "The Central European Lab"
          }
        ],
        "category": [
          {
            "coding": [
              {
                "system": "http://terminology.hl7.org/CodeSystem/observation-category",
                "code": "laboratory"
              }
            ]
          }
        ],
        "code": {
          "coding": [
            {
              "code": "10834-0",
              "system": "http://loinc.org",
              "display": "Globulin [Mass/volume] in Serum by calculation"
            }
          ],
          "text": "Globulin [Mass/volume] in Serum by calculation"
        },
        "valueQuantity": {
          "system": "http://unitsofmeasure.org",
          "value": 2.6,
          "unit": "g/L",
          "code": "g/L"
        },
        "referenceRange": [
          {
            "low": {
              "value": 2,
              "code": "g/L",
              "system": "http://unitsofmeasure.org"
            }
          },
          {
            "high": {
              "value": 3.5,
              "code": "g/L",
              "system": "http://unitsofmeasure.org"
            }
          }
        ],
        "text": {
          "status": "generated",
          "div": "<div xmlns=\"http://www.w3.org/1999/xhtml\"><table class=\"hl7__eu__lab__report\"><tr><th>Test</th><th>13-Oct-2015</th><th>Reference&#xA0;Range</th><th>Unit</th></tr><tr><td>Globulin [Mass/volume] in Serum by calculation</td><td>2.6</td><td>2 - 3.5</td><td></td><td>g/L</td></tr></table></div>"
        },
        "status": "final",
        "subject": {
          "reference": "urn:uuid:507dd3e9-e0f3-4ce5-8a04-101e8615ae4a",
          "display": "Iva Kratochvílová"
        },
        "effectiveDateTime": "2015-10-13T00:23:29Z",
        "specimen": {
          "reference": "urn:uuid:18c73979-1ab0-4f88-838f-b34e052b4a79"
        }
      }
    },
    {
      "fullUrl": "urn:uuid:f7ac43fc-aa74-4719-a8be-65c872e71fde",
      "resource": {
        "resourceType": "Observation",
        "id": "f7ac43fc-aa74-4719-a8be-65c872e71fde",
        "meta": {
          "profile": [
            "http://hl7.eu/fhir/laboratory/StructureDefinition/Observation-resultslab-eu-lab"
          ]
        },
        "performer": [
          {
            "display": "The Central European Lab"
          }
        ],
        "category": [
          {
            "coding": [
              {
                "system": "http://terminology.hl7.org/CodeSystem/observation-category",
                "code": "laboratory"
              }
            ]
          }
        ],
        "code": {
          "coding": [
            {
              "code": "1975-2",
              "system": "http://loinc.org",
              "display": "Bilirubin.total [Mass/volume] in Serum or Plasma"
            }
          ],
          "text": "Bilirubin.total [Mass/volume] in Serum or Plasma"
        },
        "valueQuantity": {
          "system": "http://unitsofmeasure.org",
          "value": 0.9,
          "unit": "mg/dL",
          "code": "mg/dL"
        },
        "referenceRange": [
          {
            "low": {
              "value": 0.3,
              "code": "mg/dL",
              "system": "http://unitsofmeasure.org"
            }
          },
          {
            "high": {
              "value": 1.2,
              "code": "mg/dL",
              "system": "http://unitsofmeasure.org"
            }
          }
        ],
        "text": {
          "status": "generated",
          "div": "<div xmlns=\"http://www.w3.org/1999/xhtml\"><table class=\"hl7__eu__lab__report\"><tr><th>Test</th><th>13-Oct-2015</th><th>Reference&#xA0;Range</th><th>Unit</th></tr><tr><td>Bilirubin.total [Mass/volume] in Serum or Plasma</td><td>0.9</td><td>0.3 - 1.2</td><td></td><td>mg/dL</td></tr></table></div>"
        },
        "status": "final",
        "subject": {
          "reference": "urn:uuid:507dd3e9-e0f3-4ce5-8a04-101e8615ae4a",
          "display": "Iva Kratochvílová"
        },
        "effectiveDateTime": "2015-10-13T00:23:29Z",
        "specimen": {
          "reference": "urn:uuid:a5694a74-6782-42c0-ac43-1aeb1f574b08"
        }
      }
    },
    {
      "fullUrl": "urn:uuid:3441d369-cc0d-4ad9-a4aa-5c2dc095fa5e",
      "resource": {
        "resourceType": "Observation",
        "id": "3441d369-cc0d-4ad9-a4aa-5c2dc095fa5e",
        "meta": {
          "profile": [
            "http://hl7.eu/fhir/laboratory/StructureDefinition/Observation-resultslab-eu-lab"
          ]
        },
        "performer": [
          {
            "display": "The Central European Lab"
          }
        ],
        "category": [
          {
            "coding": [
              {
                "system": "http://terminology.hl7.org/CodeSystem/observation-category",
                "code": "laboratory"
              }
            ]
          }
        ],
        "code": {
          "coding": [
            {
              "code": "6768-6",
              "system": "http://loinc.org",
              "display": "Alkaline phosphatase [Enzymatic activity/volume] in Serum or Plasma"
            }
          ],
          "text": "Alkaline phosphatase [Enzymatic activity/volume] in Serum or Plasma"
        },
        "valueQuantity": {
          "system": "http://unitsofmeasure.org",
          "value": 20.3,
          "unit": "U/L",
          "code": "U/L"
        },
        "referenceRange": [
          {
            "low": {
              "value": 39,
              "code": "U/L",
              "system": "http://unitsofmeasure.org"
            }
          },
          {
            "high": {
              "value": 141,
              "code": "U/L",
              "system": "http://unitsofmeasure.org"
            }
          }
        ],
        "interpretation": [
          {
            "coding": [
              {
                "code": "L",
                "system": "http://terminology.hl7.org/CodeSystem/v3-ObservationInterpretation",
                "display": "Low"
              }
            ]
          }
        ],
        "text": {
          "status": "generated",
          "div": "<div xmlns=\"http://www.w3.org/1999/xhtml\"><table class=\"hl7__eu__lab__report\"><tr><th>Test</th><th>13-Oct-2015</th><th>Reference&#xA0;Range</th><th>Unit</th></tr><tr><td>Alkaline phosphatase [Enzymatic activity/volume] in Serum or Plasma</td><td>20.3</td><td>39 - 141</td><td>L</td><td>U/L</td></tr></table></div>"
        },
        "status": "final",
        "subject": {
          "reference": "urn:uuid:507dd3e9-e0f3-4ce5-8a04-101e8615ae4a",
          "display": "Iva Kratochvílová"
        },
        "effectiveDateTime": "2015-10-13T00:23:29Z",
        "specimen": {
          "reference": "urn:uuid:a5694a74-6782-42c0-ac43-1aeb1f574b08"
        }
      }
    },
    {
      "fullUrl": "urn:uuid:0d0a11e2-cee0-42f9-ba4a-8d3339c585e0",
      "resource": {
        "resourceType": "Observation",
        "id": "0d0a11e2-cee0-42f9-ba4a-8d3339c585e0",
        "meta": {
          "profile": [
            "http://hl7.eu/fhir/laboratory/StructureDefinition/Observation-resultslab-eu-lab"
          ]
        },
        "performer": [
          {
            "display": "The Central European Lab"
          }
        ],
        "category": [
          {
            "coding": [
              {
                "system": "http://terminology.hl7.org/CodeSystem/observation-category",
                "code": "laboratory"
              }
            ]
          }
        ],
        "code": {
          "coding": [
            {
              "code": "1742-6",
              "system": "http://loinc.org",
              "display": "Alanine aminotransferase [Enzymatic activity/volume] in Serum or Plasma"
            }
          ],
          "text": "Alanine aminotransferase [Enzymatic activity/volume] in Serum or Plasma"
        },
        "valueQuantity": {
          "system": "http://unitsofmeasure.org",
          "value": 38.8,
          "unit": "U/L",
          "code": "U/L"
        },
        "referenceRange": [
          {
            "low": {
              "value": 7,
              "code": "U/L",
              "system": "http://unitsofmeasure.org"
            }
          },
          {
            "high": {
              "value": 40,
              "code": "U/L",
              "system": "http://unitsofmeasure.org"
            }
          }
        ],
        "text": {
          "status": "generated",
          "div": "<div xmlns=\"http://www.w3.org/1999/xhtml\"><table class=\"hl7__eu__lab__report\"><tr><th>Test</th><th>13-Oct-2015</th><th>Reference&#xA0;Range</th><th>Unit</th></tr><tr><td>Alanine aminotransferase [Enzymatic activity/volume] in Serum or Plasma</td><td>38.8</td><td>7 - 40</td><td></td><td>U/L</td></tr></table></div>"
        },
        "status": "final",
        "subject": {
          "reference": "urn:uuid:507dd3e9-e0f3-4ce5-8a04-101e8615ae4a",
          "display": "Iva Kratochvílová"
        },
        "effectiveDateTime": "2015-10-13T00:23:29Z",
        "specimen": {
          "reference": "urn:uuid:a5694a74-6782-42c0-ac43-1aeb1f574b08"
        }
      }
    },
    {
      "fullUrl": "urn:uuid:8d92666d-1b6c-492e-a4ae-0e5319f237e0",
      "resource": {
        "resourceType": "Observation",
        "id": "8d92666d-1b6c-492e-a4ae-0e5319f237e0",
        "meta": {
          "profile": [
            "http://hl7.eu/fhir/laboratory/StructureDefinition/Observation-resultslab-eu-lab"
          ]
        },
        "performer": [
          {
            "display": "The Central European Lab"
          }
        ],
        "category": [
          {
            "coding": [
              {
                "system": "http://terminology.hl7.org/CodeSystem/observation-category",
                "code": "laboratory"
              }
            ]
          }
        ],
        "code": {
          "coding": [
            {
              "code": "1920-8",
              "system": "http://loinc.org",
              "display": "Aspartate aminotransferase [Enzymatic activity/volume] in Serum or Plasma"
            }
          ],
          "text": "Aspartate aminotransferase [Enzymatic activity/volume] in Serum or Plasma"
        },
        "valueQuantity": {
          "system": "http://unitsofmeasure.org",
          "value": 26,
          "unit": "U/L",
          "code": "U/L"
        },
        "referenceRange": [
          {
            "low": {
              "value": 10,
              "code": "U/L",
              "system": "http://unitsofmeasure.org"
            }
          },
          {
            "high": {
              "value": 32,
              "code": "U/L",
              "system": "http://unitsofmeasure.org"
            }
          }
        ],
        "text": {
          "status": "generated",
          "div": "<div xmlns=\"http://www.w3.org/1999/xhtml\"><table class=\"hl7__eu__lab__report\"><tr><th>Test</th><th>13-Oct-2015</th><th>Reference&#xA0;Range</th><th>Unit</th></tr><tr><td>Aspartate aminotransferase [Enzymatic activity/volume] in Serum or Plasma</td><td>26.0</td><td>10 - 32</td><td></td><td>U/L</td></tr></table></div>"
        },
        "status": "final",
        "subject": {
          "reference": "urn:uuid:507dd3e9-e0f3-4ce5-8a04-101e8615ae4a",
          "display": "Iva Kratochvílová"
        },
        "effectiveDateTime": "2015-10-13T00:23:29Z",
        "specimen": {
          "reference": "urn:uuid:a5694a74-6782-42c0-ac43-1aeb1f574b08"
        }
      }
    },
    {
      "fullUrl": "urn:uuid:866dea08-a238-42d2-8133-0255f89e9343",
      "resource": {
        "resourceType": "Observation",
        "id": "866dea08-a238-42d2-8133-0255f89e9343",
        "meta": {
          "profile": [
            "http://hl7.eu/fhir/laboratory/StructureDefinition/Observation-resultslab-eu-lab"
          ]
        },
        "performer": [
          {
            "display": "The Central European Lab"
          }
        ],
        "category": [
          {
            "coding": [
              {
                "system": "http://terminology.hl7.org/CodeSystem/observation-category",
                "code": "laboratory"
              }
            ]
          }
        ],
        "code": {
          "coding": [
            {
              "code": "5767-9",
              "system": "http://loinc.org",
              "display": "Appearance of Urine"
            }
          ],
          "text": "Appearance of Urine"
        },
        "text": {
          "status": "generated",
          "div": "<div xmlns=\"http://www.w3.org/1999/xhtml\"><table class=\"hl7__eu__lab__report\"><tr><th>Test</th><th>13-Oct-2015</th><th>Reference&#xA0;Range</th><th>Unit</th></tr><tr><td>Appearance of Urine</td></tr></table></div>"
        },
        "status": "final",
        "subject": {
          "reference": "urn:uuid:507dd3e9-e0f3-4ce5-8a04-101e8615ae4a",
          "display": "Iva Kratochvílová"
        },
        "effectiveDateTime": "2015-10-13T00:23:29Z",
        "specimen": {
          "reference": "urn:uuid:e4744a8b-108b-4e43-8e0e-e6167ff1255c"
        }
      }
    },
    {
      "fullUrl": "urn:uuid:6e3d996f-a3d0-4354-a093-d6cd0b257d4c",
      "resource": {
        "resourceType": "Observation",
        "id": "6e3d996f-a3d0-4354-a093-d6cd0b257d4c",
        "meta": {
          "profile": [
            "http://hl7.eu/fhir/laboratory/StructureDefinition/Observation-resultslab-eu-lab"
          ]
        },
        "performer": [
          {
            "display": "The Central European Lab"
          }
        ],
        "category": [
          {
            "coding": [
              {
                "system": "http://terminology.hl7.org/CodeSystem/observation-category",
                "code": "laboratory"
              }
            ]
          }
        ],
        "code": {
          "coding": [
            {
              "code": "34533-0",
              "system": "http://loinc.org",
              "display": "Odor of Urine"
            }
          ],
          "text": "Odor of Urine"
        },
        "text": {
          "status": "generated",
          "div": "<div xmlns=\"http://www.w3.org/1999/xhtml\"><table class=\"hl7__eu__lab__report\"><tr><th>Test</th><th>13-Oct-2015</th><th>Reference&#xA0;Range</th><th>Unit</th></tr><tr><td>Odor of Urine</td></tr></table></div>"
        },
        "status": "final",
        "subject": {
          "reference": "urn:uuid:507dd3e9-e0f3-4ce5-8a04-101e8615ae4a",
          "display": "Iva Kratochvílová"
        },
        "effectiveDateTime": "2015-10-13T00:23:29Z",
        "specimen": {
          "reference": "urn:uuid:e4744a8b-108b-4e43-8e0e-e6167ff1255c"
        }
      }
    },
    {
      "fullUrl": "urn:uuid:26632f9c-8819-4008-b8ad-cb9a6d3dc465",
      "resource": {
        "resourceType": "Observation",
        "id": "26632f9c-8819-4008-b8ad-cb9a6d3dc465",
        "meta": {
          "profile": [
            "http://hl7.eu/fhir/laboratory/StructureDefinition/Observation-resultslab-eu-lab"
          ]
        },
        "performer": [
          {
            "display": "The Central European Lab"
          }
        ],
        "category": [
          {
            "coding": [
              {
                "system": "http://terminology.hl7.org/CodeSystem/observation-category",
                "code": "laboratory"
              }
            ]
          }
        ],
        "code": {
          "coding": [
            {
              "code": "32167-9",
              "system": "http://loinc.org",
              "display": "Clarity of Urine"
            }
          ],
          "text": "Clarity of Urine"
        },
        "text": {
          "status": "generated",
          "div": "<div xmlns=\"http://www.w3.org/1999/xhtml\"><table class=\"hl7__eu__lab__report\"><tr><th>Test</th><th>13-Oct-2015</th><th>Reference&#xA0;Range</th><th>Unit</th></tr><tr><td>Clarity of Urine</td></tr></table></div>"
        },
        "status": "final",
        "subject": {
          "reference": "urn:uuid:507dd3e9-e0f3-4ce5-8a04-101e8615ae4a",
          "display": "Iva Kratochvílová"
        },
        "effectiveDateTime": "2015-10-13T00:23:29Z",
        "specimen": {
          "reference": "urn:uuid:e4744a8b-108b-4e43-8e0e-e6167ff1255c"
        }
      }
    },
    {
      "fullUrl": "urn:uuid:3a5cf707-73eb-48e3-8048-3ae8ea483820",
      "resource": {
        "resourceType": "Observation",
        "id": "3a5cf707-73eb-48e3-8048-3ae8ea483820",
        "meta": {
          "profile": [
            "http://hl7.eu/fhir/laboratory/StructureDefinition/Observation-resultslab-eu-lab"
          ]
        },
        "performer": [
          {
            "display": "The Central European Lab"
          }
        ],
        "category": [
          {
            "coding": [
              {
                "system": "http://terminology.hl7.org/CodeSystem/observation-category",
                "code": "laboratory"
              }
            ]
          }
        ],
        "code": {
          "coding": [
            {
              "code": "5778-6",
              "system": "http://loinc.org",
              "display": "Color of Urine"
            }
          ],
          "text": "Color of Urine"
        },
        "text": {
          "status": "generated",
          "div": "<div xmlns=\"http://www.w3.org/1999/xhtml\"><table class=\"hl7__eu__lab__report\"><tr><th>Test</th><th>13-Oct-2015</th><th>Reference&#xA0;Range</th><th>Unit</th></tr><tr><td>Color of Urine</td></tr></table></div>"
        },
        "status": "final",
        "subject": {
          "reference": "urn:uuid:507dd3e9-e0f3-4ce5-8a04-101e8615ae4a",
          "display": "Iva Kratochvílová"
        },
        "effectiveDateTime": "2015-10-13T00:23:29Z",
        "specimen": {
          "reference": "urn:uuid:e4744a8b-108b-4e43-8e0e-e6167ff1255c"
        }
      }
    },
    {
      "fullUrl": "urn:uuid:70a92047-28d4-4e48-a1db-40c16892ebba",
      "resource": {
        "resourceType": "Observation",
        "id": "70a92047-28d4-4e48-a1db-40c16892ebba",
        "meta": {
          "profile": [
            "http://hl7.eu/fhir/laboratory/StructureDefinition/Observation-resultslab-eu-lab"
          ]
        },
        "performer": [
          {
            "display": "The Central European Lab"
          }
        ],
        "category": [
          {
            "coding": [
              {
                "system": "http://terminology.hl7.org/CodeSystem/observation-category",
                "code": "laboratory"
              }
            ]
          }
        ],
        "code": {
          "coding": [
            {
              "code": "5792-7",
              "system": "http://loinc.org",
              "display": "Glucose [Mass/volume] in Urine by Test strip"
            }
          ],
          "text": "Glucose [Mass/volume] in Urine by Test strip"
        },
        "valueQuantity": {
          "system": "http://unitsofmeasure.org",
          "value": 1.8,
          "unit": "mg/dL",
          "code": "mg/dL"
        },
        "referenceRange": [
          {
            "low": {
              "value": 0,
              "code": "mg/dL",
              "system": "http://unitsofmeasure.org"
            }
          },
          {
            "high": {
              "value": 0.8,
              "code": "mg/dL",
              "system": "http://unitsofmeasure.org"
            }
          }
        ],
        "interpretation": [
          {
            "coding": [
              {
                "code": "H",
                "system": "http://terminology.hl7.org/CodeSystem/v3-ObservationInterpretation",
                "display": "High"
              }
            ]
          }
        ],
        "text": {
          "status": "generated",
          "div": "<div xmlns=\"http://www.w3.org/1999/xhtml\"><table class=\"hl7__eu__lab__report\"><tr><th>Test</th><th>13-Oct-2015</th><th>Reference&#xA0;Range</th><th>Unit</th></tr><tr><td>Glucose [Mass/volume] in Urine by Test strip</td><td>1.8</td><td>0 - 0.8</td><td>H</td><td>mg/dL</td></tr></table></div>"
        },
        "status": "final",
        "subject": {
          "reference": "urn:uuid:507dd3e9-e0f3-4ce5-8a04-101e8615ae4a",
          "display": "Iva Kratochvílová"
        },
        "effectiveDateTime": "2015-10-13T00:23:29Z",
        "specimen": {
          "reference": "urn:uuid:e4744a8b-108b-4e43-8e0e-e6167ff1255c"
        }
      }
    },
    {
      "fullUrl": "urn:uuid:c2aa738c-af63-4b0a-af5c-93728fa334db",
      "resource": {
        "resourceType": "Observation",
        "id": "c2aa738c-af63-4b0a-af5c-93728fa334db",
        "meta": {
          "profile": [
            "http://hl7.eu/fhir/laboratory/StructureDefinition/Observation-resultslab-eu-lab"
          ]
        },
        "performer": [
          {
            "display": "The Central European Lab"
          }
        ],
        "category": [
          {
            "coding": [
              {
                "system": "http://terminology.hl7.org/CodeSystem/observation-category",
                "code": "laboratory"
              }
            ]
          }
        ],
        "code": {
          "coding": [
            {
              "code": "25428-4",
              "system": "http://loinc.org",
              "display": "Glucose [Presence] in Urine by Test strip"
            }
          ],
          "text": "Glucose [Presence] in Urine by Test strip"
        },
        "text": {
          "status": "generated",
          "div": "<div xmlns=\"http://www.w3.org/1999/xhtml\"><table class=\"hl7__eu__lab__report\"><tr><th>Test</th><th>13-Oct-2015</th><th>Reference&#xA0;Range</th><th>Unit</th></tr><tr><td>Glucose [Presence] in Urine by Test strip</td></tr></table></div>"
        },
        "status": "final",
        "subject": {
          "reference": "urn:uuid:507dd3e9-e0f3-4ce5-8a04-101e8615ae4a",
          "display": "Iva Kratochvílová"
        },
        "effectiveDateTime": "2015-10-13T00:23:29Z",
        "specimen": {
          "reference": "urn:uuid:e4744a8b-108b-4e43-8e0e-e6167ff1255c"
        }
      }
    },
    {
      "fullUrl": "urn:uuid:0d63e6a9-1325-4000-82cc-21671e00740a",
      "resource": {
        "resourceType": "Observation",
        "id": "0d63e6a9-1325-4000-82cc-21671e00740a",
        "meta": {
          "profile": [
            "http://hl7.eu/fhir/laboratory/StructureDefinition/Observation-resultslab-eu-lab"
          ]
        },
        "performer": [
          {
            "display": "The Central European Lab"
          }
        ],
        "category": [
          {
            "coding": [
              {
                "system": "http://terminology.hl7.org/CodeSystem/observation-category",
                "code": "laboratory"
              }
            ]
          }
        ],
        "code": {
          "coding": [
            {
              "code": "20505-4",
              "system": "http://loinc.org",
              "display": "Bilirubin.total [Mass/volume] in Urine by Test strip"
            }
          ],
          "text": "Bilirubin.total [Mass/volume] in Urine by Test strip"
        },
        "valueQuantity": {
          "system": "http://unitsofmeasure.org",
          "value": 0.7,
          "unit": "mg/dL",
          "code": "mg/dL"
        },
        "referenceRange": [
          {
            "low": {
              "value": 0,
              "code": "mg/dL",
              "system": "http://unitsofmeasure.org"
            }
          },
          {
            "high": {
              "value": 1,
              "code": "mg/dL",
              "system": "http://unitsofmeasure.org"
            }
          }
        ],
        "text": {
          "status": "generated",
          "div": "<div xmlns=\"http://www.w3.org/1999/xhtml\"><table class=\"hl7__eu__lab__report\"><tr><th>Test</th><th>13-Oct-2015</th><th>Reference&#xA0;Range</th><th>Unit</th></tr><tr><td>Bilirubin.total [Mass/volume] in Urine by Test strip</td><td>0.7</td><td>0 - 1</td><td></td><td>mg/dL</td></tr></table></div>"
        },
        "status": "final",
        "subject": {
          "reference": "urn:uuid:507dd3e9-e0f3-4ce5-8a04-101e8615ae4a",
          "display": "Iva Kratochvílová"
        },
        "effectiveDateTime": "2015-10-13T00:23:29Z",
        "specimen": {
          "reference": "urn:uuid:e4744a8b-108b-4e43-8e0e-e6167ff1255c"
        }
      }
    },
    {
      "fullUrl": "urn:uuid:f2cd07e5-54fe-4172-8abb-030309feea99",
      "resource": {
        "resourceType": "Observation",
        "id": "f2cd07e5-54fe-4172-8abb-030309feea99",
        "meta": {
          "profile": [
            "http://hl7.eu/fhir/laboratory/StructureDefinition/Observation-resultslab-eu-lab"
          ]
        },
        "performer": [
          {
            "display": "The Central European Lab"
          }
        ],
        "category": [
          {
            "coding": [
              {
                "system": "http://terminology.hl7.org/CodeSystem/observation-category",
                "code": "laboratory"
              }
            ]
          }
        ],
        "code": {
          "coding": [
            {
              "code": "5770-3",
              "system": "http://loinc.org",
              "display": "Bilirubin.total [Presence] in Urine by Test strip"
            }
          ],
          "text": "Bilirubin.total [Presence] in Urine by Test strip"
        },
        "text": {
          "status": "generated",
          "div": "<div xmlns=\"http://www.w3.org/1999/xhtml\"><table class=\"hl7__eu__lab__report\"><tr><th>Test</th><th>13-Oct-2015</th><th>Reference&#xA0;Range</th><th>Unit</th></tr><tr><td>Bilirubin.total [Presence] in Urine by Test strip</td></tr></table></div>"
        },
        "status": "final",
        "subject": {
          "reference": "urn:uuid:507dd3e9-e0f3-4ce5-8a04-101e8615ae4a",
          "display": "Iva Kratochvílová"
        },
        "effectiveDateTime": "2015-10-13T00:23:29Z",
        "specimen": {
          "reference": "urn:uuid:e4744a8b-108b-4e43-8e0e-e6167ff1255c"
        }
      }
    },
    {
      "fullUrl": "urn:uuid:705c2cb7-5809-43a6-a058-d02d3b20f6c4",
      "resource": {
        "resourceType": "Observation",
        "id": "705c2cb7-5809-43a6-a058-d02d3b20f6c4",
        "meta": {
          "profile": [
            "http://hl7.eu/fhir/laboratory/StructureDefinition/Observation-resultslab-eu-lab"
          ]
        },
        "performer": [
          {
            "display": "The Central European Lab"
          }
        ],
        "category": [
          {
            "coding": [
              {
                "system": "http://terminology.hl7.org/CodeSystem/observation-category",
                "code": "laboratory"
              }
            ]
          }
        ],
        "code": {
          "coding": [
            {
              "code": "5797-6",
              "system": "http://loinc.org",
              "display": "Ketones [Mass/volume] in Urine by Test strip"
            }
          ],
          "text": "Ketones [Mass/volume] in Urine by Test strip"
        },
        "valueQuantity": {
          "system": "http://unitsofmeasure.org",
          "value": 17.8,
          "unit": "mg/dL",
          "code": "mg/dL"
        },
        "referenceRange": [
          {
            "low": {
              "value": 0,
              "code": "mg/dL",
              "system": "http://unitsofmeasure.org"
            }
          },
          {
            "high": {
              "value": 4,
              "code": "mg/dL",
              "system": "http://unitsofmeasure.org"
            }
          }
        ],
        "interpretation": [
          {
            "coding": [
              {
                "code": "H",
                "system": "http://terminology.hl7.org/CodeSystem/v3-ObservationInterpretation",
                "display": "High"
              }
            ]
          }
        ],
        "text": {
          "status": "generated",
          "div": "<div xmlns=\"http://www.w3.org/1999/xhtml\"><table class=\"hl7__eu__lab__report\"><tr><th>Test</th><th>13-Oct-2015</th><th>Reference&#xA0;Range</th><th>Unit</th></tr><tr><td>Ketones [Mass/volume] in Urine by Test strip</td><td>17.8</td><td>0 - 4</td><td>H</td><td>mg/dL</td></tr></table></div>"
        },
        "status": "final",
        "subject": {
          "reference": "urn:uuid:507dd3e9-e0f3-4ce5-8a04-101e8615ae4a",
          "display": "Iva Kratochvílová"
        },
        "effectiveDateTime": "2015-10-13T00:23:29Z",
        "specimen": {
          "reference": "urn:uuid:e4744a8b-108b-4e43-8e0e-e6167ff1255c"
        }
      }
    },
    {
      "fullUrl": "urn:uuid:bde18019-761c-4610-9bae-16f615ee5c37",
      "resource": {
        "resourceType": "Observation",
        "id": "bde18019-761c-4610-9bae-16f615ee5c37",
        "meta": {
          "profile": [
            "http://hl7.eu/fhir/laboratory/StructureDefinition/Observation-resultslab-eu-lab"
          ]
        },
        "performer": [
          {
            "display": "The Central European Lab"
          }
        ],
        "category": [
          {
            "coding": [
              {
                "system": "http://terminology.hl7.org/CodeSystem/observation-category",
                "code": "laboratory"
              }
            ]
          }
        ],
        "code": {
          "coding": [
            {
              "code": "2514-8",
              "system": "http://loinc.org",
              "display": "Ketones [Presence] in Urine by Test strip"
            }
          ],
          "text": "Ketones [Presence] in Urine by Test strip"
        },
        "text": {
          "status": "generated",
          "div": "<div xmlns=\"http://www.w3.org/1999/xhtml\"><table class=\"hl7__eu__lab__report\"><tr><th>Test</th><th>13-Oct-2015</th><th>Reference&#xA0;Range</th><th>Unit</th></tr><tr><td>Ketones [Presence] in Urine by Test strip</td></tr></table></div>"
        },
        "status": "final",
        "subject": {
          "reference": "urn:uuid:507dd3e9-e0f3-4ce5-8a04-101e8615ae4a",
          "display": "Iva Kratochvílová"
        },
        "effectiveDateTime": "2015-10-13T00:23:29Z",
        "specimen": {
          "reference": "urn:uuid:e4744a8b-108b-4e43-8e0e-e6167ff1255c"
        }
      }
    },
    {
      "fullUrl": "urn:uuid:47992e88-b10b-48b3-a8db-35950e89c1c2",
      "resource": {
        "resourceType": "Observation",
        "id": "47992e88-b10b-48b3-a8db-35950e89c1c2",
        "meta": {
          "profile": [
            "http://hl7.eu/fhir/laboratory/StructureDefinition/Observation-resultslab-eu-lab"
          ]
        },
        "performer": [
          {
            "display": "The Central European Lab"
          }
        ],
        "category": [
          {
            "coding": [
              {
                "system": "http://terminology.hl7.org/CodeSystem/observation-category",
                "code": "laboratory"
              }
            ]
          }
        ],
        "code": {
          "coding": [
            {
              "code": "5811-5",
              "system": "http://loinc.org",
              "display": "Specific gravity of Urine by Test strip"
            }
          ],
          "text": "Specific gravity of Urine by Test strip"
        },
        "valueQuantity": {
          "system": "http://unitsofmeasure.org",
          "value": 1,
          "unit": "{nominal}",
          "code": "{nominal}"
        },
        "referenceRange": [
          {
            "low": {
              "value": 1.005,
              "code": "g/mL",
              "system": "http://unitsofmeasure.org"
            }
          },
          {
            "high": {
              "value": 1.03,
              "code": "g/mL",
              "system": "http://unitsofmeasure.org"
            }
          }
        ],
        "interpretation": [
          {
            "coding": [
              {
                "code": "L",
                "system": "http://terminology.hl7.org/CodeSystem/v3-ObservationInterpretation",
                "display": "Low"
              }
            ]
          }
        ],
        "text": {
          "status": "generated",
          "div": "<div xmlns=\"http://www.w3.org/1999/xhtml\"><table class=\"hl7__eu__lab__report\"><tr><th>Test</th><th>13-Oct-2015</th><th>Reference&#xA0;Range</th><th>Unit</th></tr><tr><td>Specific gravity of Urine by Test strip</td><td>1.0</td><td>1.005 - 1.03</td><td>L</td><td>{nominal}</td></tr></table></div>"
        },
        "status": "final",
        "subject": {
          "reference": "urn:uuid:507dd3e9-e0f3-4ce5-8a04-101e8615ae4a",
          "display": "Iva Kratochvílová"
        },
        "effectiveDateTime": "2015-10-13T00:23:29Z",
        "specimen": {
          "reference": "urn:uuid:e4744a8b-108b-4e43-8e0e-e6167ff1255c"
        }
      }
    },
    {
      "fullUrl": "urn:uuid:e3913d0a-10b8-430e-8376-2edd27b6d52f",
      "resource": {
        "resourceType": "Observation",
        "id": "e3913d0a-10b8-430e-8376-2edd27b6d52f",
        "meta": {
          "profile": [
            "http://hl7.eu/fhir/laboratory/StructureDefinition/Observation-resultslab-eu-lab"
          ]
        },
        "performer": [
          {
            "display": "The Central European Lab"
          }
        ],
        "category": [
          {
            "coding": [
              {
                "system": "http://terminology.hl7.org/CodeSystem/observation-category",
                "code": "laboratory"
              }
            ]
          }
        ],
        "code": {
          "coding": [
            {
              "code": "5803-2",
              "system": "http://loinc.org",
              "display": "pH of Urine by Test strip"
            }
          ],
          "text": "pH of Urine by Test strip"
        },
        "valueQuantity": {
          "system": "http://unitsofmeasure.org",
          "value": 5.9,
          "unit": "pH",
          "code": "pH"
        },
        "referenceRange": [
          {
            "low": {
              "value": 4.5,
              "code": "pH",
              "system": "http://unitsofmeasure.org"
            }
          },
          {
            "high": {
              "value": 7,
              "code": "pH",
              "system": "http://unitsofmeasure.org"
            }
          }
        ],
        "text": {
          "status": "generated",
          "div": "<div xmlns=\"http://www.w3.org/1999/xhtml\"><table class=\"hl7__eu__lab__report\"><tr><th>Test</th><th>13-Oct-2015</th><th>Reference&#xA0;Range</th><th>Unit</th></tr><tr><td>pH of Urine by Test strip</td><td>5.9</td><td>4.5 - 7</td><td></td><td>pH</td></tr></table></div>"
        },
        "status": "final",
        "subject": {
          "reference": "urn:uuid:507dd3e9-e0f3-4ce5-8a04-101e8615ae4a",
          "display": "Iva Kratochvílová"
        },
        "effectiveDateTime": "2015-10-13T00:23:29Z",
        "specimen": {
          "reference": "urn:uuid:e4744a8b-108b-4e43-8e0e-e6167ff1255c"
        }
      }
    },
    {
      "fullUrl": "urn:uuid:e2efef8d-3bab-4a96-8ca3-9e5eecdfefcd",
      "resource": {
        "resourceType": "Observation",
        "id": "e2efef8d-3bab-4a96-8ca3-9e5eecdfefcd",
        "meta": {
          "profile": [
            "http://hl7.eu/fhir/laboratory/StructureDefinition/Observation-resultslab-eu-lab"
          ]
        },
        "performer": [
          {
            "display": "The Central European Lab"
          }
        ],
        "category": [
          {
            "coding": [
              {
                "system": "http://terminology.hl7.org/CodeSystem/observation-category",
                "code": "laboratory"
              }
            ]
          }
        ],
        "code": {
          "coding": [
            {
              "code": "5804-0",
              "system": "http://loinc.org",
              "display": "Protein [Mass/volume] in Urine by Test strip"
            }
          ],
          "text": "Protein [Mass/volume] in Urine by Test strip"
        },
        "valueQuantity": {
          "system": "http://unitsofmeasure.org",
          "value": 324.6,
          "unit": "mg/dL",
          "code": "mg/dL"
        },
        "referenceRange": [
          {
            "low": {
              "value": 0,
              "code": "mg/dL",
              "system": "http://unitsofmeasure.org"
            }
          },
          {
            "high": {
              "value": 145,
              "code": "mg/dL",
              "system": "http://unitsofmeasure.org"
            }
          }
        ],
        "interpretation": [
          {
            "coding": [
              {
                "code": "H",
                "system": "http://terminology.hl7.org/CodeSystem/v3-ObservationInterpretation",
                "display": "High"
              }
            ]
          }
        ],
        "text": {
          "status": "generated",
          "div": "<div xmlns=\"http://www.w3.org/1999/xhtml\"><table class=\"hl7__eu__lab__report\"><tr><th>Test</th><th>13-Oct-2015</th><th>Reference&#xA0;Range</th><th>Unit</th></tr><tr><td>Protein [Mass/volume] in Urine by Test strip</td><td>324.6</td><td>0 - 145</td><td>H</td><td>mg/dL</td></tr></table></div>"
        },
        "status": "final",
        "subject": {
          "reference": "urn:uuid:507dd3e9-e0f3-4ce5-8a04-101e8615ae4a",
          "display": "Iva Kratochvílová"
        },
        "effectiveDateTime": "2015-10-13T00:23:29Z",
        "specimen": {
          "reference": "urn:uuid:e4744a8b-108b-4e43-8e0e-e6167ff1255c"
        }
      }
    },
    {
      "fullUrl": "urn:uuid:65bf0dd7-32f2-49c7-8e63-0ece38a4c9a0",
      "resource": {
        "resourceType": "Observation",
        "id": "65bf0dd7-32f2-49c7-8e63-0ece38a4c9a0",
        "meta": {
          "profile": [
            "http://hl7.eu/fhir/laboratory/StructureDefinition/Observation-resultslab-eu-lab"
          ]
        },
        "performer": [
          {
            "display": "The Central European Lab"
          }
        ],
        "category": [
          {
            "coding": [
              {
                "system": "http://terminology.hl7.org/CodeSystem/observation-category",
                "code": "laboratory"
              }
            ]
          }
        ],
        "code": {
          "coding": [
            {
              "code": "20454-5",
              "system": "http://loinc.org",
              "display": "Protein [Presence] in Urine by Test strip"
            }
          ],
          "text": "Protein [Presence] in Urine by Test strip"
        },
        "text": {
          "status": "generated",
          "div": "<div xmlns=\"http://www.w3.org/1999/xhtml\"><table class=\"hl7__eu__lab__report\"><tr><th>Test</th><th>13-Oct-2015</th><th>Reference&#xA0;Range</th><th>Unit</th></tr><tr><td>Protein [Presence] in Urine by Test strip</td></tr></table></div>"
        },
        "status": "final",
        "subject": {
          "reference": "urn:uuid:507dd3e9-e0f3-4ce5-8a04-101e8615ae4a",
          "display": "Iva Kratochvílová"
        },
        "effectiveDateTime": "2015-10-13T00:23:29Z",
        "specimen": {
          "reference": "urn:uuid:e4744a8b-108b-4e43-8e0e-e6167ff1255c"
        }
      }
    },
    {
      "fullUrl": "urn:uuid:27e88ceb-22a1-4497-bd37-302b52f538ce",
      "resource": {
        "resourceType": "Observation",
        "id": "27e88ceb-22a1-4497-bd37-302b52f538ce",
        "meta": {
          "profile": [
            "http://hl7.eu/fhir/laboratory/StructureDefinition/Observation-resultslab-eu-lab"
          ]
        },
        "performer": [
          {
            "display": "The Central European Lab"
          }
        ],
        "category": [
          {
            "coding": [
              {
                "system": "http://terminology.hl7.org/CodeSystem/observation-category",
                "code": "laboratory"
              }
            ]
          }
        ],
        "code": {
          "coding": [
            {
              "code": "5802-4",
              "system": "http://loinc.org",
              "display": "Nitrite [Presence] in Urine by Test strip"
            }
          ],
          "text": "Nitrite [Presence] in Urine by Test strip"
        },
        "text": {
          "status": "generated",
          "div": "<div xmlns=\"http://www.w3.org/1999/xhtml\"><table class=\"hl7__eu__lab__report\"><tr><th>Test</th><th>13-Oct-2015</th><th>Reference&#xA0;Range</th><th>Unit</th></tr><tr><td>Nitrite [Presence] in Urine by Test strip</td></tr></table></div>"
        },
        "status": "final",
        "subject": {
          "reference": "urn:uuid:507dd3e9-e0f3-4ce5-8a04-101e8615ae4a",
          "display": "Iva Kratochvílová"
        },
        "effectiveDateTime": "2015-10-13T00:23:29Z",
        "specimen": {
          "reference": "urn:uuid:e4744a8b-108b-4e43-8e0e-e6167ff1255c"
        }
      }
    },
    {
      "fullUrl": "urn:uuid:923fb4fe-9b74-4af0-a0cc-61b4d7b0819d",
      "resource": {
        "resourceType": "Observation",
        "id": "923fb4fe-9b74-4af0-a0cc-61b4d7b0819d",
        "meta": {
          "profile": [
            "http://hl7.eu/fhir/laboratory/StructureDefinition/Observation-resultslab-eu-lab"
          ]
        },
        "performer": [
          {
            "display": "The Central European Lab"
          }
        ],
        "category": [
          {
            "coding": [
              {
                "system": "http://terminology.hl7.org/CodeSystem/observation-category",
                "code": "laboratory"
              }
            ]
          }
        ],
        "code": {
          "coding": [
            {
              "code": "5794-3",
              "system": "http://loinc.org",
              "display": "Hemoglobin [Presence] in Urine by Test strip"
            }
          ],
          "text": "Hemoglobin [Presence] in Urine by Test strip"
        },
        "text": {
          "status": "generated",
          "div": "<div xmlns=\"http://www.w3.org/1999/xhtml\"><table class=\"hl7__eu__lab__report\"><tr><th>Test</th><th>13-Oct-2015</th><th>Reference&#xA0;Range</th><th>Unit</th></tr><tr><td>Hemoglobin [Presence] in Urine by Test strip</td></tr></table></div>"
        },
        "status": "final",
        "subject": {
          "reference": "urn:uuid:507dd3e9-e0f3-4ce5-8a04-101e8615ae4a",
          "display": "Iva Kratochvílová"
        },
        "effectiveDateTime": "2015-10-13T00:23:29Z",
        "specimen": {
          "reference": "urn:uuid:e4744a8b-108b-4e43-8e0e-e6167ff1255c"
        }
      }
    },
    {
      "fullUrl": "urn:uuid:c54b4822-e857-4ee0-a963-28c854ed52e8",
      "resource": {
        "resourceType": "Observation",
        "id": "c54b4822-e857-4ee0-a963-28c854ed52e8",
        "meta": {
          "profile": [
            "http://hl7.eu/fhir/laboratory/StructureDefinition/Observation-resultslab-eu-lab"
          ]
        },
        "performer": [
          {
            "display": "The Central European Lab"
          }
        ],
        "category": [
          {
            "coding": [
              {
                "system": "http://terminology.hl7.org/CodeSystem/observation-category",
                "code": "laboratory"
              }
            ]
          }
        ],
        "code": {
          "coding": [
            {
              "code": "5799-2",
              "system": "http://loinc.org",
              "display": "Leukocyte esterase [Presence] in Urine by Test strip"
            }
          ],
          "text": "Leukocyte esterase [Presence] in Urine by Test strip"
        },
        "text": {
          "status": "generated",
          "div": "<div xmlns=\"http://www.w3.org/1999/xhtml\"><table class=\"hl7__eu__lab__report\"><tr><th>Test</th><th>13-Oct-2015</th><th>Reference&#xA0;Range</th><th>Unit</th></tr><tr><td>Leukocyte esterase [Presence] in Urine by Test strip</td></tr></table></div>"
        },
        "status": "final",
        "subject": {
          "reference": "urn:uuid:507dd3e9-e0f3-4ce5-8a04-101e8615ae4a",
          "display": "Iva Kratochvílová"
        },
        "effectiveDateTime": "2015-10-13T00:23:29Z",
        "specimen": {
          "reference": "urn:uuid:e4744a8b-108b-4e43-8e0e-e6167ff1255c"
        }
      }
    },
    {
      "fullUrl": "urn:uuid:0f1459e5-13ed-4509-b45c-e9852a391d2b",
      "resource": {
        "resourceType": "Device",
        "id": "0f1459e5-13ed-4509-b45c-e9852a391d2b",
        "deviceName": [
          {
            "name": "SYNDERAI Synthetic Generator",
            "type": "manufacturer-name"
          }
        ],
        "version": [
          {
            "value": "5.0"
          }
        ],
        "text": {
          "status": "generated",
          "div": "<div xmlns=\"http://www.w3.org/1999/xhtml\">SYNDERAI Synthetic Generator v5.0</div>"
        },
        "status": "active\"",
        "distinctIdentifier": "synderai-generator-50",
        "manufacturer": "SYNDERAI Project"
      }
    },
    {
      "fullUrl": "urn:uuid:0297554f-9dc4-4396-88f1-73e347197451",
      "resource": {
        "resourceType": "Provenance",
        "id": "0297554f-9dc4-4396-88f1-73e347197451",
        "target": [
          {
            "reference": "Patient/507dd3e9-e0f3-4ce5-8a04-101e8615ae4a"
          },
          {
            "reference": "Bundle/7f3dca5d-c49f-4f91-9380-59b392a0e864"
          },
          {
            "reference": "Composition/f189ae05-6202-4303-be0c-6444e675f4de"
          },
          {
            "reference": "PractitionerRole/d8ca9e2b-628b-419c-b3b9-e5f4df2d0660"
          },
          {
            "reference": "Practitioner/0f17ce5f-a50d-40d7-a98b-3d4f4ae098f5"
          },
          {
            "reference": "PractitionerRole/e7d87f1f-e224-4155-810e-e21ad6b07eee"
          },
          {
            "reference": "Organization/5c4e6f98-d086-4fbc-9786-b648f1258d21"
          }
        ],
        "activity": {
          "text": "Synthetic Example Data Generation"
        },
        "policy": [
          "https://synderai.net/synderai-synthetic-data-policy"
        ],
        "agent": [
          {
            "type": {
              "text": "author"
            },
            "who": {
              "reference": "Device/0f1459e5-13ed-4509-b45c-e9852a391d2b"
            }
          }
        ],
        "reason": [
          {
            "text": "Interoperability Testing and Training (non-clinical use)"
          }
        ],
        "text": {
          "status": "generated",
          "div": "<div xmlns=\"http://www.w3.org/1999/xhtml\">Provenance for SYNDERAI Synthetic Example Data Resource</div>"
        },
        "recorded": "2015-10-13T02:23:29Z"
      }
    },
    {
      "fullUrl": "urn:uuid:d8ca9e2b-628b-419c-b3b9-e5f4df2d0660",
      "resource": {
        "resourceType": "PractitionerRole",
        "id": "d8ca9e2b-628b-419c-b3b9-e5f4df2d0660",
        "meta": {
          "profile": [
            "http://hl7.eu/fhir/base/StructureDefinition/practitionerRole-eu"
          ]
        },
        "text": {
          "status": "generated",
          "div": "<div xmlns=\"http://www.w3.org/1999/xhtml\">Laboratory Role Id: d8ca9e2b-628b-419c-b3b9-e5f4df2d0660</div>"
        },
        "practitioner": {
          "reference": "urn:uuid:0f17ce5f-a50d-40d7-a98b-3d4f4ae098f5"
        }
      }
    },
    {
      "fullUrl": "urn:uuid:0f17ce5f-a50d-40d7-a98b-3d4f4ae098f5",
      "resource": {
        "resourceType": "Practitioner",
        "id": "0f17ce5f-a50d-40d7-a98b-3d4f4ae098f5",
        "meta": {
          "profile": [
            "http://hl7.eu/fhir/base/StructureDefinition/practitioner-eu"
          ]
        },
        "identifier": [
          {
            "assigner": {
              "display": "HL7 Europe"
            },
            "system": "urn:oid:2.16.840.1.113883.2.51.999",
            "value": "0f485eef-d9df-4ead-a897-9015d9818376"
          }
        ],
        "name": [
          {
            "prefix": [
              "dr"
            ],
            "given": [
              "Ex"
            ],
            "family": "Ample"
          }
        ],
        "address": [
          {
            "line": [
              "Laboratoire Central Européenne",
              "Boulevard du Jardin Botanique 32"
            ],
            "postalCode": "1000",
            "city": "Brussels",
            "country": "Belgium"
          }
        ],
        "text": {
          "status": "generated",
          "div": "<div xmlns=\"http://www.w3.org/1999/xhtml\">Laboratory: Laboratoire Central Européenne, 1000 Brussels, Belgium</div>"
        }
      }
    }
  ],
  "type": "document",
  "timestamp": "2015-10-13T02:23:29Z"
}
