{
  "resourceType": "Bundle",
  "id": "fcd06009-3a33-4e4e-acbe-9589a6300308",
  "meta": {
    "profile": [
      "http://hl7.eu/fhir/laboratory/StructureDefinition/Bundle-eu-lab"
    ]
  },
  "identifier": {
    "assigner": {
      "display": "HL7 Europe"
    },
    "system": "urn:oid:2.16.840.1.113883.2.51.999",
    "value": "f98dfad2-f0e5-4f3e-afa2-da328ebd85d5"
  },
  "entry": [
    {
      "fullUrl": "urn:uuid:29f1dd91-32ef-4a99-a7aa-b805f6c982fd",
      "resource": {
        "resourceType": "Composition",
        "id": "29f1dd91-32ef-4a99-a7aa-b805f6c982fd",
        "meta": {
          "profile": [
            "http://hl7.eu/fhir/laboratory/StructureDefinition/Composition-eu-lab"
          ]
        },
        "identifier": {
          "assigner": {
            "display": "HL7 Europe"
          },
          "system": "urn:oid:2.16.840.1.113883.2.51.999",
          "value": "652eebde-de76-4f8f-84b0-96610e423c2d"
        },
        "author": [
          {
            "reference": "urn:uuid:e8c7024a-5b8b-4a09-b58e-4eda4f11f138"
          }
        ],
        "category": [
          {
            "coding": [
              {
                "code": "26436-6",
                "system": "http://loinc.org",
                "display": "Laboratory studies (set)"
              }
            ]
          }
        ],
        "type": {
          "coding": [
            {
              "code": "11502-2",
              "system": "http://loinc.org",
              "display": "Laboratory report"
            }
          ],
          "text": "Laboratory Report"
        },
        "section": [
          {
            "code": {
              "coding": [
                {
                  "code": "26436-6",
                  "system": "http://loinc.org",
                  "display": "Laboratory studies (set)"
                }
              ],
              "text": "Laboratory studies"
            },
            "section": [
              {
                "code": {
                  "coding": [
                    {
                      "code": "$18719-5",
                      "system": "http://loinc.org",
                      "display": "Chemistry studies (set)"
                    }
                  ],
                  "text": "Chemistry"
                },
                "entry": [
                  {
                    "reference": "urn:uuid:1d1469ed-2b53-4fed-b410-60e235ce5e70"
                  },
                  {
                    "reference": "urn:uuid:3d254807-c1ab-41c7-82de-08b38def03cd"
                  },
                  {
                    "reference": "urn:uuid:1ea95154-365f-4f39-96bc-107e4276e2dc"
                  },
                  {
                    "reference": "urn:uuid:a6493880-78be-48dd-98c3-7dca8b4b0ef4"
                  }
                ],
                "text": {
                  "status": "generated",
                  "div": "<div xmlns=\"http://www.w3.org/1999/xhtml\"><h3>Chemistry</h3><table class=\"hl7__eu__lab__report\"><thead><tr><th>Test</th><th>15-NOV-2024</th><th>Reference&#xA0;Range</th><th>Unit</th></tr></thead><tbody><tr><td>Cholesterol [Mass/volume] in Serum or Plasma</td><td><strong>205.8 H</strong></td><td>125 - 200</td><td>mg/dL</td></tr><tr><td>Triglyceride [Mass/volume] in Serum or Plasma</td><td>147.2</td><td>0 - 150</td><td>mg/dL</td></tr><tr><td>Cholesterol in LDL [Mass/volume] in Serum or Plasma by Direct assay</td><td>117.9</td><td>0 - 130</td><td>mg/dL</td></tr><tr><td>Cholesterol in HDL [Mass/volume] in Serum or Plasma</td><td>58.4</td><td>40 - 60</td><td>mg/dL</td></tr></tbody></table></div>"
                },
                "title": "Chemistry"
              }
            ],
            "title": "Laboratory Report"
          },
          {
            "text": {
              "status": "generated",
              "div": "<div xmlns=\"http://www.w3.org/1999/xhtml\"><h3>Annotation</h3><table class=\"hl7__eu__lab__report\"><tr><th>Conclusion and Recommendations based on this report and previous findings known to us</th></tr><tr><td>The patient shows mildly elevated total cholesterol, while LDL, HDL, and triglycerides are within normal limits. This lipid profile suggests a slightly increased cardiovascular risk, mainly due to total cholesterol. Recommend lifestyle modifications and, if indicated, further cardiovascular risk assessment.</td></tr></table></div>"
            },
            "code": {
              "coding": [
                {
                  "system": "http://loinc.org",
                  "code": "48767-8",
                  "display": "Annotation comment"
                }
              ]
            },
            "title": "Annotation comment"
          }
        ],
        "status": "final",
        "subject": {
          "reference": "urn:uuid:3bd0b406-ddc3-4561-bff9-f7de347aa7a8",
          "display": "Elias Höfig"
        },
        "date": "2024-11-15T10:47:46Z",
        "title": "Laboratory Report",
        "confidentiality": "N"
      }
    },
    {
      "fullUrl": "urn:uuid:e7233df7-12f9-4dac-b7c8-99926bf2a228",
      "resource": {
        "resourceType": "DiagnosticReport",
        "id": "e7233df7-12f9-4dac-b7c8-99926bf2a228",
        "meta": {
          "profile": [
            "http://hl7.eu/fhir/laboratory/StructureDefinition/DiagnosticReport-eu-lab"
          ]
        },
        "identifier": [
          {
            "assigner": {
              "display": "HL7 Europe"
            },
            "system": "urn:oid:2.16.840.1.113883.2.51.999",
            "value": "5786a435-ad44-41a4-ab2a-405153fc3190"
          }
        ],
        "extension": [
          {
            "url": "http://hl7.org/fhir/5.0/StructureDefinition/extension-DiagnosticReport.composition",
            "valueReference": {
              "reference": "urn:uuid:652eebde-de76-4f8f-84b0-96610e423c2d"
            }
          }
        ],
        "category": [
          {
            "coding": [
              {
                "code": "26436-6",
                "system": "http://loinc.org",
                "display": "Laboratory studies (set)"
              }
            ]
          }
        ],
        "specimen": [
          {
            "reference": "urn:uuid:04b95468-2c0a-4b62-a6f6-35426e67d685"
          }
        ],
        "result": [
          {
            "reference": "urn:uuid:1d1469ed-2b53-4fed-b410-60e235ce5e70"
          },
          {
            "reference": "urn:uuid:3d254807-c1ab-41c7-82de-08b38def03cd"
          },
          {
            "reference": "urn:uuid:1ea95154-365f-4f39-96bc-107e4276e2dc"
          },
          {
            "reference": "urn:uuid:a6493880-78be-48dd-98c3-7dca8b4b0ef4"
          }
        ],
        "status": "registered",
        "code": {
          "coding": [
            {
              "code": "11502-2",
              "system": "http://loinc.org",
              "display": "Laboratory report"
            }
          ]
        },
        "subject": {
          "reference": "urn:uuid:3bd0b406-ddc3-4561-bff9-f7de347aa7a8",
          "display": "Elias Höfig"
        }
      }
    },
    {
      "fullUrl": "urn:uuid:3bd0b406-ddc3-4561-bff9-f7de347aa7a8",
      "resource": {
        "resourceType": "Patient",
        "id": "3bd0b406-ddc3-4561-bff9-f7de347aa7a8",
        "meta": {
          "security": [
            {
              "system": "http://terminology.hl7.org/CodeSystem/v3-ActReason",
              "code": "HTEST"
            },
            {
              "system": "http://terminology.hl7.org/CodeSystem/v3-ActReason",
              "code": "TRAIN"
            }
          ],
          "tag": [
            {
              "system": "https://synderai.net/fhir/CodeSystem/tags",
              "code": "synthetic",
              "display": "SYNDERAI Synthetic data"
            }
          ],
          "profile": [
            "http://hl7.eu/fhir/base/StructureDefinition/patient-eu-core"
          ]
        },
        "identifier": [
          {
            "type": {
              "coding": [
                {
                  "code": "PT",
                  "system": "http://terminology.hl7.org/CodeSystem/v2-0203"
                }
              ]
            },
            "system": "http://ec.europa.eu/identifier/eci",
            "value": "7833-401919-3"
          },
          {
            "type": {
              "coding": [
                {
                  "code": "MR",
                  "system": "http://terminology.hl7.org/CodeSystem/v2-0203"
                }
              ]
            },
            "system": "http://local.setting.eu/identifier",
            "value": "55b3d71c-a283-2178-4db6-d251ed0e1404"
          }
        ],
        "name": [
          {
            "family": "Höfig"
          },
          {
            "given": [
              "Elias"
            ]
          },
          {
            "text": "Elias Höfig"
          }
        ],
        "address": [
          {
            "line": [
              "Pauline-Schwital-Allee 6-2"
            ],
            "use": "home",
            "type": "physical",
            "postalCode": "39326",
            "city": "Wolmirstedt",
            "country": "Germany"
          }
        ],
        "telecom": [
          {
            "system": "phone",
            "value": "+49 (0) 4602 154908"
          }
        ],
        "extension": [
          {
            "url": "http://hl7.org/fhir/StructureDefinition/patient-nationality",
            "valueCodeableConcept": {
              "coding": [
                {
                  "code": "DE",
                  "system": "http://hl7.org/fhir/ValueSet/country"
                }
              ]
            }
          }
        ],
        "text": {
          "status": "generated",
          "div": "<div xmlns=\"http://www.w3.org/1999/xhtml\"><table class=\"hl7__ips\"><tr><td>Elias Höfig</td><td>male</td><td>19-May-1974</td></tr></table></div>"
        },
        "gender": "male",
        "birthDate": "1974-05-19"
      }
    },
    {
      "fullUrl": "urn:uuid:d236a302-f093-435b-8cba-cddc14c50cef",
      "resource": {
        "resourceType": "ServiceRequest",
        "id": "d236a302-f093-435b-8cba-cddc14c50cef",
        "meta": {
          "profile": [
            "http://hl7.eu/fhir/laboratory/StructureDefinition/ServiceRequest-eu-lab"
          ]
        },
        "identifier": [
          {
            "system": "http://example.org",
            "value": "f74b0003-43b3-49c5-9d70-f92acce39631"
          }
        ],
        "specimen": [
          {
            "reference": "urn:uuid:04b95468-2c0a-4b62-a6f6-35426e67d685"
          }
        ],
        "status": "active",
        "intent": "order",
        "code": {
          "coding": [
            {
              "code": "108252007",
              "system": "http://snomed.info/sct",
              "display": "Laboratory procedure"
            }
          ]
        },
        "subject": {
          "reference": "urn:uuid:3bd0b406-ddc3-4561-bff9-f7de347aa7a8",
          "display": "Elias Höfig"
        },
        "requester": {
          "reference": "urn:uuid:b6795c7e-5abf-4313-92f0-9a025a82d510"
        }
      }
    },
    {
      "fullUrl": "urn:uuid:b6795c7e-5abf-4313-92f0-9a025a82d510",
      "resource": {
        "resourceType": "PractitionerRole",
        "id": "b6795c7e-5abf-4313-92f0-9a025a82d510",
        "meta": {
          "profile": [
            "http://hl7.eu/fhir/base/StructureDefinition/practitionerRole-eu"
          ]
        },
        "text": {
          "status": "generated",
          "div": "<div xmlns=\"http://www.w3.org/1999/xhtml\">Provider Role Id: b6795c7e-5abf-4313-92f0-9a025a82d510</div>"
        },
        "organization": {
          "reference": "urn:uuid:51b0307b-861a-49bd-829b-f03806b530c7"
        }
      }
    },
    {
      "fullUrl": "urn:uuid:51b0307b-861a-49bd-829b-f03806b530c7",
      "resource": {
        "resourceType": "Organization",
        "id": "51b0307b-861a-49bd-829b-f03806b530c7",
        "meta": {
          "profile": [
            "http://hl7.eu/fhir/base/StructureDefinition/organization-eu"
          ]
        },
        "identifier": [
          {
            "assigner": {
              "display": "HL7 Europe"
            },
            "system": "urn:oid:2.16.840.1.113883.2.51.999",
            "value": "ee66cc8e-45a2-4446-993c-015b5c2a46dd"
          }
        ],
        "address": [
          {
            "line": [
              "Birkenallee 34"
            ],
            "city": "Magdeburg",
            "postalCode": "39130",
            "country": "Germany"
          }
        ],
        "text": {
          "status": "generated",
          "div": "<div xmlns=\"http://www.w3.org/1999/xhtml\">Provider Organization: Klinikum Magdeburg</div>"
        },
        "name": "Klinikum Magdeburg"
      }
    },
    {
      "fullUrl": "urn:uuid:04b95468-2c0a-4b62-a6f6-35426e67d685",
      "resource": {
        "resourceType": "Specimen",
        "id": "04b95468-2c0a-4b62-a6f6-35426e67d685",
        "meta": {
          "profile": [
            "http://hl7.eu/fhir/laboratory/StructureDefinition/Specimen-eu-lab"
          ]
        },
        "collection": {
          "collectedDateTime": "2024-11-15"
        },
        "text": {
          "status": "generated",
          "div": "<div xmlns=\"http://www.w3.org/1999/xhtml\"><table class=\"hl7__eu__lab__report\"><tr><th>Specimen</th><th>Collection Date</th></tr><tr><td>Acellular blood (serum or plasma) specimen</td><td><span class=\"nb\">15-Nov-2024</span></td></tr></table></div>"
        },
        "type": {
          "coding": [
            {
              "code": "122592007",
              "system": "http://snomed.info/sct",
              "display": "Acellular blood (serum or plasma) specimen"
            }
          ]
        }
      }
    },
    {
      "fullUrl": "urn:uuid:1d1469ed-2b53-4fed-b410-60e235ce5e70",
      "resource": {
        "resourceType": "Observation",
        "id": "1d1469ed-2b53-4fed-b410-60e235ce5e70",
        "meta": {
          "profile": [
            "http://hl7.eu/fhir/laboratory/StructureDefinition/Observation-resultslab-eu-lab"
          ]
        },
        "performer": [
          {
            "display": "The Central European Lab"
          }
        ],
        "category": [
          {
            "coding": [
              {
                "system": "http://terminology.hl7.org/CodeSystem/observation-category",
                "code": "laboratory"
              }
            ]
          }
        ],
        "code": {
          "coding": [
            {
              "code": "2093-3",
              "system": "http://loinc.org",
              "display": "Cholesterol [Mass/volume] in Serum or Plasma"
            }
          ],
          "text": "Cholesterol [Mass/volume] in Serum or Plasma"
        },
        "valueQuantity": {
          "system": "http://unitsofmeasure.org",
          "value": 205.8,
          "unit": "mg/dL",
          "code": "mg/dL"
        },
        "referenceRange": [
          {
            "low": {
              "value": 125,
              "code": "mg/dL",
              "system": "http://unitsofmeasure.org"
            }
          },
          {
            "high": {
              "value": 200,
              "code": "mg/dL",
              "system": "http://unitsofmeasure.org"
            }
          }
        ],
        "interpretation": [
          {
            "coding": [
              {
                "code": "H",
                "system": "http://terminology.hl7.org/CodeSystem/v3-ObservationInterpretation",
                "display": "High"
              }
            ]
          }
        ],
        "text": {
          "status": "generated",
          "div": "<div xmlns=\"http://www.w3.org/1999/xhtml\"><table class=\"hl7__eu__lab__report\"><tr><th>Test</th><th>15-Nov-2024</th><th>Reference&#xA0;Range</th><th>Unit</th></tr><tr><td>Cholesterol [Mass/volume] in Serum or Plasma</td><td>205.8</td><td>125 - 200</td><td>H</td><td>mg/dL</td></tr></table></div>"
        },
        "status": "final",
        "subject": {
          "reference": "urn:uuid:3bd0b406-ddc3-4561-bff9-f7de347aa7a8",
          "display": "Elias Höfig"
        },
        "effectiveDateTime": "2024-11-15T09:47:46Z",
        "specimen": {
          "reference": "urn:uuid:04b95468-2c0a-4b62-a6f6-35426e67d685"
        }
      }
    },
    {
      "fullUrl": "urn:uuid:3d254807-c1ab-41c7-82de-08b38def03cd",
      "resource": {
        "resourceType": "Observation",
        "id": "3d254807-c1ab-41c7-82de-08b38def03cd",
        "meta": {
          "profile": [
            "http://hl7.eu/fhir/laboratory/StructureDefinition/Observation-resultslab-eu-lab"
          ]
        },
        "performer": [
          {
            "display": "The Central European Lab"
          }
        ],
        "category": [
          {
            "coding": [
              {
                "system": "http://terminology.hl7.org/CodeSystem/observation-category",
                "code": "laboratory"
              }
            ]
          }
        ],
        "code": {
          "coding": [
            {
              "code": "2571-8",
              "system": "http://loinc.org",
              "display": "Triglyceride [Mass/volume] in Serum or Plasma"
            }
          ],
          "text": "Triglyceride [Mass/volume] in Serum or Plasma"
        },
        "valueQuantity": {
          "system": "http://unitsofmeasure.org",
          "value": 147.2,
          "unit": "mg/dL",
          "code": "mg/dL"
        },
        "referenceRange": [
          {
            "low": {
              "value": 0,
              "code": "mg/dL",
              "system": "http://unitsofmeasure.org"
            }
          },
          {
            "high": {
              "value": 150,
              "code": "mg/dL",
              "system": "http://unitsofmeasure.org"
            }
          }
        ],
        "text": {
          "status": "generated",
          "div": "<div xmlns=\"http://www.w3.org/1999/xhtml\"><table class=\"hl7__eu__lab__report\"><tr><th>Test</th><th>15-Nov-2024</th><th>Reference&#xA0;Range</th><th>Unit</th></tr><tr><td>Triglyceride [Mass/volume] in Serum or Plasma</td><td>147.2</td><td>0 - 150</td><td></td><td>mg/dL</td></tr></table></div>"
        },
        "status": "final",
        "subject": {
          "reference": "urn:uuid:3bd0b406-ddc3-4561-bff9-f7de347aa7a8",
          "display": "Elias Höfig"
        },
        "effectiveDateTime": "2024-11-15T09:47:46Z",
        "specimen": {
          "reference": "urn:uuid:04b95468-2c0a-4b62-a6f6-35426e67d685"
        }
      }
    },
    {
      "fullUrl": "urn:uuid:1ea95154-365f-4f39-96bc-107e4276e2dc",
      "resource": {
        "resourceType": "Observation",
        "id": "1ea95154-365f-4f39-96bc-107e4276e2dc",
        "meta": {
          "profile": [
            "http://hl7.eu/fhir/laboratory/StructureDefinition/Observation-resultslab-eu-lab"
          ]
        },
        "performer": [
          {
            "display": "The Central European Lab"
          }
        ],
        "category": [
          {
            "coding": [
              {
                "system": "http://terminology.hl7.org/CodeSystem/observation-category",
                "code": "laboratory"
              }
            ]
          }
        ],
        "code": {
          "coding": [
            {
              "code": "18262-6",
              "system": "http://loinc.org",
              "display": "Cholesterol in LDL [Mass/volume] in Serum or Plasma by Direct assay"
            }
          ],
          "text": "Cholesterol in LDL [Mass/volume] in Serum or Plasma by Direct assay"
        },
        "valueQuantity": {
          "system": "http://unitsofmeasure.org",
          "value": 117.9,
          "unit": "mg/dL",
          "code": "mg/dL"
        },
        "referenceRange": [
          {
            "low": {
              "value": 0,
              "code": "mg/dL",
              "system": "http://unitsofmeasure.org"
            }
          },
          {
            "high": {
              "value": 130,
              "code": "mg/dL",
              "system": "http://unitsofmeasure.org"
            }
          }
        ],
        "text": {
          "status": "generated",
          "div": "<div xmlns=\"http://www.w3.org/1999/xhtml\"><table class=\"hl7__eu__lab__report\"><tr><th>Test</th><th>15-Nov-2024</th><th>Reference&#xA0;Range</th><th>Unit</th></tr><tr><td>Cholesterol in LDL [Mass/volume] in Serum or Plasma by Direct assay</td><td>117.9</td><td>0 - 130</td><td></td><td>mg/dL</td></tr></table></div>"
        },
        "status": "final",
        "subject": {
          "reference": "urn:uuid:3bd0b406-ddc3-4561-bff9-f7de347aa7a8",
          "display": "Elias Höfig"
        },
        "effectiveDateTime": "2024-11-15T09:47:46Z",
        "specimen": {
          "reference": "urn:uuid:04b95468-2c0a-4b62-a6f6-35426e67d685"
        }
      }
    },
    {
      "fullUrl": "urn:uuid:a6493880-78be-48dd-98c3-7dca8b4b0ef4",
      "resource": {
        "resourceType": "Observation",
        "id": "a6493880-78be-48dd-98c3-7dca8b4b0ef4",
        "meta": {
          "profile": [
            "http://hl7.eu/fhir/laboratory/StructureDefinition/Observation-resultslab-eu-lab"
          ]
        },
        "performer": [
          {
            "display": "The Central European Lab"
          }
        ],
        "category": [
          {
            "coding": [
              {
                "system": "http://terminology.hl7.org/CodeSystem/observation-category",
                "code": "laboratory"
              }
            ]
          }
        ],
        "code": {
          "coding": [
            {
              "code": "2085-9",
              "system": "http://loinc.org",
              "display": "Cholesterol in HDL [Mass/volume] in Serum or Plasma"
            }
          ],
          "text": "Cholesterol in HDL [Mass/volume] in Serum or Plasma"
        },
        "valueQuantity": {
          "system": "http://unitsofmeasure.org",
          "value": 58.4,
          "unit": "mg/dL",
          "code": "mg/dL"
        },
        "referenceRange": [
          {
            "low": {
              "value": 40,
              "code": "mg/dL",
              "system": "http://unitsofmeasure.org"
            }
          },
          {
            "high": {
              "value": 60,
              "code": "mg/dL",
              "system": "http://unitsofmeasure.org"
            }
          }
        ],
        "text": {
          "status": "generated",
          "div": "<div xmlns=\"http://www.w3.org/1999/xhtml\"><table class=\"hl7__eu__lab__report\"><tr><th>Test</th><th>15-Nov-2024</th><th>Reference&#xA0;Range</th><th>Unit</th></tr><tr><td>Cholesterol in HDL [Mass/volume] in Serum or Plasma</td><td>58.4</td><td>40 - 60</td><td></td><td>mg/dL</td></tr></table></div>"
        },
        "status": "final",
        "subject": {
          "reference": "urn:uuid:3bd0b406-ddc3-4561-bff9-f7de347aa7a8",
          "display": "Elias Höfig"
        },
        "effectiveDateTime": "2024-11-15T09:47:46Z",
        "specimen": {
          "reference": "urn:uuid:04b95468-2c0a-4b62-a6f6-35426e67d685"
        }
      }
    },
    {
      "fullUrl": "urn:uuid:3443b8da-8c2a-476b-97b2-6cb01d02252a",
      "resource": {
        "resourceType": "Device",
        "id": "3443b8da-8c2a-476b-97b2-6cb01d02252a",
        "deviceName": [
          {
            "name": "SYNDERAI Synthetic Generator",
            "type": "manufacturer-name"
          }
        ],
        "version": [
          {
            "value": "5.0"
          }
        ],
        "text": {
          "status": "generated",
          "div": "<div xmlns=\"http://www.w3.org/1999/xhtml\">SYNDERAI Synthetic Generator v5.0</div>"
        },
        "status": "active\"",
        "distinctIdentifier": "synderai-generator-50",
        "manufacturer": "SYNDERAI Project"
      }
    },
    {
      "fullUrl": "urn:uuid:c75774e3-0261-4a33-8bb0-3c4d3abee2a8",
      "resource": {
        "resourceType": "Provenance",
        "id": "c75774e3-0261-4a33-8bb0-3c4d3abee2a8",
        "target": [
          {
            "reference": "Patient/3bd0b406-ddc3-4561-bff9-f7de347aa7a8"
          },
          {
            "reference": "Bundle/fcd06009-3a33-4e4e-acbe-9589a6300308"
          },
          {
            "reference": "Composition/29f1dd91-32ef-4a99-a7aa-b805f6c982fd"
          },
          {
            "reference": "PractitionerRole/e8c7024a-5b8b-4a09-b58e-4eda4f11f138"
          },
          {
            "reference": "Practitioner/fafcce1c-38d6-458b-9e48-1eec1d2f7f0a"
          },
          {
            "reference": "PractitionerRole/b6795c7e-5abf-4313-92f0-9a025a82d510"
          },
          {
            "reference": "Organization/51b0307b-861a-49bd-829b-f03806b530c7"
          }
        ],
        "activity": {
          "text": "Synthetic Example Data Generation"
        },
        "policy": [
          "https://synderai.net/synderai-synthetic-data-policy"
        ],
        "agent": [
          {
            "type": {
              "text": "author"
            },
            "who": {
              "reference": "Device/3443b8da-8c2a-476b-97b2-6cb01d02252a"
            }
          }
        ],
        "reason": [
          {
            "text": "Interoperability Testing and Training (non-clinical use)"
          }
        ],
        "text": {
          "status": "generated",
          "div": "<div xmlns=\"http://www.w3.org/1999/xhtml\">Provenance for SYNDERAI Synthetic Example Data Resource</div>"
        },
        "recorded": "2024-11-15T10:47:46Z"
      }
    },
    {
      "fullUrl": "urn:uuid:e8c7024a-5b8b-4a09-b58e-4eda4f11f138",
      "resource": {
        "resourceType": "PractitionerRole",
        "id": "e8c7024a-5b8b-4a09-b58e-4eda4f11f138",
        "meta": {
          "profile": [
            "http://hl7.eu/fhir/base/StructureDefinition/practitionerRole-eu"
          ]
        },
        "text": {
          "status": "generated",
          "div": "<div xmlns=\"http://www.w3.org/1999/xhtml\">Laboratory Role Id: e8c7024a-5b8b-4a09-b58e-4eda4f11f138</div>"
        },
        "practitioner": {
          "reference": "urn:uuid:fafcce1c-38d6-458b-9e48-1eec1d2f7f0a"
        }
      }
    },
    {
      "fullUrl": "urn:uuid:fafcce1c-38d6-458b-9e48-1eec1d2f7f0a",
      "resource": {
        "resourceType": "Practitioner",
        "id": "fafcce1c-38d6-458b-9e48-1eec1d2f7f0a",
        "meta": {
          "profile": [
            "http://hl7.eu/fhir/base/StructureDefinition/practitioner-eu"
          ]
        },
        "identifier": [
          {
            "assigner": {
              "display": "HL7 Europe"
            },
            "system": "urn:oid:2.16.840.1.113883.2.51.999",
            "value": "8fa39832-4892-45dc-9f9f-a28691a9920f"
          }
        ],
        "name": [
          {
            "prefix": [
              "dr"
            ],
            "given": [
              "Ex"
            ],
            "family": "Ample"
          }
        ],
        "address": [
          {
            "line": [
              "Laboratoire Central Européenne",
              "Boulevard du Jardin Botanique 32"
            ],
            "postalCode": "1000",
            "city": "Brussels",
            "country": "Belgium"
          }
        ],
        "text": {
          "status": "generated",
          "div": "<div xmlns=\"http://www.w3.org/1999/xhtml\">Laboratory: Laboratoire Central Européenne, 1000 Brussels, Belgium</div>"
        }
      }
    }
  ],
  "type": "document",
  "timestamp": "2024-11-15T10:47:46Z"
}
