{
  "resourceType": "Bundle",
  "id": "1173668c-55ca-4e0f-a371-a8b60ff12e23",
  "meta": {
    "profile": [
      "http://hl7.eu/fhir/laboratory/StructureDefinition/Bundle-eu-lab"
    ]
  },
  "identifier": {
    "assigner": {
      "display": "HL7 Europe"
    },
    "system": "urn:oid:2.16.840.1.113883.2.51.999",
    "value": "b9de60eb-61c6-40ab-b256-f66b6e6e996e"
  },
  "entry": [
    {
      "fullUrl": "urn:uuid:772175fd-be93-4e37-a3b7-3116efeb7dc4",
      "resource": {
        "resourceType": "Composition",
        "id": "772175fd-be93-4e37-a3b7-3116efeb7dc4",
        "meta": {
          "profile": [
            "http://hl7.eu/fhir/laboratory/StructureDefinition/Composition-eu-lab"
          ]
        },
        "identifier": {
          "assigner": {
            "display": "HL7 Europe"
          },
          "system": "urn:oid:2.16.840.1.113883.2.51.999",
          "value": "c9584f43-0629-4460-bdcd-9e4a91d43792"
        },
        "author": [
          {
            "reference": "urn:uuid:dd76f6f9-6c43-42df-a073-e6a9e6195c9f"
          }
        ],
        "category": [
          {
            "coding": [
              {
                "code": "26436-6",
                "system": "http://loinc.org",
                "display": "Laboratory studies (set)"
              }
            ]
          }
        ],
        "type": {
          "coding": [
            {
              "code": "11502-2",
              "system": "http://loinc.org",
              "display": "Laboratory report"
            }
          ],
          "text": "Laboratory Report"
        },
        "section": [
          {
            "code": {
              "coding": [
                {
                  "code": "26436-6",
                  "system": "http://loinc.org",
                  "display": "Laboratory studies (set)"
                }
              ],
              "text": "Laboratory studies"
            },
            "section": [
              {
                "code": {
                  "coding": [
                    {
                      "code": "$18719-5",
                      "system": "http://loinc.org",
                      "display": "Chemistry studies (set)"
                    }
                  ],
                  "text": "Chemistry"
                },
                "entry": [
                  {
                    "reference": "urn:uuid:8d0e3a12-489b-40be-bb5b-d8debe7a4148"
                  },
                  {
                    "reference": "urn:uuid:7fd5de82-7490-422a-aa6e-a93356914db6"
                  },
                  {
                    "reference": "urn:uuid:ed6be836-839f-4bc3-b8a7-a381326cefe0"
                  },
                  {
                    "reference": "urn:uuid:7c57b3a1-9e2e-455b-b720-c5054d6d1963"
                  },
                  {
                    "reference": "urn:uuid:59ff54f6-9953-4ba7-b67f-943f1f803ae5"
                  },
                  {
                    "reference": "urn:uuid:c50ed39c-bf85-4242-8d7e-4eb38f38376b"
                  },
                  {
                    "reference": "urn:uuid:172cd458-580c-4bb0-8beb-8e027b56f91f"
                  },
                  {
                    "reference": "urn:uuid:dccb314e-a379-46ee-b86e-c63bdbd10b0b"
                  },
                  {
                    "reference": "urn:uuid:d4d8a778-e79f-48e0-b7e6-ceb2899fe79e"
                  }
                ],
                "text": {
                  "status": "generated",
                  "div": "<div xmlns=\"http://www.w3.org/1999/xhtml\"><h3>Chemistry</h3><table class=\"hl7__eu__lab__report\"><thead><tr><th>Test</th><th>12-MAY-2020</th><th>Reference&#xA0;Range</th><th>Unit</th></tr></thead><tbody><tr><td>Hemoglobin A1c/Hemoglobin.total in Blood</td><td>5.8</td><td>4.5 - 6.4</td><td>%</td></tr><tr><td>Glucose [Mass/volume] in Blood</td><td>73.7</td><td>70 - 140</td><td>mg/dL</td></tr><tr><td>Urea nitrogen [Mass/volume] in Blood</td><td>19.7</td><td>7 - 43</td><td>mg/dL</td></tr><tr><td>Creatinine [Mass/volume] in Blood</td><td>0.7</td><td>0.7 - 1.1</td><td>mg/dL</td></tr><tr><td>Calcium [Mass/volume] in Blood</td><td>9.3</td><td>8.5 - 10.4</td><td>mg/dL</td></tr><tr><td>Sodium [Moles/volume] in Blood</td><td>142.8</td><td>135 - 145</td><td>mmol/L</td></tr><tr><td>Potassium [Moles/volume] in Blood</td><td>4.1</td><td>3.5 - 5.1</td><td>mmol/L</td></tr><tr><td>Chloride [Moles/volume] in Blood</td><td>101.6</td><td>98 - 107</td><td>mmol/L</td></tr><tr><td>Carbon dioxide, total [Moles/volume] in Blood</td><td>26.8</td><td>22 - 32</td><td>mmol/L</td></tr></tbody></table></div>"
                },
                "title": "Chemistry"
              }
            ],
            "title": "Laboratory Report"
          },
          {
            "text": {
              "status": "generated",
              "div": "<div xmlns=\"http://www.w3.org/1999/xhtml\"><h3>Annotation</h3><table class=\"hl7__eu__lab__report\"><tr><th>Conclusion and Recommendations based on this report and previous findings known to us</th></tr><tr><td>All measured laboratory values are within normal limits. Glycemic control (HbA1c, glucose) is adequate, and renal function (urea, creatinine), electrolytes, and calcium are normal. No laboratory evidence of acute or chronic metabolic, renal, or electrolyte disturbances at this time. Recommend continued routine monitoring.</td></tr></table></div>"
            },
            "code": {
              "coding": [
                {
                  "system": "http://loinc.org",
                  "code": "48767-8",
                  "display": "Annotation comment"
                }
              ]
            },
            "title": "Annotation comment"
          }
        ],
        "status": "final",
        "subject": {
          "reference": "urn:uuid:0a52c363-94b5-425c-b048-3ba520e048b4",
          "display": "Louise Köster"
        },
        "date": "2020-05-12T06:02:53Z",
        "title": "Laboratory Report",
        "confidentiality": "N"
      }
    },
    {
      "fullUrl": "urn:uuid:0944c704-009a-4594-9a15-d011f248dc30",
      "resource": {
        "resourceType": "DiagnosticReport",
        "id": "0944c704-009a-4594-9a15-d011f248dc30",
        "meta": {
          "profile": [
            "http://hl7.eu/fhir/laboratory/StructureDefinition/DiagnosticReport-eu-lab"
          ]
        },
        "identifier": [
          {
            "assigner": {
              "display": "HL7 Europe"
            },
            "system": "urn:oid:2.16.840.1.113883.2.51.999",
            "value": "973bea39-f3e7-48d0-a99b-7e3fe02246dc"
          }
        ],
        "extension": [
          {
            "url": "http://hl7.org/fhir/5.0/StructureDefinition/extension-DiagnosticReport.composition",
            "valueReference": {
              "reference": "urn:uuid:c9584f43-0629-4460-bdcd-9e4a91d43792"
            }
          }
        ],
        "category": [
          {
            "coding": [
              {
                "code": "26436-6",
                "system": "http://loinc.org",
                "display": "Laboratory studies (set)"
              }
            ]
          }
        ],
        "specimen": [
          {
            "reference": "urn:uuid:69a5a64d-7212-4926-9fe7-72c724bfd904"
          }
        ],
        "result": [
          {
            "reference": "urn:uuid:8d0e3a12-489b-40be-bb5b-d8debe7a4148"
          },
          {
            "reference": "urn:uuid:7fd5de82-7490-422a-aa6e-a93356914db6"
          },
          {
            "reference": "urn:uuid:ed6be836-839f-4bc3-b8a7-a381326cefe0"
          },
          {
            "reference": "urn:uuid:7c57b3a1-9e2e-455b-b720-c5054d6d1963"
          },
          {
            "reference": "urn:uuid:59ff54f6-9953-4ba7-b67f-943f1f803ae5"
          },
          {
            "reference": "urn:uuid:c50ed39c-bf85-4242-8d7e-4eb38f38376b"
          },
          {
            "reference": "urn:uuid:172cd458-580c-4bb0-8beb-8e027b56f91f"
          },
          {
            "reference": "urn:uuid:dccb314e-a379-46ee-b86e-c63bdbd10b0b"
          },
          {
            "reference": "urn:uuid:d4d8a778-e79f-48e0-b7e6-ceb2899fe79e"
          }
        ],
        "status": "registered",
        "code": {
          "coding": [
            {
              "code": "11502-2",
              "system": "http://loinc.org",
              "display": "Laboratory report"
            }
          ]
        },
        "subject": {
          "reference": "urn:uuid:0a52c363-94b5-425c-b048-3ba520e048b4",
          "display": "Louise Köster"
        }
      }
    },
    {
      "fullUrl": "urn:uuid:0a52c363-94b5-425c-b048-3ba520e048b4",
      "resource": {
        "resourceType": "Patient",
        "id": "0a52c363-94b5-425c-b048-3ba520e048b4",
        "meta": {
          "security": [
            {
              "system": "http://terminology.hl7.org/CodeSystem/v3-ActReason",
              "code": "HTEST"
            },
            {
              "system": "http://terminology.hl7.org/CodeSystem/v3-ActReason",
              "code": "TRAIN"
            }
          ],
          "tag": [
            {
              "system": "https://synderai.net/fhir/CodeSystem/tags",
              "code": "synthetic",
              "display": "SYNDERAI Synthetic data"
            }
          ],
          "profile": [
            "http://hl7.eu/fhir/base/StructureDefinition/patient-eu-core"
          ]
        },
        "identifier": [
          {
            "type": {
              "coding": [
                {
                  "code": "PT",
                  "system": "http://terminology.hl7.org/CodeSystem/v2-0203"
                }
              ]
            },
            "system": "http://ec.europa.eu/identifier/eci",
            "value": "1053-167357-1"
          },
          {
            "type": {
              "coding": [
                {
                  "code": "MR",
                  "system": "http://terminology.hl7.org/CodeSystem/v2-0203"
                }
              ]
            },
            "system": "http://local.setting.eu/identifier",
            "value": "706b1a23-528f-0ed7-639f-1dc54e8ecc5d"
          }
        ],
        "name": [
          {
            "family": "Köster"
          },
          {
            "given": [
              "Louise"
            ]
          },
          {
            "text": "Louise Köster"
          }
        ],
        "address": [
          {
            "line": [
              "Regina-Butte-Ring 737"
            ],
            "use": "home",
            "type": "physical",
            "postalCode": "88348",
            "city": "Saulgau",
            "country": "Germany"
          }
        ],
        "telecom": [
          {
            "system": "phone",
            "value": "+49(0)2075293938"
          }
        ],
        "extension": [
          {
            "url": "http://hl7.org/fhir/StructureDefinition/patient-nationality",
            "valueCodeableConcept": {
              "coding": [
                {
                  "code": "DE",
                  "system": "http://hl7.org/fhir/ValueSet/country"
                }
              ]
            }
          }
        ],
        "text": {
          "status": "generated",
          "div": "<div xmlns=\"http://www.w3.org/1999/xhtml\"><table class=\"hl7__ips\"><tr><td>Louise Köster</td><td>female</td><td>01-Jul-1957</td></tr></table></div>"
        },
        "gender": "female",
        "birthDate": "1957-07-01"
      }
    },
    {
      "fullUrl": "urn:uuid:6c2e989a-ff11-4bc2-9c70-38fbe8bbb202",
      "resource": {
        "resourceType": "ServiceRequest",
        "id": "6c2e989a-ff11-4bc2-9c70-38fbe8bbb202",
        "meta": {
          "profile": [
            "http://hl7.eu/fhir/laboratory/StructureDefinition/ServiceRequest-eu-lab"
          ]
        },
        "identifier": [
          {
            "system": "http://example.org",
            "value": "035083ed-6b9b-47f7-94f0-76b2ddf3e920"
          }
        ],
        "specimen": [
          {
            "reference": "urn:uuid:69a5a64d-7212-4926-9fe7-72c724bfd904"
          }
        ],
        "reasonCode": [
          {
            "coding": [
              {
                "code": "15777000",
                "system": "http://snomed.info/sct",
                "display": "Prediabetes"
              }
            ]
          },
          {
            "coding": [
              {
                "code": "237602007",
                "system": "http://snomed.info/sct",
                "display": "Metabolic syndrome X"
              }
            ]
          },
          {
            "coding": [
              {
                "code": "414545008",
                "system": "http://snomed.info/sct",
                "display": "Ischemic heart disease"
              }
            ]
          },
          {
            "coding": [
              {
                "code": "59621000",
                "system": "http://snomed.info/sct",
                "display": "Essential hypertension"
              }
            ]
          }
        ],
        "status": "active",
        "intent": "order",
        "code": {
          "coding": [
            {
              "code": "108252007",
              "system": "http://snomed.info/sct",
              "display": "Laboratory procedure"
            }
          ]
        },
        "subject": {
          "reference": "urn:uuid:0a52c363-94b5-425c-b048-3ba520e048b4",
          "display": "Louise Köster"
        },
        "requester": {
          "reference": "urn:uuid:3953c7c8-b193-467b-85c2-c7dfd94cf5b4"
        }
      }
    },
    {
      "fullUrl": "urn:uuid:3953c7c8-b193-467b-85c2-c7dfd94cf5b4",
      "resource": {
        "resourceType": "PractitionerRole",
        "id": "3953c7c8-b193-467b-85c2-c7dfd94cf5b4",
        "meta": {
          "profile": [
            "http://hl7.eu/fhir/base/StructureDefinition/practitionerRole-eu"
          ]
        },
        "text": {
          "status": "generated",
          "div": "<div xmlns=\"http://www.w3.org/1999/xhtml\">Provider Role Id: 3953c7c8-b193-467b-85c2-c7dfd94cf5b4</div>"
        },
        "organization": {
          "reference": "urn:uuid:a5ba40fd-5ec7-4307-8a35-d5a0bd081052"
        }
      }
    },
    {
      "fullUrl": "urn:uuid:a5ba40fd-5ec7-4307-8a35-d5a0bd081052",
      "resource": {
        "resourceType": "Organization",
        "id": "a5ba40fd-5ec7-4307-8a35-d5a0bd081052",
        "meta": {
          "profile": [
            "http://hl7.eu/fhir/base/StructureDefinition/organization-eu"
          ]
        },
        "identifier": [
          {
            "assigner": {
              "display": "HL7 Europe"
            },
            "system": "urn:oid:2.16.840.1.113883.2.51.999",
            "value": "6ff12cca-63f8-4bd2-b6d1-22aa9ff74dd2"
          }
        ],
        "address": [
          {
            "line": [
              "Am Schönen Moos 7"
            ],
            "city": "Bad Saulgau",
            "postalCode": "88348",
            "country": "Germany"
          }
        ],
        "text": {
          "status": "generated",
          "div": "<div xmlns=\"http://www.w3.org/1999/xhtml\">Provider Organization: Klinik am schönen Moos</div>"
        },
        "name": "Klinik am schönen Moos"
      }
    },
    {
      "fullUrl": "urn:uuid:69a5a64d-7212-4926-9fe7-72c724bfd904",
      "resource": {
        "resourceType": "Specimen",
        "id": "69a5a64d-7212-4926-9fe7-72c724bfd904",
        "meta": {
          "profile": [
            "http://hl7.eu/fhir/laboratory/StructureDefinition/Specimen-eu-lab"
          ]
        },
        "collection": {
          "collectedDateTime": "2020-05-12"
        },
        "text": {
          "status": "generated",
          "div": "<div xmlns=\"http://www.w3.org/1999/xhtml\"><table class=\"hl7__eu__lab__report\"><tr><th>Specimen</th><th>Collection Date</th></tr><tr><td>Whole blood specimen (specimen)</td><td><span class=\"nb\">12-May-2020</span></td></tr></table></div>"
        },
        "type": {
          "coding": [
            {
              "code": "258580003",
              "system": "http://snomed.info/sct",
              "display": "Whole blood specimen (specimen)"
            }
          ]
        }
      }
    },
    {
      "fullUrl": "urn:uuid:8d0e3a12-489b-40be-bb5b-d8debe7a4148",
      "resource": {
        "resourceType": "Observation",
        "id": "8d0e3a12-489b-40be-bb5b-d8debe7a4148",
        "meta": {
          "profile": [
            "http://hl7.eu/fhir/laboratory/StructureDefinition/Observation-resultslab-eu-lab"
          ]
        },
        "performer": [
          {
            "display": "The Central European Lab"
          }
        ],
        "category": [
          {
            "coding": [
              {
                "system": "http://terminology.hl7.org/CodeSystem/observation-category",
                "code": "laboratory"
              }
            ]
          }
        ],
        "code": {
          "coding": [
            {
              "code": "4548-4",
              "system": "http://loinc.org",
              "display": "Hemoglobin A1c/Hemoglobin.total in Blood"
            }
          ],
          "text": "Hemoglobin A1c/Hemoglobin.total in Blood"
        },
        "valueQuantity": {
          "system": "http://unitsofmeasure.org",
          "value": 5.8,
          "unit": "%",
          "code": "%"
        },
        "referenceRange": [
          {
            "low": {
              "value": 4.5,
              "code": "%",
              "system": "http://unitsofmeasure.org"
            }
          },
          {
            "high": {
              "value": 6.4,
              "code": "%",
              "system": "http://unitsofmeasure.org"
            }
          }
        ],
        "text": {
          "status": "generated",
          "div": "<div xmlns=\"http://www.w3.org/1999/xhtml\"><table class=\"hl7__eu__lab__report\"><tr><th>Test</th><th>12-May-2020</th><th>Reference&#xA0;Range</th><th>Unit</th></tr><tr><td>Hemoglobin A1c/Hemoglobin.total in Blood</td><td>5.8</td><td>4.5 - 6.4</td><td></td><td>%</td></tr></table></div>"
        },
        "status": "final",
        "subject": {
          "reference": "urn:uuid:0a52c363-94b5-425c-b048-3ba520e048b4",
          "display": "Louise Köster"
        },
        "effectiveDateTime": "2020-05-12T04:02:53Z",
        "specimen": {
          "reference": "urn:uuid:69a5a64d-7212-4926-9fe7-72c724bfd904"
        }
      }
    },
    {
      "fullUrl": "urn:uuid:7fd5de82-7490-422a-aa6e-a93356914db6",
      "resource": {
        "resourceType": "Observation",
        "id": "7fd5de82-7490-422a-aa6e-a93356914db6",
        "meta": {
          "profile": [
            "http://hl7.eu/fhir/laboratory/StructureDefinition/Observation-resultslab-eu-lab"
          ]
        },
        "performer": [
          {
            "display": "The Central European Lab"
          }
        ],
        "category": [
          {
            "coding": [
              {
                "system": "http://terminology.hl7.org/CodeSystem/observation-category",
                "code": "laboratory"
              }
            ]
          }
        ],
        "code": {
          "coding": [
            {
              "code": "2339-0",
              "system": "http://loinc.org",
              "display": "Glucose [Mass/volume] in Blood"
            }
          ],
          "text": "Glucose [Mass/volume] in Blood"
        },
        "valueQuantity": {
          "system": "http://unitsofmeasure.org",
          "value": 73.7,
          "unit": "mg/dL",
          "code": "mg/dL"
        },
        "referenceRange": [
          {
            "low": {
              "value": 70,
              "code": "mg/dL",
              "system": "http://unitsofmeasure.org"
            }
          },
          {
            "high": {
              "value": 140,
              "code": "mg/dL",
              "system": "http://unitsofmeasure.org"
            }
          }
        ],
        "text": {
          "status": "generated",
          "div": "<div xmlns=\"http://www.w3.org/1999/xhtml\"><table class=\"hl7__eu__lab__report\"><tr><th>Test</th><th>12-May-2020</th><th>Reference&#xA0;Range</th><th>Unit</th></tr><tr><td>Glucose [Mass/volume] in Blood</td><td>73.7</td><td>70 - 140</td><td></td><td>mg/dL</td></tr></table></div>"
        },
        "status": "final",
        "subject": {
          "reference": "urn:uuid:0a52c363-94b5-425c-b048-3ba520e048b4",
          "display": "Louise Köster"
        },
        "effectiveDateTime": "2020-05-12T04:02:53Z",
        "specimen": {
          "reference": "urn:uuid:69a5a64d-7212-4926-9fe7-72c724bfd904"
        }
      }
    },
    {
      "fullUrl": "urn:uuid:ed6be836-839f-4bc3-b8a7-a381326cefe0",
      "resource": {
        "resourceType": "Observation",
        "id": "ed6be836-839f-4bc3-b8a7-a381326cefe0",
        "meta": {
          "profile": [
            "http://hl7.eu/fhir/laboratory/StructureDefinition/Observation-resultslab-eu-lab"
          ]
        },
        "performer": [
          {
            "display": "The Central European Lab"
          }
        ],
        "category": [
          {
            "coding": [
              {
                "system": "http://terminology.hl7.org/CodeSystem/observation-category",
                "code": "laboratory"
              }
            ]
          }
        ],
        "code": {
          "coding": [
            {
              "code": "6299-2",
              "system": "http://loinc.org",
              "display": "Urea nitrogen [Mass/volume] in Blood"
            }
          ],
          "text": "Urea nitrogen [Mass/volume] in Blood"
        },
        "valueQuantity": {
          "system": "http://unitsofmeasure.org",
          "value": 19.7,
          "unit": "mg/dL",
          "code": "mg/dL"
        },
        "referenceRange": [
          {
            "low": {
              "value": 7,
              "code": "mg/dL",
              "system": "http://unitsofmeasure.org"
            }
          },
          {
            "high": {
              "value": 43,
              "code": "mg/dL",
              "system": "http://unitsofmeasure.org"
            }
          }
        ],
        "text": {
          "status": "generated",
          "div": "<div xmlns=\"http://www.w3.org/1999/xhtml\"><table class=\"hl7__eu__lab__report\"><tr><th>Test</th><th>12-May-2020</th><th>Reference&#xA0;Range</th><th>Unit</th></tr><tr><td>Urea nitrogen [Mass/volume] in Blood</td><td>19.7</td><td>7 - 43</td><td></td><td>mg/dL</td></tr></table></div>"
        },
        "status": "final",
        "subject": {
          "reference": "urn:uuid:0a52c363-94b5-425c-b048-3ba520e048b4",
          "display": "Louise Köster"
        },
        "effectiveDateTime": "2020-05-12T04:02:53Z",
        "specimen": {
          "reference": "urn:uuid:69a5a64d-7212-4926-9fe7-72c724bfd904"
        }
      }
    },
    {
      "fullUrl": "urn:uuid:7c57b3a1-9e2e-455b-b720-c5054d6d1963",
      "resource": {
        "resourceType": "Observation",
        "id": "7c57b3a1-9e2e-455b-b720-c5054d6d1963",
        "meta": {
          "profile": [
            "http://hl7.eu/fhir/laboratory/StructureDefinition/Observation-resultslab-eu-lab"
          ]
        },
        "performer": [
          {
            "display": "The Central European Lab"
          }
        ],
        "category": [
          {
            "coding": [
              {
                "system": "http://terminology.hl7.org/CodeSystem/observation-category",
                "code": "laboratory"
              }
            ]
          }
        ],
        "code": {
          "coding": [
            {
              "code": "38483-4",
              "system": "http://loinc.org",
              "display": "Creatinine [Mass/volume] in Blood"
            }
          ],
          "text": "Creatinine [Mass/volume] in Blood"
        },
        "valueQuantity": {
          "system": "http://unitsofmeasure.org",
          "value": 0.7,
          "unit": "mg/dL",
          "code": "mg/dL"
        },
        "referenceRange": [
          {
            "low": {
              "value": 0.7,
              "code": "mg/dL",
              "system": "http://unitsofmeasure.org"
            }
          },
          {
            "high": {
              "value": 1.1,
              "code": "mg/dL",
              "system": "http://unitsofmeasure.org"
            }
          }
        ],
        "text": {
          "status": "generated",
          "div": "<div xmlns=\"http://www.w3.org/1999/xhtml\"><table class=\"hl7__eu__lab__report\"><tr><th>Test</th><th>12-May-2020</th><th>Reference&#xA0;Range</th><th>Unit</th></tr><tr><td>Creatinine [Mass/volume] in Blood</td><td>0.7</td><td>0.7 - 1.1</td><td></td><td>mg/dL</td></tr></table></div>"
        },
        "status": "final",
        "subject": {
          "reference": "urn:uuid:0a52c363-94b5-425c-b048-3ba520e048b4",
          "display": "Louise Köster"
        },
        "effectiveDateTime": "2020-05-12T04:02:53Z",
        "specimen": {
          "reference": "urn:uuid:69a5a64d-7212-4926-9fe7-72c724bfd904"
        }
      }
    },
    {
      "fullUrl": "urn:uuid:59ff54f6-9953-4ba7-b67f-943f1f803ae5",
      "resource": {
        "resourceType": "Observation",
        "id": "59ff54f6-9953-4ba7-b67f-943f1f803ae5",
        "meta": {
          "profile": [
            "http://hl7.eu/fhir/laboratory/StructureDefinition/Observation-resultslab-eu-lab"
          ]
        },
        "performer": [
          {
            "display": "The Central European Lab"
          }
        ],
        "category": [
          {
            "coding": [
              {
                "system": "http://terminology.hl7.org/CodeSystem/observation-category",
                "code": "laboratory"
              }
            ]
          }
        ],
        "code": {
          "coding": [
            {
              "code": "49765-1",
              "system": "http://loinc.org",
              "display": "Calcium [Mass/volume] in Blood"
            }
          ],
          "text": "Calcium [Mass/volume] in Blood"
        },
        "valueQuantity": {
          "system": "http://unitsofmeasure.org",
          "value": 9.3,
          "unit": "mg/dL",
          "code": "mg/dL"
        },
        "referenceRange": [
          {
            "low": {
              "value": 8.5,
              "code": "mg/dL",
              "system": "http://unitsofmeasure.org"
            }
          },
          {
            "high": {
              "value": 10.4,
              "code": "mg/dL",
              "system": "http://unitsofmeasure.org"
            }
          }
        ],
        "text": {
          "status": "generated",
          "div": "<div xmlns=\"http://www.w3.org/1999/xhtml\"><table class=\"hl7__eu__lab__report\"><tr><th>Test</th><th>12-May-2020</th><th>Reference&#xA0;Range</th><th>Unit</th></tr><tr><td>Calcium [Mass/volume] in Blood</td><td>9.3</td><td>8.5 - 10.4</td><td></td><td>mg/dL</td></tr></table></div>"
        },
        "status": "final",
        "subject": {
          "reference": "urn:uuid:0a52c363-94b5-425c-b048-3ba520e048b4",
          "display": "Louise Köster"
        },
        "effectiveDateTime": "2020-05-12T04:02:53Z",
        "specimen": {
          "reference": "urn:uuid:69a5a64d-7212-4926-9fe7-72c724bfd904"
        }
      }
    },
    {
      "fullUrl": "urn:uuid:c50ed39c-bf85-4242-8d7e-4eb38f38376b",
      "resource": {
        "resourceType": "Observation",
        "id": "c50ed39c-bf85-4242-8d7e-4eb38f38376b",
        "meta": {
          "profile": [
            "http://hl7.eu/fhir/laboratory/StructureDefinition/Observation-resultslab-eu-lab"
          ]
        },
        "performer": [
          {
            "display": "The Central European Lab"
          }
        ],
        "category": [
          {
            "coding": [
              {
                "system": "http://terminology.hl7.org/CodeSystem/observation-category",
                "code": "laboratory"
              }
            ]
          }
        ],
        "code": {
          "coding": [
            {
              "code": "2947-0",
              "system": "http://loinc.org",
              "display": "Sodium [Moles/volume] in Blood"
            }
          ],
          "text": "Sodium [Moles/volume] in Blood"
        },
        "valueQuantity": {
          "system": "http://unitsofmeasure.org",
          "value": 142.8,
          "unit": "mmol/L",
          "code": "mmol/L"
        },
        "referenceRange": [
          {
            "low": {
              "value": 135,
              "code": "mmol/L",
              "system": "http://unitsofmeasure.org"
            }
          },
          {
            "high": {
              "value": 145,
              "code": "mmol/L",
              "system": "http://unitsofmeasure.org"
            }
          }
        ],
        "text": {
          "status": "generated",
          "div": "<div xmlns=\"http://www.w3.org/1999/xhtml\"><table class=\"hl7__eu__lab__report\"><tr><th>Test</th><th>12-May-2020</th><th>Reference&#xA0;Range</th><th>Unit</th></tr><tr><td>Sodium [Moles/volume] in Blood</td><td>142.8</td><td>135 - 145</td><td></td><td>mmol/L</td></tr></table></div>"
        },
        "status": "final",
        "subject": {
          "reference": "urn:uuid:0a52c363-94b5-425c-b048-3ba520e048b4",
          "display": "Louise Köster"
        },
        "effectiveDateTime": "2020-05-12T04:02:53Z",
        "specimen": {
          "reference": "urn:uuid:69a5a64d-7212-4926-9fe7-72c724bfd904"
        }
      }
    },
    {
      "fullUrl": "urn:uuid:172cd458-580c-4bb0-8beb-8e027b56f91f",
      "resource": {
        "resourceType": "Observation",
        "id": "172cd458-580c-4bb0-8beb-8e027b56f91f",
        "meta": {
          "profile": [
            "http://hl7.eu/fhir/laboratory/StructureDefinition/Observation-resultslab-eu-lab"
          ]
        },
        "performer": [
          {
            "display": "The Central European Lab"
          }
        ],
        "category": [
          {
            "coding": [
              {
                "system": "http://terminology.hl7.org/CodeSystem/observation-category",
                "code": "laboratory"
              }
            ]
          }
        ],
        "code": {
          "coding": [
            {
              "code": "6298-4",
              "system": "http://loinc.org",
              "display": "Potassium [Moles/volume] in Blood"
            }
          ],
          "text": "Potassium [Moles/volume] in Blood"
        },
        "valueQuantity": {
          "system": "http://unitsofmeasure.org",
          "value": 4.1,
          "unit": "mmol/L",
          "code": "mmol/L"
        },
        "referenceRange": [
          {
            "low": {
              "value": 3.5,
              "code": "mmol/L",
              "system": "http://unitsofmeasure.org"
            }
          },
          {
            "high": {
              "value": 5.1,
              "code": "mmol/L",
              "system": "http://unitsofmeasure.org"
            }
          }
        ],
        "text": {
          "status": "generated",
          "div": "<div xmlns=\"http://www.w3.org/1999/xhtml\"><table class=\"hl7__eu__lab__report\"><tr><th>Test</th><th>12-May-2020</th><th>Reference&#xA0;Range</th><th>Unit</th></tr><tr><td>Potassium [Moles/volume] in Blood</td><td>4.1</td><td>3.5 - 5.1</td><td></td><td>mmol/L</td></tr></table></div>"
        },
        "status": "final",
        "subject": {
          "reference": "urn:uuid:0a52c363-94b5-425c-b048-3ba520e048b4",
          "display": "Louise Köster"
        },
        "effectiveDateTime": "2020-05-12T04:02:53Z",
        "specimen": {
          "reference": "urn:uuid:69a5a64d-7212-4926-9fe7-72c724bfd904"
        }
      }
    },
    {
      "fullUrl": "urn:uuid:dccb314e-a379-46ee-b86e-c63bdbd10b0b",
      "resource": {
        "resourceType": "Observation",
        "id": "dccb314e-a379-46ee-b86e-c63bdbd10b0b",
        "meta": {
          "profile": [
            "http://hl7.eu/fhir/laboratory/StructureDefinition/Observation-resultslab-eu-lab"
          ]
        },
        "performer": [
          {
            "display": "The Central European Lab"
          }
        ],
        "category": [
          {
            "coding": [
              {
                "system": "http://terminology.hl7.org/CodeSystem/observation-category",
                "code": "laboratory"
              }
            ]
          }
        ],
        "code": {
          "coding": [
            {
              "code": "2069-3",
              "system": "http://loinc.org",
              "display": "Chloride [Moles/volume] in Blood"
            }
          ],
          "text": "Chloride [Moles/volume] in Blood"
        },
        "valueQuantity": {
          "system": "http://unitsofmeasure.org",
          "value": 101.6,
          "unit": "mmol/L",
          "code": "mmol/L"
        },
        "referenceRange": [
          {
            "low": {
              "value": 98,
              "code": "mmol/L",
              "system": "http://unitsofmeasure.org"
            }
          },
          {
            "high": {
              "value": 107,
              "code": "mmol/L",
              "system": "http://unitsofmeasure.org"
            }
          }
        ],
        "text": {
          "status": "generated",
          "div": "<div xmlns=\"http://www.w3.org/1999/xhtml\"><table class=\"hl7__eu__lab__report\"><tr><th>Test</th><th>12-May-2020</th><th>Reference&#xA0;Range</th><th>Unit</th></tr><tr><td>Chloride [Moles/volume] in Blood</td><td>101.6</td><td>98 - 107</td><td></td><td>mmol/L</td></tr></table></div>"
        },
        "status": "final",
        "subject": {
          "reference": "urn:uuid:0a52c363-94b5-425c-b048-3ba520e048b4",
          "display": "Louise Köster"
        },
        "effectiveDateTime": "2020-05-12T04:02:53Z",
        "specimen": {
          "reference": "urn:uuid:69a5a64d-7212-4926-9fe7-72c724bfd904"
        }
      }
    },
    {
      "fullUrl": "urn:uuid:d4d8a778-e79f-48e0-b7e6-ceb2899fe79e",
      "resource": {
        "resourceType": "Observation",
        "id": "d4d8a778-e79f-48e0-b7e6-ceb2899fe79e",
        "meta": {
          "profile": [
            "http://hl7.eu/fhir/laboratory/StructureDefinition/Observation-resultslab-eu-lab"
          ]
        },
        "performer": [
          {
            "display": "The Central European Lab"
          }
        ],
        "category": [
          {
            "coding": [
              {
                "system": "http://terminology.hl7.org/CodeSystem/observation-category",
                "code": "laboratory"
              }
            ]
          }
        ],
        "code": {
          "coding": [
            {
              "code": "20565-8",
              "system": "http://loinc.org",
              "display": "Carbon dioxide, total [Moles/volume] in Blood"
            }
          ],
          "text": "Carbon dioxide, total [Moles/volume] in Blood"
        },
        "valueQuantity": {
          "system": "http://unitsofmeasure.org",
          "value": 26.8,
          "unit": "mmol/L",
          "code": "mmol/L"
        },
        "referenceRange": [
          {
            "low": {
              "value": 22,
              "code": "mmol/L",
              "system": "http://unitsofmeasure.org"
            }
          },
          {
            "high": {
              "value": 32,
              "code": "mmol/L",
              "system": "http://unitsofmeasure.org"
            }
          }
        ],
        "text": {
          "status": "generated",
          "div": "<div xmlns=\"http://www.w3.org/1999/xhtml\"><table class=\"hl7__eu__lab__report\"><tr><th>Test</th><th>12-May-2020</th><th>Reference&#xA0;Range</th><th>Unit</th></tr><tr><td>Carbon dioxide, total [Moles/volume] in Blood</td><td>26.8</td><td>22 - 32</td><td></td><td>mmol/L</td></tr></table></div>"
        },
        "status": "final",
        "subject": {
          "reference": "urn:uuid:0a52c363-94b5-425c-b048-3ba520e048b4",
          "display": "Louise Köster"
        },
        "effectiveDateTime": "2020-05-12T04:02:53Z",
        "specimen": {
          "reference": "urn:uuid:69a5a64d-7212-4926-9fe7-72c724bfd904"
        }
      }
    },
    {
      "fullUrl": "urn:uuid:41a1a037-ef80-46da-abc4-267e2474931a",
      "resource": {
        "resourceType": "Device",
        "id": "41a1a037-ef80-46da-abc4-267e2474931a",
        "deviceName": [
          {
            "name": "SYNDERAI Synthetic Generator",
            "type": "manufacturer-name"
          }
        ],
        "version": [
          {
            "value": "5.0"
          }
        ],
        "text": {
          "status": "generated",
          "div": "<div xmlns=\"http://www.w3.org/1999/xhtml\">SYNDERAI Synthetic Generator v5.0</div>"
        },
        "status": "active\"",
        "distinctIdentifier": "synderai-generator-50",
        "manufacturer": "SYNDERAI Project"
      }
    },
    {
      "fullUrl": "urn:uuid:5a1096e1-6b16-4005-9f62-1b5582d5a536",
      "resource": {
        "resourceType": "Provenance",
        "id": "5a1096e1-6b16-4005-9f62-1b5582d5a536",
        "target": [
          {
            "reference": "Patient/0a52c363-94b5-425c-b048-3ba520e048b4"
          },
          {
            "reference": "Bundle/1173668c-55ca-4e0f-a371-a8b60ff12e23"
          },
          {
            "reference": "Composition/772175fd-be93-4e37-a3b7-3116efeb7dc4"
          },
          {
            "reference": "PractitionerRole/dd76f6f9-6c43-42df-a073-e6a9e6195c9f"
          },
          {
            "reference": "Practitioner/207be1aa-d800-40fc-8972-3c1dabd6b83b"
          },
          {
            "reference": "PractitionerRole/3953c7c8-b193-467b-85c2-c7dfd94cf5b4"
          },
          {
            "reference": "Organization/a5ba40fd-5ec7-4307-8a35-d5a0bd081052"
          }
        ],
        "activity": {
          "text": "Synthetic Example Data Generation"
        },
        "policy": [
          "https://synderai.net/synderai-synthetic-data-policy"
        ],
        "agent": [
          {
            "type": {
              "text": "author"
            },
            "who": {
              "reference": "Device/41a1a037-ef80-46da-abc4-267e2474931a"
            }
          }
        ],
        "reason": [
          {
            "text": "Interoperability Testing and Training (non-clinical use)"
          }
        ],
        "text": {
          "status": "generated",
          "div": "<div xmlns=\"http://www.w3.org/1999/xhtml\">Provenance for SYNDERAI Synthetic Example Data Resource</div>"
        },
        "recorded": "2020-05-12T06:02:53Z"
      }
    },
    {
      "fullUrl": "urn:uuid:dd76f6f9-6c43-42df-a073-e6a9e6195c9f",
      "resource": {
        "resourceType": "PractitionerRole",
        "id": "dd76f6f9-6c43-42df-a073-e6a9e6195c9f",
        "meta": {
          "profile": [
            "http://hl7.eu/fhir/base/StructureDefinition/practitionerRole-eu"
          ]
        },
        "text": {
          "status": "generated",
          "div": "<div xmlns=\"http://www.w3.org/1999/xhtml\">Laboratory Role Id: dd76f6f9-6c43-42df-a073-e6a9e6195c9f</div>"
        },
        "practitioner": {
          "reference": "urn:uuid:207be1aa-d800-40fc-8972-3c1dabd6b83b"
        }
      }
    },
    {
      "fullUrl": "urn:uuid:207be1aa-d800-40fc-8972-3c1dabd6b83b",
      "resource": {
        "resourceType": "Practitioner",
        "id": "207be1aa-d800-40fc-8972-3c1dabd6b83b",
        "meta": {
          "profile": [
            "http://hl7.eu/fhir/base/StructureDefinition/practitioner-eu"
          ]
        },
        "identifier": [
          {
            "assigner": {
              "display": "HL7 Europe"
            },
            "system": "urn:oid:2.16.840.1.113883.2.51.999",
            "value": "de1c1d52-66b6-4b6f-b4a6-7ecf8dd908cf"
          }
        ],
        "name": [
          {
            "prefix": [
              "dr"
            ],
            "given": [
              "Ex"
            ],
            "family": "Ample"
          }
        ],
        "address": [
          {
            "line": [
              "Laboratoire Central Européenne",
              "Boulevard du Jardin Botanique 32"
            ],
            "postalCode": "1000",
            "city": "Brussels",
            "country": "Belgium"
          }
        ],
        "text": {
          "status": "generated",
          "div": "<div xmlns=\"http://www.w3.org/1999/xhtml\">Laboratory: Laboratoire Central Européenne, 1000 Brussels, Belgium</div>"
        }
      }
    }
  ],
  "type": "document",
  "timestamp": "2020-05-12T06:02:53Z"
}
