{
  "resourceType": "Bundle",
  "id": "3fd12b28-9f60-43d2-99b3-32a7705c80d3",
  "meta": {
    "profile": [
      "http://hl7.eu/fhir/laboratory/StructureDefinition/Bundle-eu-lab"
    ]
  },
  "identifier": {
    "assigner": {
      "display": "HL7 Europe"
    },
    "system": "urn:oid:2.16.840.1.113883.2.51.999",
    "value": "0ac61ade-bc4e-46d8-aec1-59fa8ef8f827"
  },
  "entry": [
    {
      "fullUrl": "urn:uuid:b4cc1aca-39f2-43c5-af1e-1581c2d59918",
      "resource": {
        "resourceType": "Composition",
        "id": "b4cc1aca-39f2-43c5-af1e-1581c2d59918",
        "meta": {
          "profile": [
            "http://hl7.eu/fhir/laboratory/StructureDefinition/Composition-eu-lab"
          ]
        },
        "identifier": {
          "assigner": {
            "display": "HL7 Europe"
          },
          "system": "urn:oid:2.16.840.1.113883.2.51.999",
          "value": "70bd7ec2-f090-4bba-96af-2c035ea052ad"
        },
        "author": [
          {
            "reference": "urn:uuid:9c52b593-56d3-408f-8556-a29516c6ad33"
          }
        ],
        "category": [
          {
            "coding": [
              {
                "code": "26436-6",
                "system": "http://loinc.org",
                "display": "Laboratory studies (set)"
              }
            ]
          }
        ],
        "type": {
          "coding": [
            {
              "code": "11502-2",
              "system": "http://loinc.org",
              "display": "Laboratory report"
            }
          ],
          "text": "Laboratory Report"
        },
        "section": [
          {
            "code": {
              "coding": [
                {
                  "code": "26436-6",
                  "system": "http://loinc.org",
                  "display": "Laboratory studies (set)"
                }
              ],
              "text": "Laboratory studies"
            },
            "section": [
              {
                "code": {
                  "coding": [
                    {
                      "code": "$18719-5",
                      "system": "http://loinc.org",
                      "display": "Chemistry studies (set)"
                    }
                  ],
                  "text": "Chemistry"
                },
                "entry": [
                  {
                    "reference": "urn:uuid:8fa66597-704a-4414-8c07-47c3b147828e"
                  },
                  {
                    "reference": "urn:uuid:e923e51f-16cf-4010-a315-798c68b50bcd"
                  },
                  {
                    "reference": "urn:uuid:0cfc93a9-bfc2-4225-97b2-294df4547368"
                  },
                  {
                    "reference": "urn:uuid:29789c52-e459-422b-9a1a-489727704445"
                  },
                  {
                    "reference": "urn:uuid:a311a724-9469-4dc0-ae60-600cafc6b547"
                  },
                  {
                    "reference": "urn:uuid:ac573cb2-8be6-47f4-a7d3-d7bb14b78cac"
                  },
                  {
                    "reference": "urn:uuid:9a2440de-ae7a-4d64-af63-55d3f04662af"
                  },
                  {
                    "reference": "urn:uuid:cb2b5959-191e-4699-b8a1-677e9c3190c1"
                  },
                  {
                    "reference": "urn:uuid:667ce19d-cd24-4e6a-b254-ed001895d881"
                  }
                ],
                "text": {
                  "status": "generated",
                  "div": "<div xmlns=\"http://www.w3.org/1999/xhtml\"><h3>Chemistry</h3><table class=\"hl7__eu__lab__report\"><thead><tr><th>Test</th><th>03-JUN-2021</th><th>Reference&#xA0;Range</th><th>Unit</th></tr></thead><tbody><tr><td>Glucose [Mass/volume] in Serum or Plasma</td><td><strong>67.0 L</strong></td><td>70 - 140</td><td>mg/dL</td></tr><tr><td>Urea nitrogen [Mass/volume] in Serum or Plasma</td><td>10.7</td><td>7 - 50</td><td>mg/dL</td></tr><tr><td>Creatinine [Mass/volume] in Serum or Plasma</td><td><strong>2.0 H</strong></td><td>0.6 - 1.1</td><td>mg/dL</td></tr><tr><td>Calcium [Mass/volume] in Serum or Plasma</td><td>9.6</td><td>8.5 - 10.5</td><td>mg/dL</td></tr><tr><td>Sodium [Moles/volume] in Serum or Plasma</td><td>141.3</td><td>135 - 145</td><td>mmol/L</td></tr><tr><td>Potassium [Moles/volume] in Serum or Plasma</td><td>4.1</td><td>3.5 - 5.1</td><td>mmol/L</td></tr><tr><td>Chloride [Moles/volume] in Serum or Plasma</td><td>101.8</td><td>98 - 108</td><td>mmol/L</td></tr><tr><td>Carbon dioxide, total [Moles/volume] in Serum or Plasma</td><td><strong>21.5 L</strong></td><td>22 - 32</td><td>mmol/L</td></tr><tr><td>Ketones [Presence] in Urine by Test strip</td><td>Urine ketone test = +</td><td></td><td></td></tr></tbody></table></div>"
                },
                "title": "Chemistry"
              },
              {
                "code": {
                  "coding": [
                    {
                      "code": "$18729-4",
                      "system": "http://loinc.org",
                      "display": "Urinalysis studies (set)"
                    }
                  ],
                  "text": "Urinalysis"
                },
                "entry": [
                  {
                    "reference": "urn:uuid:3fa5b836-fdf5-4e66-a569-86ec5cac6f5d"
                  },
                  {
                    "reference": "urn:uuid:0558003b-8b25-4f54-8bfb-b94938dbfb91"
                  },
                  {
                    "reference": "urn:uuid:6cd99aaa-f8ea-48a5-9ebc-dce5e4527189"
                  },
                  {
                    "reference": "urn:uuid:1d88aa54-4894-44fb-a6ef-961b764704bb"
                  },
                  {
                    "reference": "urn:uuid:b0173365-40a3-4adf-bfe3-1e9ef380f587"
                  },
                  {
                    "reference": "urn:uuid:47079557-3c5b-4e5b-92eb-5ab324399d91"
                  },
                  {
                    "reference": "urn:uuid:c6f39bc3-a560-4778-921e-6193c0370381"
                  },
                  {
                    "reference": "urn:uuid:9bf87ac3-ef58-4a5e-a641-4355967ca61a"
                  },
                  {
                    "reference": "urn:uuid:cd003190-d3d4-4e74-8b20-72f25ba424c5"
                  },
                  {
                    "reference": "urn:uuid:e4d82a4c-7067-41a1-ba34-31656aa2559d"
                  },
                  {
                    "reference": "urn:uuid:cb7d6744-6f43-4a62-bd02-b979405f42c7"
                  },
                  {
                    "reference": "urn:uuid:9edaa16d-97c2-43a3-8039-2975e2d07eac"
                  }
                ],
                "text": {
                  "status": "generated",
                  "div": "<div xmlns=\"http://www.w3.org/1999/xhtml\"><h3>Urinalysis</h3><table class=\"hl7__eu__lab__report\"><thead><tr><th>Test</th><th>03-JUN-2021</th><th>Reference&#xA0;Range</th><th>Unit</th></tr></thead><tbody><tr><td>Glucose [Mass/volume] in Urine by Test strip</td><td><strong>1.8 H</strong></td><td>0.8 - 0</td><td>mg/dL</td></tr><tr><td>Glucose [Presence] in Urine by Test strip</td><td>++</td><td></td><td></td></tr><tr><td>Bilirubin.total [Mass/volume] in Urine by Test strip</td><td>0.6</td><td>0 - 1</td><td>mg/dL</td></tr><tr><td>Bilirubin.total [Presence] in Urine by Test strip</td><td>Finding of bilirubin in urine</td><td></td><td></td></tr><tr><td>Ketones [Mass/volume] in Urine by Test strip</td><td>4.6</td><td>0 - 20</td><td>mg/dL</td></tr><tr><td>Specific gravity of Urine by Test strip</td><td><strong>1.0 L</strong></td><td>1.01 - 1.03</td><td>{nominal}</td></tr><tr><td>pH of Urine by Test strip</td><td>5.1</td><td>4.6 - 7</td><td>pH</td></tr><tr><td>Protein [Mass/volume] in Urine by Test strip</td><td><strong>227.9 H</strong></td><td>0 - 15</td><td>mg/dL</td></tr><tr><td>Protein [Presence] in Urine by Test strip</td><td>Urine protein test = ++</td><td></td><td></td></tr><tr><td>Nitrite [Presence] in Urine by Test strip</td><td>Urine nitrite negative</td><td></td><td></td></tr><tr><td>Hemoglobin [Presence] in Urine by Test strip</td><td>Urine blood test = negative</td><td></td><td></td></tr><tr><td>Leukocyte esterase [Presence] in Urine by Test strip</td><td>Urine leukocyte test negative</td><td></td><td></td></tr></tbody></table></div>"
                },
                "title": "Urinalysis"
              },
              {
                "code": {
                  "coding": [
                    {
                      "code": "$LP7846-1",
                      "system": "http://loinc.org",
                      "display": "Specimen information"
                    }
                  ],
                  "text": "Specimen information"
                },
                "entry": [
                  {
                    "reference": "urn:uuid:7c64cb07-ae0a-486f-af17-9c0688721817"
                  },
                  {
                    "reference": "urn:uuid:614a44e1-0827-4432-af04-e1b23b28bf96"
                  },
                  {
                    "reference": "urn:uuid:6502b5db-4f7d-42b8-b072-02f63237f72e"
                  },
                  {
                    "reference": "urn:uuid:9c709a04-7968-4c59-beb0-2b0bae03a285"
                  }
                ],
                "text": {
                  "status": "generated",
                  "div": "<div xmlns=\"http://www.w3.org/1999/xhtml\"><h3>Specimen information</h3><table class=\"hl7__eu__lab__report\"><thead><tr><th>Test</th><th>03-JUN-2021</th><th>Specimen</th><th></th></tr></thead><tbody><tr><td>Appearance of Urine</td><td>Cloudy urine</td><td>Urine</td><td></td></tr><tr><td>Odor of Urine</td><td>Urine smell ammoniacal</td><td>Urine</td><td></td></tr><tr><td>Clarity of Urine</td><td>Translucent</td><td>Urine</td><td></td></tr><tr><td>Color of Urine</td><td>Brown color</td><td>Urine</td><td></td></tr></tbody></table></div>"
                },
                "title": "Specimen information"
              }
            ],
            "title": "Laboratory Report"
          },
          {
            "text": {
              "status": "generated",
              "div": "<div xmlns=\"http://www.w3.org/1999/xhtml\"><h3>Annotation</h3><table class=\"hl7__eu__lab__report\"><tr><th>Conclusion and Recommendations based on this report and previous findings known to us</th></tr><tr><td>The patient shows mild hypoglycemia, elevated creatinine indicating impaired renal function, and metabolic acidosis (low CO₂). Urinalysis reveals significant proteinuria, glucosuria, ketonuria, low specific gravity, and abnormal urine appearance (cloudy, brown, ammoniacal), suggesting possible nephrotic syndrome or diabetic nephropathy with renal impairment. No evidence of urinary tract infection. Recommend further nephrological evaluation and assessment for underlying diabetes or other causes of renal dysfunction.</td></tr></table></div>"
            },
            "code": {
              "coding": [
                {
                  "system": "http://loinc.org",
                  "code": "48767-8",
                  "display": "Annotation comment"
                }
              ]
            },
            "title": "Annotation comment"
          }
        ],
        "status": "final",
        "subject": {
          "reference": "urn:uuid:a5f4729d-a9e7-4e5d-892f-76d63b163a80",
          "display": "Marthe Gallet"
        },
        "date": "2021-06-03T21:05:43Z",
        "title": "Laboratory Report",
        "confidentiality": "N"
      }
    },
    {
      "fullUrl": "urn:uuid:9362a571-aae5-4761-9cbe-d0a9cc928c77",
      "resource": {
        "resourceType": "DiagnosticReport",
        "id": "9362a571-aae5-4761-9cbe-d0a9cc928c77",
        "meta": {
          "profile": [
            "http://hl7.eu/fhir/laboratory/StructureDefinition/DiagnosticReport-eu-lab"
          ]
        },
        "identifier": [
          {
            "assigner": {
              "display": "HL7 Europe"
            },
            "system": "urn:oid:2.16.840.1.113883.2.51.999",
            "value": "282faa87-0515-4f8e-9f4b-60edac520e86"
          }
        ],
        "extension": [
          {
            "url": "http://hl7.org/fhir/5.0/StructureDefinition/extension-DiagnosticReport.composition",
            "valueReference": {
              "reference": "urn:uuid:70bd7ec2-f090-4bba-96af-2c035ea052ad"
            }
          }
        ],
        "category": [
          {
            "coding": [
              {
                "code": "26436-6",
                "system": "http://loinc.org",
                "display": "Laboratory studies (set)"
              }
            ]
          }
        ],
        "specimen": [
          {
            "reference": "urn:uuid:2c91ae4e-e5db-40f9-958c-62cec5a37c9b"
          },
          {
            "reference": "urn:uuid:c5e7e707-aa14-4e79-96f8-cd77251882df"
          }
        ],
        "result": [
          {
            "reference": "urn:uuid:8fa66597-704a-4414-8c07-47c3b147828e"
          },
          {
            "reference": "urn:uuid:e923e51f-16cf-4010-a315-798c68b50bcd"
          },
          {
            "reference": "urn:uuid:0cfc93a9-bfc2-4225-97b2-294df4547368"
          },
          {
            "reference": "urn:uuid:29789c52-e459-422b-9a1a-489727704445"
          },
          {
            "reference": "urn:uuid:a311a724-9469-4dc0-ae60-600cafc6b547"
          },
          {
            "reference": "urn:uuid:ac573cb2-8be6-47f4-a7d3-d7bb14b78cac"
          },
          {
            "reference": "urn:uuid:9a2440de-ae7a-4d64-af63-55d3f04662af"
          },
          {
            "reference": "urn:uuid:cb2b5959-191e-4699-b8a1-677e9c3190c1"
          },
          {
            "reference": "urn:uuid:7c64cb07-ae0a-486f-af17-9c0688721817"
          },
          {
            "reference": "urn:uuid:614a44e1-0827-4432-af04-e1b23b28bf96"
          },
          {
            "reference": "urn:uuid:6502b5db-4f7d-42b8-b072-02f63237f72e"
          },
          {
            "reference": "urn:uuid:9c709a04-7968-4c59-beb0-2b0bae03a285"
          },
          {
            "reference": "urn:uuid:3fa5b836-fdf5-4e66-a569-86ec5cac6f5d"
          },
          {
            "reference": "urn:uuid:0558003b-8b25-4f54-8bfb-b94938dbfb91"
          },
          {
            "reference": "urn:uuid:6cd99aaa-f8ea-48a5-9ebc-dce5e4527189"
          },
          {
            "reference": "urn:uuid:1d88aa54-4894-44fb-a6ef-961b764704bb"
          },
          {
            "reference": "urn:uuid:b0173365-40a3-4adf-bfe3-1e9ef380f587"
          },
          {
            "reference": "urn:uuid:667ce19d-cd24-4e6a-b254-ed001895d881"
          },
          {
            "reference": "urn:uuid:47079557-3c5b-4e5b-92eb-5ab324399d91"
          },
          {
            "reference": "urn:uuid:c6f39bc3-a560-4778-921e-6193c0370381"
          },
          {
            "reference": "urn:uuid:9bf87ac3-ef58-4a5e-a641-4355967ca61a"
          },
          {
            "reference": "urn:uuid:cd003190-d3d4-4e74-8b20-72f25ba424c5"
          },
          {
            "reference": "urn:uuid:e4d82a4c-7067-41a1-ba34-31656aa2559d"
          },
          {
            "reference": "urn:uuid:cb7d6744-6f43-4a62-bd02-b979405f42c7"
          },
          {
            "reference": "urn:uuid:9edaa16d-97c2-43a3-8039-2975e2d07eac"
          }
        ],
        "status": "registered",
        "code": {
          "coding": [
            {
              "code": "11502-2",
              "system": "http://loinc.org",
              "display": "Laboratory report"
            }
          ]
        },
        "subject": {
          "reference": "urn:uuid:a5f4729d-a9e7-4e5d-892f-76d63b163a80",
          "display": "Marthe Gallet"
        }
      }
    },
    {
      "fullUrl": "urn:uuid:a5f4729d-a9e7-4e5d-892f-76d63b163a80",
      "resource": {
        "resourceType": "Patient",
        "id": "a5f4729d-a9e7-4e5d-892f-76d63b163a80",
        "meta": {
          "security": [
            {
              "system": "http://terminology.hl7.org/CodeSystem/v3-ActReason",
              "code": "HTEST"
            },
            {
              "system": "http://terminology.hl7.org/CodeSystem/v3-ActReason",
              "code": "TRAIN"
            }
          ],
          "tag": [
            {
              "system": "https://synderai.net/fhir/CodeSystem/tags",
              "code": "synthetic",
              "display": "SYNDERAI Synthetic data"
            }
          ],
          "profile": [
            "http://hl7.eu/fhir/base/StructureDefinition/patient-eu-core"
          ]
        },
        "identifier": [
          {
            "type": {
              "coding": [
                {
                  "code": "PT",
                  "system": "http://terminology.hl7.org/CodeSystem/v2-0203"
                }
              ]
            },
            "system": "http://ec.europa.eu/identifier/eci",
            "value": "9444-947487-6"
          },
          {
            "type": {
              "coding": [
                {
                  "code": "MR",
                  "system": "http://terminology.hl7.org/CodeSystem/v2-0203"
                }
              ]
            },
            "system": "http://local.setting.eu/identifier",
            "value": "854228d5-a476-2d9c-a1d7-c3202375a617"
          }
        ],
        "name": [
          {
            "family": "Gallet"
          },
          {
            "given": [
              "Marthe"
            ]
          },
          {
            "text": "Marthe Gallet"
          }
        ],
        "address": [
          {
            "line": [
              "3, rue Emmanuel Goncalves"
            ],
            "use": "home",
            "type": "physical",
            "postalCode": "49490",
            "city": "Briand",
            "country": "France"
          }
        ],
        "telecom": [
          {
            "system": "phone",
            "value": "+33 1 70 99 82 74"
          }
        ],
        "extension": [
          {
            "url": "http://hl7.org/fhir/StructureDefinition/patient-nationality",
            "valueCodeableConcept": {
              "coding": [
                {
                  "code": "FR",
                  "system": "http://hl7.org/fhir/ValueSet/country"
                }
              ]
            }
          }
        ],
        "text": {
          "status": "generated",
          "div": "<div xmlns=\"http://www.w3.org/1999/xhtml\"><table class=\"hl7__ips\"><tr><td>Marthe Gallet</td><td>female</td><td>29-Oct-1950</td></tr></table></div>"
        },
        "gender": "female",
        "birthDate": "1950-10-29"
      }
    },
    {
      "fullUrl": "urn:uuid:89ea5b7d-6764-420f-aef3-bf13f653b82e",
      "resource": {
        "resourceType": "ServiceRequest",
        "id": "89ea5b7d-6764-420f-aef3-bf13f653b82e",
        "meta": {
          "profile": [
            "http://hl7.eu/fhir/laboratory/StructureDefinition/ServiceRequest-eu-lab"
          ]
        },
        "identifier": [
          {
            "system": "http://example.org",
            "value": "6b764b08-4841-4df4-a461-eb0451396f07"
          }
        ],
        "specimen": [
          {
            "reference": "urn:uuid:2c91ae4e-e5db-40f9-958c-62cec5a37c9b"
          },
          {
            "reference": "urn:uuid:c5e7e707-aa14-4e79-96f8-cd77251882df"
          }
        ],
        "reasonCode": [
          {
            "coding": [
              {
                "code": "431856006",
                "system": "http://snomed.info/sct",
                "display": "Chronic kidney disease stage 2"
              }
            ]
          },
          {
            "coding": [
              {
                "code": "90781000119102",
                "system": "http://snomed.info/sct",
                "display": "Microalbuminuria due to type 2 diabetes mellitus"
              }
            ]
          },
          {
            "coding": [
              {
                "code": "127013003",
                "system": "http://snomed.info/sct",
                "display": "Disorder of kidney due to diabetes mellitus"
              }
            ]
          },
          {
            "coding": [
              {
                "code": "431855005",
                "system": "http://snomed.info/sct",
                "display": "Chronic kidney disease stage 1"
              }
            ]
          },
          {
            "coding": [
              {
                "code": "55822004",
                "system": "http://snomed.info/sct",
                "display": "Hyperlipidemia"
              }
            ]
          },
          {
            "coding": [
              {
                "code": "59621000",
                "system": "http://snomed.info/sct",
                "display": "Essential hypertension"
              }
            ]
          }
        ],
        "status": "active",
        "intent": "order",
        "code": {
          "coding": [
            {
              "code": "108252007",
              "system": "http://snomed.info/sct",
              "display": "Laboratory procedure"
            }
          ]
        },
        "subject": {
          "reference": "urn:uuid:a5f4729d-a9e7-4e5d-892f-76d63b163a80",
          "display": "Marthe Gallet"
        },
        "requester": {
          "reference": "urn:uuid:04c3f5ad-0ff3-4900-9959-fd32c5bf9f90"
        }
      }
    },
    {
      "fullUrl": "urn:uuid:04c3f5ad-0ff3-4900-9959-fd32c5bf9f90",
      "resource": {
        "resourceType": "PractitionerRole",
        "id": "04c3f5ad-0ff3-4900-9959-fd32c5bf9f90",
        "meta": {
          "profile": [
            "http://hl7.eu/fhir/base/StructureDefinition/practitionerRole-eu"
          ]
        },
        "text": {
          "status": "generated",
          "div": "<div xmlns=\"http://www.w3.org/1999/xhtml\">Provider Role Id: 04c3f5ad-0ff3-4900-9959-fd32c5bf9f90</div>"
        },
        "organization": {
          "reference": "urn:uuid:b068dfc8-ce0b-4e7b-97b9-1a7425f274f1"
        }
      }
    },
    {
      "fullUrl": "urn:uuid:b068dfc8-ce0b-4e7b-97b9-1a7425f274f1",
      "resource": {
        "resourceType": "Organization",
        "id": "b068dfc8-ce0b-4e7b-97b9-1a7425f274f1",
        "meta": {
          "profile": [
            "http://hl7.eu/fhir/base/StructureDefinition/organization-eu"
          ]
        },
        "identifier": [
          {
            "assigner": {
              "display": "HL7 Europe"
            },
            "system": "urn:oid:2.16.840.1.113883.2.51.999",
            "value": "88dc3b06-0af2-470e-ae09-6ad3b3be158e"
          }
        ],
        "address": [
          {
            "line": [
              "Rue Larrey nan"
            ],
            "city": "Angers",
            "postalCode": "49100",
            "country": "France"
          }
        ],
        "text": {
          "status": "generated",
          "div": "<div xmlns=\"http://www.w3.org/1999/xhtml\">Provider Organization: CHU d&#039;Angers</div>"
        },
        "name": "CHU d&#039;Angers"
      }
    },
    {
      "fullUrl": "urn:uuid:2c91ae4e-e5db-40f9-958c-62cec5a37c9b",
      "resource": {
        "resourceType": "Specimen",
        "id": "2c91ae4e-e5db-40f9-958c-62cec5a37c9b",
        "meta": {
          "profile": [
            "http://hl7.eu/fhir/laboratory/StructureDefinition/Specimen-eu-lab"
          ]
        },
        "collection": {
          "collectedDateTime": "2021-06-03"
        },
        "text": {
          "status": "generated",
          "div": "<div xmlns=\"http://www.w3.org/1999/xhtml\"><table class=\"hl7__eu__lab__report\"><tr><th>Specimen</th><th>Collection Date</th></tr><tr><td>Acellular blood (serum or plasma) specimen</td><td><span class=\"nb\">03-Jun-2021</span></td></tr></table></div>"
        },
        "type": {
          "coding": [
            {
              "code": "122592007",
              "system": "http://snomed.info/sct",
              "display": "Acellular blood (serum or plasma) specimen"
            }
          ]
        }
      }
    },
    {
      "fullUrl": "urn:uuid:c5e7e707-aa14-4e79-96f8-cd77251882df",
      "resource": {
        "resourceType": "Specimen",
        "id": "c5e7e707-aa14-4e79-96f8-cd77251882df",
        "meta": {
          "profile": [
            "http://hl7.eu/fhir/laboratory/StructureDefinition/Specimen-eu-lab"
          ]
        },
        "collection": {
          "collectedDateTime": "2021-06-03"
        },
        "text": {
          "status": "generated",
          "div": "<div xmlns=\"http://www.w3.org/1999/xhtml\"><table class=\"hl7__eu__lab__report\"><tr><th>Specimen</th><th>Collection Date</th></tr><tr><td>Urine specimen</td><td><span class=\"nb\">03-Jun-2021</span></td></tr></table></div>"
        },
        "type": {
          "coding": [
            {
              "code": "122575003",
              "system": "http://snomed.info/sct",
              "display": "Urine specimen"
            }
          ]
        }
      }
    },
    {
      "fullUrl": "urn:uuid:8fa66597-704a-4414-8c07-47c3b147828e",
      "resource": {
        "resourceType": "Observation",
        "id": "8fa66597-704a-4414-8c07-47c3b147828e",
        "meta": {
          "profile": [
            "http://hl7.eu/fhir/laboratory/StructureDefinition/Observation-resultslab-eu-lab"
          ]
        },
        "performer": [
          {
            "display": "The Central European Lab"
          }
        ],
        "category": [
          {
            "coding": [
              {
                "system": "http://terminology.hl7.org/CodeSystem/observation-category",
                "code": "laboratory"
              }
            ]
          }
        ],
        "code": {
          "coding": [
            {
              "code": "2345-7",
              "system": "http://loinc.org",
              "display": "Glucose [Mass/volume] in Serum or Plasma"
            }
          ],
          "text": "Glucose [Mass/volume] in Serum or Plasma"
        },
        "valueQuantity": {
          "system": "http://unitsofmeasure.org",
          "value": 67,
          "unit": "mg/dL",
          "code": "mg/dL"
        },
        "referenceRange": [
          {
            "low": {
              "value": 70,
              "code": "mg/dL",
              "system": "http://unitsofmeasure.org"
            }
          },
          {
            "high": {
              "value": 140,
              "code": "mg/dL",
              "system": "http://unitsofmeasure.org"
            }
          }
        ],
        "interpretation": [
          {
            "coding": [
              {
                "code": "L",
                "system": "http://terminology.hl7.org/CodeSystem/v3-ObservationInterpretation",
                "display": "Low"
              }
            ]
          }
        ],
        "text": {
          "status": "generated",
          "div": "<div xmlns=\"http://www.w3.org/1999/xhtml\"><table class=\"hl7__eu__lab__report\"><tr><th>Test</th><th>03-Jun-2021</th><th>Reference&#xA0;Range</th><th>Unit</th></tr><tr><td>Glucose [Mass/volume] in Serum or Plasma</td><td>67.0</td><td>70 - 140</td><td>L</td><td>mg/dL</td></tr></table></div>"
        },
        "status": "final",
        "subject": {
          "reference": "urn:uuid:a5f4729d-a9e7-4e5d-892f-76d63b163a80",
          "display": "Marthe Gallet"
        },
        "effectiveDateTime": "2021-06-03T19:05:43Z",
        "specimen": {
          "reference": "urn:uuid:2c91ae4e-e5db-40f9-958c-62cec5a37c9b"
        }
      }
    },
    {
      "fullUrl": "urn:uuid:e923e51f-16cf-4010-a315-798c68b50bcd",
      "resource": {
        "resourceType": "Observation",
        "id": "e923e51f-16cf-4010-a315-798c68b50bcd",
        "meta": {
          "profile": [
            "http://hl7.eu/fhir/laboratory/StructureDefinition/Observation-resultslab-eu-lab"
          ]
        },
        "performer": [
          {
            "display": "The Central European Lab"
          }
        ],
        "category": [
          {
            "coding": [
              {
                "system": "http://terminology.hl7.org/CodeSystem/observation-category",
                "code": "laboratory"
              }
            ]
          }
        ],
        "code": {
          "coding": [
            {
              "code": "3094-0",
              "system": "http://loinc.org",
              "display": "Urea nitrogen [Mass/volume] in Serum or Plasma"
            }
          ],
          "text": "Urea nitrogen [Mass/volume] in Serum or Plasma"
        },
        "valueQuantity": {
          "system": "http://unitsofmeasure.org",
          "value": 10.7,
          "unit": "mg/dL",
          "code": "mg/dL"
        },
        "referenceRange": [
          {
            "low": {
              "value": 7,
              "code": "mg/dL",
              "system": "http://unitsofmeasure.org"
            }
          },
          {
            "high": {
              "value": 50,
              "code": "mg/dL",
              "system": "http://unitsofmeasure.org"
            }
          }
        ],
        "text": {
          "status": "generated",
          "div": "<div xmlns=\"http://www.w3.org/1999/xhtml\"><table class=\"hl7__eu__lab__report\"><tr><th>Test</th><th>03-Jun-2021</th><th>Reference&#xA0;Range</th><th>Unit</th></tr><tr><td>Urea nitrogen [Mass/volume] in Serum or Plasma</td><td>10.7</td><td>7 - 50</td><td></td><td>mg/dL</td></tr></table></div>"
        },
        "status": "final",
        "subject": {
          "reference": "urn:uuid:a5f4729d-a9e7-4e5d-892f-76d63b163a80",
          "display": "Marthe Gallet"
        },
        "effectiveDateTime": "2021-06-03T19:05:43Z",
        "specimen": {
          "reference": "urn:uuid:2c91ae4e-e5db-40f9-958c-62cec5a37c9b"
        }
      }
    },
    {
      "fullUrl": "urn:uuid:0cfc93a9-bfc2-4225-97b2-294df4547368",
      "resource": {
        "resourceType": "Observation",
        "id": "0cfc93a9-bfc2-4225-97b2-294df4547368",
        "meta": {
          "profile": [
            "http://hl7.eu/fhir/laboratory/StructureDefinition/Observation-resultslab-eu-lab"
          ]
        },
        "performer": [
          {
            "display": "The Central European Lab"
          }
        ],
        "category": [
          {
            "coding": [
              {
                "system": "http://terminology.hl7.org/CodeSystem/observation-category",
                "code": "laboratory"
              }
            ]
          }
        ],
        "code": {
          "coding": [
            {
              "code": "2160-0",
              "system": "http://loinc.org",
              "display": "Creatinine [Mass/volume] in Serum or Plasma"
            }
          ],
          "text": "Creatinine [Mass/volume] in Serum or Plasma"
        },
        "valueQuantity": {
          "system": "http://unitsofmeasure.org",
          "value": 2,
          "unit": "mg/dL",
          "code": "mg/dL"
        },
        "referenceRange": [
          {
            "low": {
              "value": 0.6,
              "code": "mg/dL",
              "system": "http://unitsofmeasure.org"
            }
          },
          {
            "high": {
              "value": 1.1,
              "code": "mg/dL",
              "system": "http://unitsofmeasure.org"
            }
          }
        ],
        "interpretation": [
          {
            "coding": [
              {
                "code": "H",
                "system": "http://terminology.hl7.org/CodeSystem/v3-ObservationInterpretation",
                "display": "High"
              }
            ]
          }
        ],
        "text": {
          "status": "generated",
          "div": "<div xmlns=\"http://www.w3.org/1999/xhtml\"><table class=\"hl7__eu__lab__report\"><tr><th>Test</th><th>03-Jun-2021</th><th>Reference&#xA0;Range</th><th>Unit</th></tr><tr><td>Creatinine [Mass/volume] in Serum or Plasma</td><td>2.0</td><td>0.6 - 1.1</td><td>H</td><td>mg/dL</td></tr></table></div>"
        },
        "status": "final",
        "subject": {
          "reference": "urn:uuid:a5f4729d-a9e7-4e5d-892f-76d63b163a80",
          "display": "Marthe Gallet"
        },
        "effectiveDateTime": "2021-06-03T19:05:43Z",
        "specimen": {
          "reference": "urn:uuid:2c91ae4e-e5db-40f9-958c-62cec5a37c9b"
        }
      }
    },
    {
      "fullUrl": "urn:uuid:29789c52-e459-422b-9a1a-489727704445",
      "resource": {
        "resourceType": "Observation",
        "id": "29789c52-e459-422b-9a1a-489727704445",
        "meta": {
          "profile": [
            "http://hl7.eu/fhir/laboratory/StructureDefinition/Observation-resultslab-eu-lab"
          ]
        },
        "performer": [
          {
            "display": "The Central European Lab"
          }
        ],
        "category": [
          {
            "coding": [
              {
                "system": "http://terminology.hl7.org/CodeSystem/observation-category",
                "code": "laboratory"
              }
            ]
          }
        ],
        "code": {
          "coding": [
            {
              "code": "17861-6",
              "system": "http://loinc.org",
              "display": "Calcium [Mass/volume] in Serum or Plasma"
            }
          ],
          "text": "Calcium [Mass/volume] in Serum or Plasma"
        },
        "valueQuantity": {
          "system": "http://unitsofmeasure.org",
          "value": 9.6,
          "unit": "mg/dL",
          "code": "mg/dL"
        },
        "referenceRange": [
          {
            "low": {
              "value": 8.5,
              "code": "mg/dL",
              "system": "http://unitsofmeasure.org"
            }
          },
          {
            "high": {
              "value": 10.5,
              "code": "mg/dL",
              "system": "http://unitsofmeasure.org"
            }
          }
        ],
        "text": {
          "status": "generated",
          "div": "<div xmlns=\"http://www.w3.org/1999/xhtml\"><table class=\"hl7__eu__lab__report\"><tr><th>Test</th><th>03-Jun-2021</th><th>Reference&#xA0;Range</th><th>Unit</th></tr><tr><td>Calcium [Mass/volume] in Serum or Plasma</td><td>9.6</td><td>8.5 - 10.5</td><td></td><td>mg/dL</td></tr></table></div>"
        },
        "status": "final",
        "subject": {
          "reference": "urn:uuid:a5f4729d-a9e7-4e5d-892f-76d63b163a80",
          "display": "Marthe Gallet"
        },
        "effectiveDateTime": "2021-06-03T19:05:43Z",
        "specimen": {
          "reference": "urn:uuid:2c91ae4e-e5db-40f9-958c-62cec5a37c9b"
        }
      }
    },
    {
      "fullUrl": "urn:uuid:a311a724-9469-4dc0-ae60-600cafc6b547",
      "resource": {
        "resourceType": "Observation",
        "id": "a311a724-9469-4dc0-ae60-600cafc6b547",
        "meta": {
          "profile": [
            "http://hl7.eu/fhir/laboratory/StructureDefinition/Observation-resultslab-eu-lab"
          ]
        },
        "performer": [
          {
            "display": "The Central European Lab"
          }
        ],
        "category": [
          {
            "coding": [
              {
                "system": "http://terminology.hl7.org/CodeSystem/observation-category",
                "code": "laboratory"
              }
            ]
          }
        ],
        "code": {
          "coding": [
            {
              "code": "2951-2",
              "system": "http://loinc.org",
              "display": "Sodium [Moles/volume] in Serum or Plasma"
            }
          ],
          "text": "Sodium [Moles/volume] in Serum or Plasma"
        },
        "valueQuantity": {
          "system": "http://unitsofmeasure.org",
          "value": 141.3,
          "unit": "mmol/L",
          "code": "mmol/L"
        },
        "referenceRange": [
          {
            "low": {
              "value": 135,
              "code": "mmol/L",
              "system": "http://unitsofmeasure.org"
            }
          },
          {
            "high": {
              "value": 145,
              "code": "mmol/L",
              "system": "http://unitsofmeasure.org"
            }
          }
        ],
        "text": {
          "status": "generated",
          "div": "<div xmlns=\"http://www.w3.org/1999/xhtml\"><table class=\"hl7__eu__lab__report\"><tr><th>Test</th><th>03-Jun-2021</th><th>Reference&#xA0;Range</th><th>Unit</th></tr><tr><td>Sodium [Moles/volume] in Serum or Plasma</td><td>141.3</td><td>135 - 145</td><td></td><td>mmol/L</td></tr></table></div>"
        },
        "status": "final",
        "subject": {
          "reference": "urn:uuid:a5f4729d-a9e7-4e5d-892f-76d63b163a80",
          "display": "Marthe Gallet"
        },
        "effectiveDateTime": "2021-06-03T19:05:43Z",
        "specimen": {
          "reference": "urn:uuid:2c91ae4e-e5db-40f9-958c-62cec5a37c9b"
        }
      }
    },
    {
      "fullUrl": "urn:uuid:ac573cb2-8be6-47f4-a7d3-d7bb14b78cac",
      "resource": {
        "resourceType": "Observation",
        "id": "ac573cb2-8be6-47f4-a7d3-d7bb14b78cac",
        "meta": {
          "profile": [
            "http://hl7.eu/fhir/laboratory/StructureDefinition/Observation-resultslab-eu-lab"
          ]
        },
        "performer": [
          {
            "display": "The Central European Lab"
          }
        ],
        "category": [
          {
            "coding": [
              {
                "system": "http://terminology.hl7.org/CodeSystem/observation-category",
                "code": "laboratory"
              }
            ]
          }
        ],
        "code": {
          "coding": [
            {
              "code": "2823-3",
              "system": "http://loinc.org",
              "display": "Potassium [Moles/volume] in Serum or Plasma"
            }
          ],
          "text": "Potassium [Moles/volume] in Serum or Plasma"
        },
        "valueQuantity": {
          "system": "http://unitsofmeasure.org",
          "value": 4.1,
          "unit": "mmol/L",
          "code": "mmol/L"
        },
        "referenceRange": [
          {
            "low": {
              "value": 3.5,
              "code": "mmol/L",
              "system": "http://unitsofmeasure.org"
            }
          },
          {
            "high": {
              "value": 5.1,
              "code": "mmol/L",
              "system": "http://unitsofmeasure.org"
            }
          }
        ],
        "text": {
          "status": "generated",
          "div": "<div xmlns=\"http://www.w3.org/1999/xhtml\"><table class=\"hl7__eu__lab__report\"><tr><th>Test</th><th>03-Jun-2021</th><th>Reference&#xA0;Range</th><th>Unit</th></tr><tr><td>Potassium [Moles/volume] in Serum or Plasma</td><td>4.1</td><td>3.5 - 5.1</td><td></td><td>mmol/L</td></tr></table></div>"
        },
        "status": "final",
        "subject": {
          "reference": "urn:uuid:a5f4729d-a9e7-4e5d-892f-76d63b163a80",
          "display": "Marthe Gallet"
        },
        "effectiveDateTime": "2021-06-03T19:05:43Z",
        "specimen": {
          "reference": "urn:uuid:2c91ae4e-e5db-40f9-958c-62cec5a37c9b"
        }
      }
    },
    {
      "fullUrl": "urn:uuid:9a2440de-ae7a-4d64-af63-55d3f04662af",
      "resource": {
        "resourceType": "Observation",
        "id": "9a2440de-ae7a-4d64-af63-55d3f04662af",
        "meta": {
          "profile": [
            "http://hl7.eu/fhir/laboratory/StructureDefinition/Observation-resultslab-eu-lab"
          ]
        },
        "performer": [
          {
            "display": "The Central European Lab"
          }
        ],
        "category": [
          {
            "coding": [
              {
                "system": "http://terminology.hl7.org/CodeSystem/observation-category",
                "code": "laboratory"
              }
            ]
          }
        ],
        "code": {
          "coding": [
            {
              "code": "2075-0",
              "system": "http://loinc.org",
              "display": "Chloride [Moles/volume] in Serum or Plasma"
            }
          ],
          "text": "Chloride [Moles/volume] in Serum or Plasma"
        },
        "valueQuantity": {
          "system": "http://unitsofmeasure.org",
          "value": 101.8,
          "unit": "mmol/L",
          "code": "mmol/L"
        },
        "referenceRange": [
          {
            "low": {
              "value": 98,
              "code": "mmol/L",
              "system": "http://unitsofmeasure.org"
            }
          },
          {
            "high": {
              "value": 108,
              "code": "mmol/L",
              "system": "http://unitsofmeasure.org"
            }
          }
        ],
        "text": {
          "status": "generated",
          "div": "<div xmlns=\"http://www.w3.org/1999/xhtml\"><table class=\"hl7__eu__lab__report\"><tr><th>Test</th><th>03-Jun-2021</th><th>Reference&#xA0;Range</th><th>Unit</th></tr><tr><td>Chloride [Moles/volume] in Serum or Plasma</td><td>101.8</td><td>98 - 108</td><td></td><td>mmol/L</td></tr></table></div>"
        },
        "status": "final",
        "subject": {
          "reference": "urn:uuid:a5f4729d-a9e7-4e5d-892f-76d63b163a80",
          "display": "Marthe Gallet"
        },
        "effectiveDateTime": "2021-06-03T19:05:43Z",
        "specimen": {
          "reference": "urn:uuid:2c91ae4e-e5db-40f9-958c-62cec5a37c9b"
        }
      }
    },
    {
      "fullUrl": "urn:uuid:cb2b5959-191e-4699-b8a1-677e9c3190c1",
      "resource": {
        "resourceType": "Observation",
        "id": "cb2b5959-191e-4699-b8a1-677e9c3190c1",
        "meta": {
          "profile": [
            "http://hl7.eu/fhir/laboratory/StructureDefinition/Observation-resultslab-eu-lab"
          ]
        },
        "performer": [
          {
            "display": "The Central European Lab"
          }
        ],
        "category": [
          {
            "coding": [
              {
                "system": "http://terminology.hl7.org/CodeSystem/observation-category",
                "code": "laboratory"
              }
            ]
          }
        ],
        "code": {
          "coding": [
            {
              "code": "2028-9",
              "system": "http://loinc.org",
              "display": "Carbon dioxide, total [Moles/volume] in Serum or Plasma"
            }
          ],
          "text": "Carbon dioxide, total [Moles/volume] in Serum or Plasma"
        },
        "valueQuantity": {
          "system": "http://unitsofmeasure.org",
          "value": 21.5,
          "unit": "mmol/L",
          "code": "mmol/L"
        },
        "referenceRange": [
          {
            "low": {
              "value": 22,
              "code": "mmol/L",
              "system": "http://unitsofmeasure.org"
            }
          },
          {
            "high": {
              "value": 32,
              "code": "mmol/L",
              "system": "http://unitsofmeasure.org"
            }
          }
        ],
        "interpretation": [
          {
            "coding": [
              {
                "code": "L",
                "system": "http://terminology.hl7.org/CodeSystem/v3-ObservationInterpretation",
                "display": "Low"
              }
            ]
          }
        ],
        "text": {
          "status": "generated",
          "div": "<div xmlns=\"http://www.w3.org/1999/xhtml\"><table class=\"hl7__eu__lab__report\"><tr><th>Test</th><th>03-Jun-2021</th><th>Reference&#xA0;Range</th><th>Unit</th></tr><tr><td>Carbon dioxide, total [Moles/volume] in Serum or Plasma</td><td>21.5</td><td>22 - 32</td><td>L</td><td>mmol/L</td></tr></table></div>"
        },
        "status": "final",
        "subject": {
          "reference": "urn:uuid:a5f4729d-a9e7-4e5d-892f-76d63b163a80",
          "display": "Marthe Gallet"
        },
        "effectiveDateTime": "2021-06-03T19:05:43Z",
        "specimen": {
          "reference": "urn:uuid:2c91ae4e-e5db-40f9-958c-62cec5a37c9b"
        }
      }
    },
    {
      "fullUrl": "urn:uuid:7c64cb07-ae0a-486f-af17-9c0688721817",
      "resource": {
        "resourceType": "Observation",
        "id": "7c64cb07-ae0a-486f-af17-9c0688721817",
        "meta": {
          "profile": [
            "http://hl7.eu/fhir/laboratory/StructureDefinition/Observation-resultslab-eu-lab"
          ]
        },
        "performer": [
          {
            "display": "The Central European Lab"
          }
        ],
        "category": [
          {
            "coding": [
              {
                "system": "http://terminology.hl7.org/CodeSystem/observation-category",
                "code": "laboratory"
              }
            ]
          }
        ],
        "code": {
          "coding": [
            {
              "code": "5767-9",
              "system": "http://loinc.org",
              "display": "Appearance of Urine"
            }
          ],
          "text": "Appearance of Urine"
        },
        "text": {
          "status": "generated",
          "div": "<div xmlns=\"http://www.w3.org/1999/xhtml\"><table class=\"hl7__eu__lab__report\"><tr><th>Test</th><th>03-Jun-2021</th><th>Reference&#xA0;Range</th><th>Unit</th></tr><tr><td>Appearance of Urine</td></tr></table></div>"
        },
        "status": "final",
        "subject": {
          "reference": "urn:uuid:a5f4729d-a9e7-4e5d-892f-76d63b163a80",
          "display": "Marthe Gallet"
        },
        "effectiveDateTime": "2021-06-03T19:05:43Z",
        "specimen": {
          "reference": "urn:uuid:c5e7e707-aa14-4e79-96f8-cd77251882df"
        }
      }
    },
    {
      "fullUrl": "urn:uuid:614a44e1-0827-4432-af04-e1b23b28bf96",
      "resource": {
        "resourceType": "Observation",
        "id": "614a44e1-0827-4432-af04-e1b23b28bf96",
        "meta": {
          "profile": [
            "http://hl7.eu/fhir/laboratory/StructureDefinition/Observation-resultslab-eu-lab"
          ]
        },
        "performer": [
          {
            "display": "The Central European Lab"
          }
        ],
        "category": [
          {
            "coding": [
              {
                "system": "http://terminology.hl7.org/CodeSystem/observation-category",
                "code": "laboratory"
              }
            ]
          }
        ],
        "code": {
          "coding": [
            {
              "code": "34533-0",
              "system": "http://loinc.org",
              "display": "Odor of Urine"
            }
          ],
          "text": "Odor of Urine"
        },
        "text": {
          "status": "generated",
          "div": "<div xmlns=\"http://www.w3.org/1999/xhtml\"><table class=\"hl7__eu__lab__report\"><tr><th>Test</th><th>03-Jun-2021</th><th>Reference&#xA0;Range</th><th>Unit</th></tr><tr><td>Odor of Urine</td></tr></table></div>"
        },
        "status": "final",
        "subject": {
          "reference": "urn:uuid:a5f4729d-a9e7-4e5d-892f-76d63b163a80",
          "display": "Marthe Gallet"
        },
        "effectiveDateTime": "2021-06-03T19:05:43Z",
        "specimen": {
          "reference": "urn:uuid:c5e7e707-aa14-4e79-96f8-cd77251882df"
        }
      }
    },
    {
      "fullUrl": "urn:uuid:6502b5db-4f7d-42b8-b072-02f63237f72e",
      "resource": {
        "resourceType": "Observation",
        "id": "6502b5db-4f7d-42b8-b072-02f63237f72e",
        "meta": {
          "profile": [
            "http://hl7.eu/fhir/laboratory/StructureDefinition/Observation-resultslab-eu-lab"
          ]
        },
        "performer": [
          {
            "display": "The Central European Lab"
          }
        ],
        "category": [
          {
            "coding": [
              {
                "system": "http://terminology.hl7.org/CodeSystem/observation-category",
                "code": "laboratory"
              }
            ]
          }
        ],
        "code": {
          "coding": [
            {
              "code": "32167-9",
              "system": "http://loinc.org",
              "display": "Clarity of Urine"
            }
          ],
          "text": "Clarity of Urine"
        },
        "text": {
          "status": "generated",
          "div": "<div xmlns=\"http://www.w3.org/1999/xhtml\"><table class=\"hl7__eu__lab__report\"><tr><th>Test</th><th>03-Jun-2021</th><th>Reference&#xA0;Range</th><th>Unit</th></tr><tr><td>Clarity of Urine</td></tr></table></div>"
        },
        "status": "final",
        "subject": {
          "reference": "urn:uuid:a5f4729d-a9e7-4e5d-892f-76d63b163a80",
          "display": "Marthe Gallet"
        },
        "effectiveDateTime": "2021-06-03T19:05:43Z",
        "specimen": {
          "reference": "urn:uuid:c5e7e707-aa14-4e79-96f8-cd77251882df"
        }
      }
    },
    {
      "fullUrl": "urn:uuid:9c709a04-7968-4c59-beb0-2b0bae03a285",
      "resource": {
        "resourceType": "Observation",
        "id": "9c709a04-7968-4c59-beb0-2b0bae03a285",
        "meta": {
          "profile": [
            "http://hl7.eu/fhir/laboratory/StructureDefinition/Observation-resultslab-eu-lab"
          ]
        },
        "performer": [
          {
            "display": "The Central European Lab"
          }
        ],
        "category": [
          {
            "coding": [
              {
                "system": "http://terminology.hl7.org/CodeSystem/observation-category",
                "code": "laboratory"
              }
            ]
          }
        ],
        "code": {
          "coding": [
            {
              "code": "5778-6",
              "system": "http://loinc.org",
              "display": "Color of Urine"
            }
          ],
          "text": "Color of Urine"
        },
        "text": {
          "status": "generated",
          "div": "<div xmlns=\"http://www.w3.org/1999/xhtml\"><table class=\"hl7__eu__lab__report\"><tr><th>Test</th><th>03-Jun-2021</th><th>Reference&#xA0;Range</th><th>Unit</th></tr><tr><td>Color of Urine</td></tr></table></div>"
        },
        "status": "final",
        "subject": {
          "reference": "urn:uuid:a5f4729d-a9e7-4e5d-892f-76d63b163a80",
          "display": "Marthe Gallet"
        },
        "effectiveDateTime": "2021-06-03T19:05:43Z",
        "specimen": {
          "reference": "urn:uuid:c5e7e707-aa14-4e79-96f8-cd77251882df"
        }
      }
    },
    {
      "fullUrl": "urn:uuid:3fa5b836-fdf5-4e66-a569-86ec5cac6f5d",
      "resource": {
        "resourceType": "Observation",
        "id": "3fa5b836-fdf5-4e66-a569-86ec5cac6f5d",
        "meta": {
          "profile": [
            "http://hl7.eu/fhir/laboratory/StructureDefinition/Observation-resultslab-eu-lab"
          ]
        },
        "performer": [
          {
            "display": "The Central European Lab"
          }
        ],
        "category": [
          {
            "coding": [
              {
                "system": "http://terminology.hl7.org/CodeSystem/observation-category",
                "code": "laboratory"
              }
            ]
          }
        ],
        "code": {
          "coding": [
            {
              "code": "5792-7",
              "system": "http://loinc.org",
              "display": "Glucose [Mass/volume] in Urine by Test strip"
            }
          ],
          "text": "Glucose [Mass/volume] in Urine by Test strip"
        },
        "valueQuantity": {
          "system": "http://unitsofmeasure.org",
          "value": 1.8,
          "unit": "mg/dL",
          "code": "mg/dL"
        },
        "referenceRange": [
          {
            "low": {
              "value": 0.8,
              "code": "mg/dL",
              "system": "http://unitsofmeasure.org"
            }
          },
          {
            "high": {
              "value": 0,
              "code": "mg/dL",
              "system": "http://unitsofmeasure.org"
            }
          }
        ],
        "interpretation": [
          {
            "coding": [
              {
                "code": "H",
                "system": "http://terminology.hl7.org/CodeSystem/v3-ObservationInterpretation",
                "display": "High"
              }
            ]
          }
        ],
        "text": {
          "status": "generated",
          "div": "<div xmlns=\"http://www.w3.org/1999/xhtml\"><table class=\"hl7__eu__lab__report\"><tr><th>Test</th><th>03-Jun-2021</th><th>Reference&#xA0;Range</th><th>Unit</th></tr><tr><td>Glucose [Mass/volume] in Urine by Test strip</td><td>1.8</td><td>0.8 - 0</td><td>H</td><td>mg/dL</td></tr></table></div>"
        },
        "status": "final",
        "subject": {
          "reference": "urn:uuid:a5f4729d-a9e7-4e5d-892f-76d63b163a80",
          "display": "Marthe Gallet"
        },
        "effectiveDateTime": "2021-06-03T19:05:43Z",
        "specimen": {
          "reference": "urn:uuid:c5e7e707-aa14-4e79-96f8-cd77251882df"
        }
      }
    },
    {
      "fullUrl": "urn:uuid:0558003b-8b25-4f54-8bfb-b94938dbfb91",
      "resource": {
        "resourceType": "Observation",
        "id": "0558003b-8b25-4f54-8bfb-b94938dbfb91",
        "meta": {
          "profile": [
            "http://hl7.eu/fhir/laboratory/StructureDefinition/Observation-resultslab-eu-lab"
          ]
        },
        "performer": [
          {
            "display": "The Central European Lab"
          }
        ],
        "category": [
          {
            "coding": [
              {
                "system": "http://terminology.hl7.org/CodeSystem/observation-category",
                "code": "laboratory"
              }
            ]
          }
        ],
        "code": {
          "coding": [
            {
              "code": "25428-4",
              "system": "http://loinc.org",
              "display": "Glucose [Presence] in Urine by Test strip"
            }
          ],
          "text": "Glucose [Presence] in Urine by Test strip"
        },
        "text": {
          "status": "generated",
          "div": "<div xmlns=\"http://www.w3.org/1999/xhtml\"><table class=\"hl7__eu__lab__report\"><tr><th>Test</th><th>03-Jun-2021</th><th>Reference&#xA0;Range</th><th>Unit</th></tr><tr><td>Glucose [Presence] in Urine by Test strip</td></tr></table></div>"
        },
        "status": "final",
        "subject": {
          "reference": "urn:uuid:a5f4729d-a9e7-4e5d-892f-76d63b163a80",
          "display": "Marthe Gallet"
        },
        "effectiveDateTime": "2021-06-03T19:05:43Z",
        "specimen": {
          "reference": "urn:uuid:c5e7e707-aa14-4e79-96f8-cd77251882df"
        }
      }
    },
    {
      "fullUrl": "urn:uuid:6cd99aaa-f8ea-48a5-9ebc-dce5e4527189",
      "resource": {
        "resourceType": "Observation",
        "id": "6cd99aaa-f8ea-48a5-9ebc-dce5e4527189",
        "meta": {
          "profile": [
            "http://hl7.eu/fhir/laboratory/StructureDefinition/Observation-resultslab-eu-lab"
          ]
        },
        "performer": [
          {
            "display": "The Central European Lab"
          }
        ],
        "category": [
          {
            "coding": [
              {
                "system": "http://terminology.hl7.org/CodeSystem/observation-category",
                "code": "laboratory"
              }
            ]
          }
        ],
        "code": {
          "coding": [
            {
              "code": "20505-4",
              "system": "http://loinc.org",
              "display": "Bilirubin.total [Mass/volume] in Urine by Test strip"
            }
          ],
          "text": "Bilirubin.total [Mass/volume] in Urine by Test strip"
        },
        "valueQuantity": {
          "system": "http://unitsofmeasure.org",
          "value": 0.6,
          "unit": "mg/dL",
          "code": "mg/dL"
        },
        "referenceRange": [
          {
            "low": {
              "value": 0,
              "code": "mg/dL",
              "system": "http://unitsofmeasure.org"
            }
          },
          {
            "high": {
              "value": 1,
              "code": "mg/dL",
              "system": "http://unitsofmeasure.org"
            }
          }
        ],
        "text": {
          "status": "generated",
          "div": "<div xmlns=\"http://www.w3.org/1999/xhtml\"><table class=\"hl7__eu__lab__report\"><tr><th>Test</th><th>03-Jun-2021</th><th>Reference&#xA0;Range</th><th>Unit</th></tr><tr><td>Bilirubin.total [Mass/volume] in Urine by Test strip</td><td>0.6</td><td>0 - 1</td><td></td><td>mg/dL</td></tr></table></div>"
        },
        "status": "final",
        "subject": {
          "reference": "urn:uuid:a5f4729d-a9e7-4e5d-892f-76d63b163a80",
          "display": "Marthe Gallet"
        },
        "effectiveDateTime": "2021-06-03T19:05:43Z",
        "specimen": {
          "reference": "urn:uuid:c5e7e707-aa14-4e79-96f8-cd77251882df"
        }
      }
    },
    {
      "fullUrl": "urn:uuid:1d88aa54-4894-44fb-a6ef-961b764704bb",
      "resource": {
        "resourceType": "Observation",
        "id": "1d88aa54-4894-44fb-a6ef-961b764704bb",
        "meta": {
          "profile": [
            "http://hl7.eu/fhir/laboratory/StructureDefinition/Observation-resultslab-eu-lab"
          ]
        },
        "performer": [
          {
            "display": "The Central European Lab"
          }
        ],
        "category": [
          {
            "coding": [
              {
                "system": "http://terminology.hl7.org/CodeSystem/observation-category",
                "code": "laboratory"
              }
            ]
          }
        ],
        "code": {
          "coding": [
            {
              "code": "5770-3",
              "system": "http://loinc.org",
              "display": "Bilirubin.total [Presence] in Urine by Test strip"
            }
          ],
          "text": "Bilirubin.total [Presence] in Urine by Test strip"
        },
        "text": {
          "status": "generated",
          "div": "<div xmlns=\"http://www.w3.org/1999/xhtml\"><table class=\"hl7__eu__lab__report\"><tr><th>Test</th><th>03-Jun-2021</th><th>Reference&#xA0;Range</th><th>Unit</th></tr><tr><td>Bilirubin.total [Presence] in Urine by Test strip</td></tr></table></div>"
        },
        "status": "final",
        "subject": {
          "reference": "urn:uuid:a5f4729d-a9e7-4e5d-892f-76d63b163a80",
          "display": "Marthe Gallet"
        },
        "effectiveDateTime": "2021-06-03T19:05:43Z",
        "specimen": {
          "reference": "urn:uuid:c5e7e707-aa14-4e79-96f8-cd77251882df"
        }
      }
    },
    {
      "fullUrl": "urn:uuid:b0173365-40a3-4adf-bfe3-1e9ef380f587",
      "resource": {
        "resourceType": "Observation",
        "id": "b0173365-40a3-4adf-bfe3-1e9ef380f587",
        "meta": {
          "profile": [
            "http://hl7.eu/fhir/laboratory/StructureDefinition/Observation-resultslab-eu-lab"
          ]
        },
        "performer": [
          {
            "display": "The Central European Lab"
          }
        ],
        "category": [
          {
            "coding": [
              {
                "system": "http://terminology.hl7.org/CodeSystem/observation-category",
                "code": "laboratory"
              }
            ]
          }
        ],
        "code": {
          "coding": [
            {
              "code": "5797-6",
              "system": "http://loinc.org",
              "display": "Ketones [Mass/volume] in Urine by Test strip"
            }
          ],
          "text": "Ketones [Mass/volume] in Urine by Test strip"
        },
        "valueQuantity": {
          "system": "http://unitsofmeasure.org",
          "value": 4.6,
          "unit": "mg/dL",
          "code": "mg/dL"
        },
        "referenceRange": [
          {
            "low": {
              "value": 0,
              "code": "mg/dL",
              "system": "http://unitsofmeasure.org"
            }
          },
          {
            "high": {
              "value": 20,
              "code": "mg/dL",
              "system": "http://unitsofmeasure.org"
            }
          }
        ],
        "text": {
          "status": "generated",
          "div": "<div xmlns=\"http://www.w3.org/1999/xhtml\"><table class=\"hl7__eu__lab__report\"><tr><th>Test</th><th>03-Jun-2021</th><th>Reference&#xA0;Range</th><th>Unit</th></tr><tr><td>Ketones [Mass/volume] in Urine by Test strip</td><td>4.6</td><td>0 - 20</td><td></td><td>mg/dL</td></tr></table></div>"
        },
        "status": "final",
        "subject": {
          "reference": "urn:uuid:a5f4729d-a9e7-4e5d-892f-76d63b163a80",
          "display": "Marthe Gallet"
        },
        "effectiveDateTime": "2021-06-03T19:05:43Z",
        "specimen": {
          "reference": "urn:uuid:c5e7e707-aa14-4e79-96f8-cd77251882df"
        }
      }
    },
    {
      "fullUrl": "urn:uuid:667ce19d-cd24-4e6a-b254-ed001895d881",
      "resource": {
        "resourceType": "Observation",
        "id": "667ce19d-cd24-4e6a-b254-ed001895d881",
        "meta": {
          "profile": [
            "http://hl7.eu/fhir/laboratory/StructureDefinition/Observation-resultslab-eu-lab"
          ]
        },
        "performer": [
          {
            "display": "The Central European Lab"
          }
        ],
        "category": [
          {
            "coding": [
              {
                "system": "http://terminology.hl7.org/CodeSystem/observation-category",
                "code": "laboratory"
              }
            ]
          }
        ],
        "code": {
          "coding": [
            {
              "code": "2514-8",
              "system": "http://loinc.org",
              "display": "Ketones [Presence] in Urine by Test strip"
            }
          ],
          "text": "Ketones [Presence] in Urine by Test strip"
        },
        "text": {
          "status": "generated",
          "div": "<div xmlns=\"http://www.w3.org/1999/xhtml\"><table class=\"hl7__eu__lab__report\"><tr><th>Test</th><th>03-Jun-2021</th><th>Reference&#xA0;Range</th><th>Unit</th></tr><tr><td>Ketones [Presence] in Urine by Test strip</td></tr></table></div>"
        },
        "status": "final",
        "subject": {
          "reference": "urn:uuid:a5f4729d-a9e7-4e5d-892f-76d63b163a80",
          "display": "Marthe Gallet"
        },
        "effectiveDateTime": "2021-06-03T19:05:43Z",
        "specimen": {
          "reference": "urn:uuid:c5e7e707-aa14-4e79-96f8-cd77251882df"
        }
      }
    },
    {
      "fullUrl": "urn:uuid:47079557-3c5b-4e5b-92eb-5ab324399d91",
      "resource": {
        "resourceType": "Observation",
        "id": "47079557-3c5b-4e5b-92eb-5ab324399d91",
        "meta": {
          "profile": [
            "http://hl7.eu/fhir/laboratory/StructureDefinition/Observation-resultslab-eu-lab"
          ]
        },
        "performer": [
          {
            "display": "The Central European Lab"
          }
        ],
        "category": [
          {
            "coding": [
              {
                "system": "http://terminology.hl7.org/CodeSystem/observation-category",
                "code": "laboratory"
              }
            ]
          }
        ],
        "code": {
          "coding": [
            {
              "code": "5811-5",
              "system": "http://loinc.org",
              "display": "Specific gravity of Urine by Test strip"
            }
          ],
          "text": "Specific gravity of Urine by Test strip"
        },
        "valueQuantity": {
          "system": "http://unitsofmeasure.org",
          "value": 1,
          "unit": "{nominal}",
          "code": "{nominal}"
        },
        "referenceRange": [
          {
            "low": {
              "value": 1.01,
              "code": "g/mL",
              "system": "http://unitsofmeasure.org"
            }
          },
          {
            "high": {
              "value": 1.03,
              "code": "g/mL",
              "system": "http://unitsofmeasure.org"
            }
          }
        ],
        "interpretation": [
          {
            "coding": [
              {
                "code": "L",
                "system": "http://terminology.hl7.org/CodeSystem/v3-ObservationInterpretation",
                "display": "Low"
              }
            ]
          }
        ],
        "text": {
          "status": "generated",
          "div": "<div xmlns=\"http://www.w3.org/1999/xhtml\"><table class=\"hl7__eu__lab__report\"><tr><th>Test</th><th>03-Jun-2021</th><th>Reference&#xA0;Range</th><th>Unit</th></tr><tr><td>Specific gravity of Urine by Test strip</td><td>1.0</td><td>1.01 - 1.03</td><td>L</td><td>{nominal}</td></tr></table></div>"
        },
        "status": "final",
        "subject": {
          "reference": "urn:uuid:a5f4729d-a9e7-4e5d-892f-76d63b163a80",
          "display": "Marthe Gallet"
        },
        "effectiveDateTime": "2021-06-03T19:05:43Z",
        "specimen": {
          "reference": "urn:uuid:c5e7e707-aa14-4e79-96f8-cd77251882df"
        }
      }
    },
    {
      "fullUrl": "urn:uuid:c6f39bc3-a560-4778-921e-6193c0370381",
      "resource": {
        "resourceType": "Observation",
        "id": "c6f39bc3-a560-4778-921e-6193c0370381",
        "meta": {
          "profile": [
            "http://hl7.eu/fhir/laboratory/StructureDefinition/Observation-resultslab-eu-lab"
          ]
        },
        "performer": [
          {
            "display": "The Central European Lab"
          }
        ],
        "category": [
          {
            "coding": [
              {
                "system": "http://terminology.hl7.org/CodeSystem/observation-category",
                "code": "laboratory"
              }
            ]
          }
        ],
        "code": {
          "coding": [
            {
              "code": "5803-2",
              "system": "http://loinc.org",
              "display": "pH of Urine by Test strip"
            }
          ],
          "text": "pH of Urine by Test strip"
        },
        "valueQuantity": {
          "system": "http://unitsofmeasure.org",
          "value": 5.1,
          "unit": "pH",
          "code": "pH"
        },
        "referenceRange": [
          {
            "low": {
              "value": 4.6,
              "code": "pH",
              "system": "http://unitsofmeasure.org"
            }
          },
          {
            "high": {
              "value": 7,
              "code": "pH",
              "system": "http://unitsofmeasure.org"
            }
          }
        ],
        "text": {
          "status": "generated",
          "div": "<div xmlns=\"http://www.w3.org/1999/xhtml\"><table class=\"hl7__eu__lab__report\"><tr><th>Test</th><th>03-Jun-2021</th><th>Reference&#xA0;Range</th><th>Unit</th></tr><tr><td>pH of Urine by Test strip</td><td>5.1</td><td>4.6 - 7</td><td></td><td>pH</td></tr></table></div>"
        },
        "status": "final",
        "subject": {
          "reference": "urn:uuid:a5f4729d-a9e7-4e5d-892f-76d63b163a80",
          "display": "Marthe Gallet"
        },
        "effectiveDateTime": "2021-06-03T19:05:43Z",
        "specimen": {
          "reference": "urn:uuid:c5e7e707-aa14-4e79-96f8-cd77251882df"
        }
      }
    },
    {
      "fullUrl": "urn:uuid:9bf87ac3-ef58-4a5e-a641-4355967ca61a",
      "resource": {
        "resourceType": "Observation",
        "id": "9bf87ac3-ef58-4a5e-a641-4355967ca61a",
        "meta": {
          "profile": [
            "http://hl7.eu/fhir/laboratory/StructureDefinition/Observation-resultslab-eu-lab"
          ]
        },
        "performer": [
          {
            "display": "The Central European Lab"
          }
        ],
        "category": [
          {
            "coding": [
              {
                "system": "http://terminology.hl7.org/CodeSystem/observation-category",
                "code": "laboratory"
              }
            ]
          }
        ],
        "code": {
          "coding": [
            {
              "code": "5804-0",
              "system": "http://loinc.org",
              "display": "Protein [Mass/volume] in Urine by Test strip"
            }
          ],
          "text": "Protein [Mass/volume] in Urine by Test strip"
        },
        "valueQuantity": {
          "system": "http://unitsofmeasure.org",
          "value": 227.9,
          "unit": "mg/dL",
          "code": "mg/dL"
        },
        "referenceRange": [
          {
            "low": {
              "value": 0,
              "code": "mg/dL",
              "system": "http://unitsofmeasure.org"
            }
          },
          {
            "high": {
              "value": 15,
              "code": "mg/dL",
              "system": "http://unitsofmeasure.org"
            }
          }
        ],
        "interpretation": [
          {
            "coding": [
              {
                "code": "H",
                "system": "http://terminology.hl7.org/CodeSystem/v3-ObservationInterpretation",
                "display": "High"
              }
            ]
          }
        ],
        "text": {
          "status": "generated",
          "div": "<div xmlns=\"http://www.w3.org/1999/xhtml\"><table class=\"hl7__eu__lab__report\"><tr><th>Test</th><th>03-Jun-2021</th><th>Reference&#xA0;Range</th><th>Unit</th></tr><tr><td>Protein [Mass/volume] in Urine by Test strip</td><td>227.9</td><td>0 - 15</td><td>H</td><td>mg/dL</td></tr></table></div>"
        },
        "status": "final",
        "subject": {
          "reference": "urn:uuid:a5f4729d-a9e7-4e5d-892f-76d63b163a80",
          "display": "Marthe Gallet"
        },
        "effectiveDateTime": "2021-06-03T19:05:43Z",
        "specimen": {
          "reference": "urn:uuid:c5e7e707-aa14-4e79-96f8-cd77251882df"
        }
      }
    },
    {
      "fullUrl": "urn:uuid:cd003190-d3d4-4e74-8b20-72f25ba424c5",
      "resource": {
        "resourceType": "Observation",
        "id": "cd003190-d3d4-4e74-8b20-72f25ba424c5",
        "meta": {
          "profile": [
            "http://hl7.eu/fhir/laboratory/StructureDefinition/Observation-resultslab-eu-lab"
          ]
        },
        "performer": [
          {
            "display": "The Central European Lab"
          }
        ],
        "category": [
          {
            "coding": [
              {
                "system": "http://terminology.hl7.org/CodeSystem/observation-category",
                "code": "laboratory"
              }
            ]
          }
        ],
        "code": {
          "coding": [
            {
              "code": "20454-5",
              "system": "http://loinc.org",
              "display": "Protein [Presence] in Urine by Test strip"
            }
          ],
          "text": "Protein [Presence] in Urine by Test strip"
        },
        "text": {
          "status": "generated",
          "div": "<div xmlns=\"http://www.w3.org/1999/xhtml\"><table class=\"hl7__eu__lab__report\"><tr><th>Test</th><th>03-Jun-2021</th><th>Reference&#xA0;Range</th><th>Unit</th></tr><tr><td>Protein [Presence] in Urine by Test strip</td></tr></table></div>"
        },
        "status": "final",
        "subject": {
          "reference": "urn:uuid:a5f4729d-a9e7-4e5d-892f-76d63b163a80",
          "display": "Marthe Gallet"
        },
        "effectiveDateTime": "2021-06-03T19:05:43Z",
        "specimen": {
          "reference": "urn:uuid:c5e7e707-aa14-4e79-96f8-cd77251882df"
        }
      }
    },
    {
      "fullUrl": "urn:uuid:e4d82a4c-7067-41a1-ba34-31656aa2559d",
      "resource": {
        "resourceType": "Observation",
        "id": "e4d82a4c-7067-41a1-ba34-31656aa2559d",
        "meta": {
          "profile": [
            "http://hl7.eu/fhir/laboratory/StructureDefinition/Observation-resultslab-eu-lab"
          ]
        },
        "performer": [
          {
            "display": "The Central European Lab"
          }
        ],
        "category": [
          {
            "coding": [
              {
                "system": "http://terminology.hl7.org/CodeSystem/observation-category",
                "code": "laboratory"
              }
            ]
          }
        ],
        "code": {
          "coding": [
            {
              "code": "5802-4",
              "system": "http://loinc.org",
              "display": "Nitrite [Presence] in Urine by Test strip"
            }
          ],
          "text": "Nitrite [Presence] in Urine by Test strip"
        },
        "text": {
          "status": "generated",
          "div": "<div xmlns=\"http://www.w3.org/1999/xhtml\"><table class=\"hl7__eu__lab__report\"><tr><th>Test</th><th>03-Jun-2021</th><th>Reference&#xA0;Range</th><th>Unit</th></tr><tr><td>Nitrite [Presence] in Urine by Test strip</td></tr></table></div>"
        },
        "status": "final",
        "subject": {
          "reference": "urn:uuid:a5f4729d-a9e7-4e5d-892f-76d63b163a80",
          "display": "Marthe Gallet"
        },
        "effectiveDateTime": "2021-06-03T19:05:43Z",
        "specimen": {
          "reference": "urn:uuid:c5e7e707-aa14-4e79-96f8-cd77251882df"
        }
      }
    },
    {
      "fullUrl": "urn:uuid:cb7d6744-6f43-4a62-bd02-b979405f42c7",
      "resource": {
        "resourceType": "Observation",
        "id": "cb7d6744-6f43-4a62-bd02-b979405f42c7",
        "meta": {
          "profile": [
            "http://hl7.eu/fhir/laboratory/StructureDefinition/Observation-resultslab-eu-lab"
          ]
        },
        "performer": [
          {
            "display": "The Central European Lab"
          }
        ],
        "category": [
          {
            "coding": [
              {
                "system": "http://terminology.hl7.org/CodeSystem/observation-category",
                "code": "laboratory"
              }
            ]
          }
        ],
        "code": {
          "coding": [
            {
              "code": "5794-3",
              "system": "http://loinc.org",
              "display": "Hemoglobin [Presence] in Urine by Test strip"
            }
          ],
          "text": "Hemoglobin [Presence] in Urine by Test strip"
        },
        "text": {
          "status": "generated",
          "div": "<div xmlns=\"http://www.w3.org/1999/xhtml\"><table class=\"hl7__eu__lab__report\"><tr><th>Test</th><th>03-Jun-2021</th><th>Reference&#xA0;Range</th><th>Unit</th></tr><tr><td>Hemoglobin [Presence] in Urine by Test strip</td></tr></table></div>"
        },
        "status": "final",
        "subject": {
          "reference": "urn:uuid:a5f4729d-a9e7-4e5d-892f-76d63b163a80",
          "display": "Marthe Gallet"
        },
        "effectiveDateTime": "2021-06-03T19:05:43Z",
        "specimen": {
          "reference": "urn:uuid:c5e7e707-aa14-4e79-96f8-cd77251882df"
        }
      }
    },
    {
      "fullUrl": "urn:uuid:9edaa16d-97c2-43a3-8039-2975e2d07eac",
      "resource": {
        "resourceType": "Observation",
        "id": "9edaa16d-97c2-43a3-8039-2975e2d07eac",
        "meta": {
          "profile": [
            "http://hl7.eu/fhir/laboratory/StructureDefinition/Observation-resultslab-eu-lab"
          ]
        },
        "performer": [
          {
            "display": "The Central European Lab"
          }
        ],
        "category": [
          {
            "coding": [
              {
                "system": "http://terminology.hl7.org/CodeSystem/observation-category",
                "code": "laboratory"
              }
            ]
          }
        ],
        "code": {
          "coding": [
            {
              "code": "5799-2",
              "system": "http://loinc.org",
              "display": "Leukocyte esterase [Presence] in Urine by Test strip"
            }
          ],
          "text": "Leukocyte esterase [Presence] in Urine by Test strip"
        },
        "text": {
          "status": "generated",
          "div": "<div xmlns=\"http://www.w3.org/1999/xhtml\"><table class=\"hl7__eu__lab__report\"><tr><th>Test</th><th>03-Jun-2021</th><th>Reference&#xA0;Range</th><th>Unit</th></tr><tr><td>Leukocyte esterase [Presence] in Urine by Test strip</td></tr></table></div>"
        },
        "status": "final",
        "subject": {
          "reference": "urn:uuid:a5f4729d-a9e7-4e5d-892f-76d63b163a80",
          "display": "Marthe Gallet"
        },
        "effectiveDateTime": "2021-06-03T19:05:43Z",
        "specimen": {
          "reference": "urn:uuid:c5e7e707-aa14-4e79-96f8-cd77251882df"
        }
      }
    },
    {
      "fullUrl": "urn:uuid:b2eeea47-d883-43e7-ae7b-e9d48743e46b",
      "resource": {
        "resourceType": "Device",
        "id": "b2eeea47-d883-43e7-ae7b-e9d48743e46b",
        "deviceName": [
          {
            "name": "SYNDERAI Synthetic Generator",
            "type": "manufacturer-name"
          }
        ],
        "version": [
          {
            "value": "5.0"
          }
        ],
        "text": {
          "status": "generated",
          "div": "<div xmlns=\"http://www.w3.org/1999/xhtml\">SYNDERAI Synthetic Generator v5.0</div>"
        },
        "status": "active\"",
        "distinctIdentifier": "synderai-generator-50",
        "manufacturer": "SYNDERAI Project"
      }
    },
    {
      "fullUrl": "urn:uuid:94461091-9e83-43d3-bfae-4d00ba3fa181",
      "resource": {
        "resourceType": "Provenance",
        "id": "94461091-9e83-43d3-bfae-4d00ba3fa181",
        "target": [
          {
            "reference": "Patient/a5f4729d-a9e7-4e5d-892f-76d63b163a80"
          },
          {
            "reference": "Bundle/3fd12b28-9f60-43d2-99b3-32a7705c80d3"
          },
          {
            "reference": "Composition/b4cc1aca-39f2-43c5-af1e-1581c2d59918"
          },
          {
            "reference": "PractitionerRole/9c52b593-56d3-408f-8556-a29516c6ad33"
          },
          {
            "reference": "Practitioner/32b6af30-c049-4c91-8f67-8c147b601be1"
          },
          {
            "reference": "PractitionerRole/04c3f5ad-0ff3-4900-9959-fd32c5bf9f90"
          },
          {
            "reference": "Organization/b068dfc8-ce0b-4e7b-97b9-1a7425f274f1"
          }
        ],
        "activity": {
          "text": "Synthetic Example Data Generation"
        },
        "policy": [
          "https://synderai.net/synderai-synthetic-data-policy"
        ],
        "agent": [
          {
            "type": {
              "text": "author"
            },
            "who": {
              "reference": "Device/b2eeea47-d883-43e7-ae7b-e9d48743e46b"
            }
          }
        ],
        "reason": [
          {
            "text": "Interoperability Testing and Training (non-clinical use)"
          }
        ],
        "text": {
          "status": "generated",
          "div": "<div xmlns=\"http://www.w3.org/1999/xhtml\">Provenance for SYNDERAI Synthetic Example Data Resource</div>"
        },
        "recorded": "2021-06-03T21:05:43Z"
      }
    },
    {
      "fullUrl": "urn:uuid:9c52b593-56d3-408f-8556-a29516c6ad33",
      "resource": {
        "resourceType": "PractitionerRole",
        "id": "9c52b593-56d3-408f-8556-a29516c6ad33",
        "meta": {
          "profile": [
            "http://hl7.eu/fhir/base/StructureDefinition/practitionerRole-eu"
          ]
        },
        "text": {
          "status": "generated",
          "div": "<div xmlns=\"http://www.w3.org/1999/xhtml\">Laboratory Role Id: 9c52b593-56d3-408f-8556-a29516c6ad33</div>"
        },
        "practitioner": {
          "reference": "urn:uuid:32b6af30-c049-4c91-8f67-8c147b601be1"
        }
      }
    },
    {
      "fullUrl": "urn:uuid:32b6af30-c049-4c91-8f67-8c147b601be1",
      "resource": {
        "resourceType": "Practitioner",
        "id": "32b6af30-c049-4c91-8f67-8c147b601be1",
        "meta": {
          "profile": [
            "http://hl7.eu/fhir/base/StructureDefinition/practitioner-eu"
          ]
        },
        "identifier": [
          {
            "assigner": {
              "display": "HL7 Europe"
            },
            "system": "urn:oid:2.16.840.1.113883.2.51.999",
            "value": "d6fa43ce-690d-48bc-a478-3ff2bda217ed"
          }
        ],
        "name": [
          {
            "prefix": [
              "dr"
            ],
            "given": [
              "Ex"
            ],
            "family": "Ample"
          }
        ],
        "address": [
          {
            "line": [
              "Laboratoire Central Européenne",
              "Boulevard du Jardin Botanique 32"
            ],
            "postalCode": "1000",
            "city": "Brussels",
            "country": "Belgium"
          }
        ],
        "text": {
          "status": "generated",
          "div": "<div xmlns=\"http://www.w3.org/1999/xhtml\">Laboratory: Laboratoire Central Européenne, 1000 Brussels, Belgium</div>"
        }
      }
    }
  ],
  "type": "document",
  "timestamp": "2021-06-03T21:05:43Z"
}
