{
  "resourceType": "Bundle",
  "id": "8bc6a22f-7413-4a49-9b9b-1ccac2edd617",
  "meta": {
    "profile": [
      "http://hl7.eu/fhir/laboratory/StructureDefinition/Bundle-eu-lab"
    ]
  },
  "identifier": {
    "assigner": {
      "display": "HL7 Europe"
    },
    "system": "urn:oid:2.16.840.1.113883.2.51.999",
    "value": "188c89bc-06bf-4f22-b210-7b309c23db8b"
  },
  "entry": [
    {
      "fullUrl": "urn:uuid:debcb87e-f07a-424d-91a7-49f488aaf314",
      "resource": {
        "resourceType": "Composition",
        "id": "debcb87e-f07a-424d-91a7-49f488aaf314",
        "meta": {
          "profile": [
            "http://hl7.eu/fhir/laboratory/StructureDefinition/Composition-eu-lab"
          ]
        },
        "identifier": {
          "assigner": {
            "display": "HL7 Europe"
          },
          "system": "urn:oid:2.16.840.1.113883.2.51.999",
          "value": "ac484382-b683-49c5-99e5-6cd74abe0e27"
        },
        "author": [
          {
            "reference": "urn:uuid:111315d2-9c04-46e7-b7ee-b6bd9b82b787"
          }
        ],
        "category": [
          {
            "coding": [
              {
                "code": "26436-6",
                "system": "http://loinc.org",
                "display": "Laboratory studies (set)"
              }
            ]
          }
        ],
        "type": {
          "coding": [
            {
              "code": "11502-2",
              "system": "http://loinc.org",
              "display": "Laboratory report"
            }
          ],
          "text": "Laboratory Report"
        },
        "section": [
          {
            "code": {
              "coding": [
                {
                  "code": "26436-6",
                  "system": "http://loinc.org",
                  "display": "Laboratory studies (set)"
                }
              ],
              "text": "Laboratory studies"
            },
            "section": [
              {
                "code": {
                  "coding": [
                    {
                      "code": "$18719-5",
                      "system": "http://loinc.org",
                      "display": "Chemistry studies (set)"
                    }
                  ],
                  "text": "Chemistry"
                },
                "entry": [
                  {
                    "reference": "urn:uuid:0d56dfc5-0669-4ec7-be91-b4a41d4b80d0"
                  },
                  {
                    "reference": "urn:uuid:ff4e70bb-9617-4f72-8377-93d9a1244558"
                  },
                  {
                    "reference": "urn:uuid:dd7b95ad-fb2b-426f-ab9d-86d8ef663879"
                  },
                  {
                    "reference": "urn:uuid:f1199f76-b592-4e35-9603-33d8962b5193"
                  },
                  {
                    "reference": "urn:uuid:f0009062-714b-452d-bb91-7c29cbae22af"
                  },
                  {
                    "reference": "urn:uuid:267f27ff-78ad-4f8b-8bad-d041f9281774"
                  },
                  {
                    "reference": "urn:uuid:ffcdde30-8dbe-4fde-95d2-0d6bfe939f03"
                  },
                  {
                    "reference": "urn:uuid:c073985c-d9d4-44f4-a1de-ca0a3fe24448"
                  },
                  {
                    "reference": "urn:uuid:6439b2ca-85c3-4599-b07a-035d4a2c7104"
                  },
                  {
                    "reference": "urn:uuid:6e692831-f36d-4ea8-8ebd-4a037647e481"
                  },
                  {
                    "reference": "urn:uuid:258f702d-7a71-4ea9-acb2-766752a06f72"
                  },
                  {
                    "reference": "urn:uuid:e630268d-1bb5-46a9-9031-41278d94deda"
                  },
                  {
                    "reference": "urn:uuid:6d7592b7-d334-429a-b77a-da9addc14902"
                  },
                  {
                    "reference": "urn:uuid:a326e7da-6a89-4e4a-951b-d422818ff5c7"
                  },
                  {
                    "reference": "urn:uuid:34d79cff-06f6-4dfb-a46c-514ce71cf1a9"
                  },
                  {
                    "reference": "urn:uuid:f8040d98-2e98-4b5a-b8e1-73d79ce77d48"
                  },
                  {
                    "reference": "urn:uuid:e5bf33df-c1ef-46bc-9160-fe7b83b95751"
                  },
                  {
                    "reference": "urn:uuid:ac48b0ab-84a1-4b86-94ce-75bbbeb6e76c"
                  }
                ],
                "text": {
                  "status": "generated",
                  "div": "<div xmlns=\"http://www.w3.org/1999/xhtml\"><h3>Chemistry</h3><table class=\"hl7__eu__lab__report\"><thead><tr><th>Test</th><th>19-SEP-2017</th><th>Reference&#xA0;Range</th><th>Unit</th></tr></thead><tbody><tr><td>Glucose [Mass/volume] in Serum or Plasma</td><td>89.1</td><td>70 - 99</td><td>mg/dL</td></tr><tr><td>Urea nitrogen [Mass/volume] in Serum or Plasma</td><td>12.6</td><td>7 - 50</td><td>mg/dL</td></tr><tr><td>Creatinine [Mass/volume] in Serum or Plasma</td><td><strong>2.0 H</strong></td><td>0.6 - 1.1</td><td>mg/dL</td></tr><tr><td>Calcium [Mass/volume] in Serum or Plasma</td><td>9.9</td><td>8.6 - 10.4</td><td>mg/dL</td></tr><tr><td>Sodium [Moles/volume] in Serum or Plasma</td><td>139.7</td><td>135 - 145</td><td>mmol/L</td></tr><tr><td>Potassium [Moles/volume] in Serum or Plasma</td><td>5.0</td><td>3.5 - 5.1</td><td>mmol/L</td></tr><tr><td>Chloride [Moles/volume] in Serum or Plasma</td><td>105.5</td><td>98 - 108</td><td>mmol/L</td></tr><tr><td>Carbon dioxide, total [Moles/volume] in Serum or Plasma</td><td><strong>20.3 L</strong></td><td>22 - 32</td><td>mmol/L</td></tr><tr><td>Ketones [Presence] in Urine by Test strip</td><td>Urine ketone test = +</td><td></td><td></td></tr><tr><td>Hemoglobin A1c/Hemoglobin.total in Blood</td><td><strong>3.0 L</strong></td><td>4 - 6.4</td><td>%</td></tr><tr><td>Glucose [Mass/volume] in Blood</td><td>89.1</td><td>70 - 100</td><td>mg/dL</td></tr><tr><td>Urea nitrogen [Mass/volume] in Blood</td><td>12.6</td><td>7 - 43</td><td>mg/dL</td></tr><tr><td>Creatinine [Mass/volume] in Blood</td><td><strong>1.4 H</strong></td><td>0.6 - 1.1</td><td>mg/dL</td></tr><tr><td>Calcium [Mass/volume] in Blood</td><td>9.9</td><td>8.5 - 10.5</td><td>mg/dL</td></tr><tr><td>Sodium [Moles/volume] in Blood</td><td>139.7</td><td>135 - 145</td><td>mmol/L</td></tr><tr><td>Potassium [Moles/volume] in Blood</td><td>5.0</td><td>3.5 - 5.1</td><td>mmol/L</td></tr><tr><td>Chloride [Moles/volume] in Blood</td><td>105.5</td><td>98 - 108</td><td>mmol/L</td></tr><tr><td>Carbon dioxide, total [Moles/volume] in Blood</td><td><strong>20.3 L</strong></td><td>22 - 29</td><td>mmol/L</td></tr></tbody></table></div>"
                },
                "title": "Chemistry"
              },
              {
                "code": {
                  "coding": [
                    {
                      "code": "$18729-4",
                      "system": "http://loinc.org",
                      "display": "Urinalysis studies (set)"
                    }
                  ],
                  "text": "Urinalysis"
                },
                "entry": [
                  {
                    "reference": "urn:uuid:9b308750-d1b5-4960-a4f3-9e9e9c883b37"
                  },
                  {
                    "reference": "urn:uuid:7364ac40-12cb-4dfe-b533-ec771aa89f95"
                  },
                  {
                    "reference": "urn:uuid:1feb7d22-928b-4107-bf6b-0b30750b8681"
                  },
                  {
                    "reference": "urn:uuid:1b9f0356-ab8f-40d3-9af1-a31d4a410696"
                  },
                  {
                    "reference": "urn:uuid:18a3b881-e11a-4554-9d09-8852eba1580b"
                  },
                  {
                    "reference": "urn:uuid:bdf55ffa-f912-426d-9b70-946aefc22225"
                  },
                  {
                    "reference": "urn:uuid:090d317e-c790-4231-8b96-02dcee51ed3b"
                  },
                  {
                    "reference": "urn:uuid:74a7d030-2988-485b-ab38-84961e17dbe8"
                  },
                  {
                    "reference": "urn:uuid:60c60666-00ee-4960-8cc8-fe4668f0f925"
                  },
                  {
                    "reference": "urn:uuid:5bf3ed83-efb4-43a2-82c1-a17198225102"
                  },
                  {
                    "reference": "urn:uuid:f8a7d686-9d1e-416a-9508-9e5eebd06c73"
                  },
                  {
                    "reference": "urn:uuid:5498ab6f-80f5-4b5d-b239-e1c5eee302ee"
                  }
                ],
                "text": {
                  "status": "generated",
                  "div": "<div xmlns=\"http://www.w3.org/1999/xhtml\"><h3>Urinalysis</h3><table class=\"hl7__eu__lab__report\"><thead><tr><th>Test</th><th>19-SEP-2017</th><th>Reference&#xA0;Range</th><th>Unit</th></tr></thead><tbody><tr><td>Glucose [Mass/volume] in Urine by Test strip</td><td><strong>1.3 H</strong></td><td>0.8 - 0</td><td>mg/dL</td></tr><tr><td>Glucose [Presence] in Urine by Test strip</td><td>++</td><td></td><td></td></tr><tr><td>Bilirubin.total [Mass/volume] in Urine by Test strip</td><td>0.3</td><td>0 - 1</td><td>mg/dL</td></tr><tr><td>Bilirubin.total [Presence] in Urine by Test strip</td><td>Finding of bilirubin in urine</td><td></td><td></td></tr><tr><td>Ketones [Mass/volume] in Urine by Test strip</td><td><strong>16.7 H</strong></td><td>0 - 4</td><td>mg/dL</td></tr><tr><td>Specific gravity of Urine by Test strip</td><td><strong>1.0 L</strong></td><td>1.005 - 1.03</td><td>{nominal}</td></tr><tr><td>pH of Urine by Test strip</td><td>6.9</td><td>4.6 - 7</td><td>pH</td></tr><tr><td>Protein [Mass/volume] in Urine by Test strip</td><td><strong>348.7 H</strong></td><td>0 - 14</td><td>mg/dL</td></tr><tr><td>Protein [Presence] in Urine by Test strip</td><td>Urine protein test = ++</td><td></td><td></td></tr><tr><td>Nitrite [Presence] in Urine by Test strip</td><td>Urine nitrite negative</td><td></td><td></td></tr><tr><td>Hemoglobin [Presence] in Urine by Test strip</td><td>Urine blood test = negative</td><td></td><td></td></tr><tr><td>Leukocyte esterase [Presence] in Urine by Test strip</td><td>Urine leukocyte test negative</td><td></td><td></td></tr></tbody></table></div>"
                },
                "title": "Urinalysis"
              },
              {
                "code": {
                  "coding": [
                    {
                      "code": "$LP7846-1",
                      "system": "http://loinc.org",
                      "display": "Specimen information"
                    }
                  ],
                  "text": "Specimen information"
                },
                "entry": [
                  {
                    "reference": "urn:uuid:5b2b4ee4-c2ad-4703-b7ef-5ba02defca3a"
                  },
                  {
                    "reference": "urn:uuid:39e9ffaa-e725-4083-bdac-8574566aac20"
                  },
                  {
                    "reference": "urn:uuid:75d28220-0de9-4600-a7f6-fa1f2c61e5b9"
                  },
                  {
                    "reference": "urn:uuid:eca8bd31-54af-4a6f-9fd9-7c61326158fc"
                  }
                ],
                "text": {
                  "status": "generated",
                  "div": "<div xmlns=\"http://www.w3.org/1999/xhtml\"><h3>Specimen information</h3><table class=\"hl7__eu__lab__report\"><thead><tr><th>Test</th><th>19-SEP-2017</th><th>Specimen</th><th></th></tr></thead><tbody><tr><td>Appearance of Urine</td><td>Cloudy urine</td><td>Urine</td><td></td></tr><tr><td>Odor of Urine</td><td>Urine smell ammoniacal</td><td>Urine</td><td></td></tr><tr><td>Clarity of Urine</td><td>Translucent</td><td>Urine</td><td></td></tr><tr><td>Color of Urine</td><td>Brown color</td><td>Urine</td><td></td></tr></tbody></table></div>"
                },
                "title": "Specimen information"
              }
            ],
            "title": "Laboratory Report"
          },
          {
            "text": {
              "status": "generated",
              "div": "<div xmlns=\"http://www.w3.org/1999/xhtml\"><h3>Annotation</h3><table class=\"hl7__eu__lab__report\"><tr><th>Conclusion and Recommendations based on this report and previous findings known to us</th></tr><tr><td>The patient shows elevated creatinine, low total CO₂, significant proteinuria, glucosuria, and ketonuria, with low urine specific gravity. These findings suggest impaired renal function, possible nephrotic syndrome or diabetic nephropathy, and metabolic acidosis. However, HbA1c is low, arguing against chronic hyperglycemia. Urine is cloudy and brown, but no evidence of infection. Recommend urgent nephrology evaluation and further assessment for underlying renal and metabolic disorders.</td></tr></table></div>"
            },
            "code": {
              "coding": [
                {
                  "system": "http://loinc.org",
                  "code": "48767-8",
                  "display": "Annotation comment"
                }
              ]
            },
            "title": "Annotation comment"
          }
        ],
        "status": "final",
        "subject": {
          "reference": "urn:uuid:1aef801f-a32a-41a4-80e5-3681aadc29ee",
          "display": "Meaghan Neary"
        },
        "date": "2017-09-19T00:11:04Z",
        "title": "Laboratory Report",
        "confidentiality": "N"
      }
    },
    {
      "fullUrl": "urn:uuid:56cb081c-2a67-4b7a-b32b-c73ec4a2f63e",
      "resource": {
        "resourceType": "DiagnosticReport",
        "id": "56cb081c-2a67-4b7a-b32b-c73ec4a2f63e",
        "meta": {
          "profile": [
            "http://hl7.eu/fhir/laboratory/StructureDefinition/DiagnosticReport-eu-lab"
          ]
        },
        "identifier": [
          {
            "assigner": {
              "display": "HL7 Europe"
            },
            "system": "urn:oid:2.16.840.1.113883.2.51.999",
            "value": "b0014e08-15db-4458-a4d1-7b5d56d056df"
          }
        ],
        "extension": [
          {
            "url": "http://hl7.org/fhir/5.0/StructureDefinition/extension-DiagnosticReport.composition",
            "valueReference": {
              "reference": "urn:uuid:ac484382-b683-49c5-99e5-6cd74abe0e27"
            }
          }
        ],
        "category": [
          {
            "coding": [
              {
                "code": "26436-6",
                "system": "http://loinc.org",
                "display": "Laboratory studies (set)"
              }
            ]
          }
        ],
        "specimen": [
          {
            "reference": "urn:uuid:5e154f69-c0f9-4e3a-b6c8-a43100bacacd"
          },
          {
            "reference": "urn:uuid:cc801a16-bcb8-49d0-bdf4-808e2ce591e9"
          },
          {
            "reference": "urn:uuid:e9c498e2-6021-4353-81de-b6491ae7b35a"
          }
        ],
        "result": [
          {
            "reference": "urn:uuid:0d56dfc5-0669-4ec7-be91-b4a41d4b80d0"
          },
          {
            "reference": "urn:uuid:ff4e70bb-9617-4f72-8377-93d9a1244558"
          },
          {
            "reference": "urn:uuid:dd7b95ad-fb2b-426f-ab9d-86d8ef663879"
          },
          {
            "reference": "urn:uuid:f1199f76-b592-4e35-9603-33d8962b5193"
          },
          {
            "reference": "urn:uuid:f0009062-714b-452d-bb91-7c29cbae22af"
          },
          {
            "reference": "urn:uuid:267f27ff-78ad-4f8b-8bad-d041f9281774"
          },
          {
            "reference": "urn:uuid:ffcdde30-8dbe-4fde-95d2-0d6bfe939f03"
          },
          {
            "reference": "urn:uuid:c073985c-d9d4-44f4-a1de-ca0a3fe24448"
          },
          {
            "reference": "urn:uuid:5b2b4ee4-c2ad-4703-b7ef-5ba02defca3a"
          },
          {
            "reference": "urn:uuid:39e9ffaa-e725-4083-bdac-8574566aac20"
          },
          {
            "reference": "urn:uuid:75d28220-0de9-4600-a7f6-fa1f2c61e5b9"
          },
          {
            "reference": "urn:uuid:eca8bd31-54af-4a6f-9fd9-7c61326158fc"
          },
          {
            "reference": "urn:uuid:9b308750-d1b5-4960-a4f3-9e9e9c883b37"
          },
          {
            "reference": "urn:uuid:7364ac40-12cb-4dfe-b533-ec771aa89f95"
          },
          {
            "reference": "urn:uuid:1feb7d22-928b-4107-bf6b-0b30750b8681"
          },
          {
            "reference": "urn:uuid:1b9f0356-ab8f-40d3-9af1-a31d4a410696"
          },
          {
            "reference": "urn:uuid:18a3b881-e11a-4554-9d09-8852eba1580b"
          },
          {
            "reference": "urn:uuid:6439b2ca-85c3-4599-b07a-035d4a2c7104"
          },
          {
            "reference": "urn:uuid:bdf55ffa-f912-426d-9b70-946aefc22225"
          },
          {
            "reference": "urn:uuid:090d317e-c790-4231-8b96-02dcee51ed3b"
          },
          {
            "reference": "urn:uuid:74a7d030-2988-485b-ab38-84961e17dbe8"
          },
          {
            "reference": "urn:uuid:60c60666-00ee-4960-8cc8-fe4668f0f925"
          },
          {
            "reference": "urn:uuid:5bf3ed83-efb4-43a2-82c1-a17198225102"
          },
          {
            "reference": "urn:uuid:f8a7d686-9d1e-416a-9508-9e5eebd06c73"
          },
          {
            "reference": "urn:uuid:5498ab6f-80f5-4b5d-b239-e1c5eee302ee"
          },
          {
            "reference": "urn:uuid:6e692831-f36d-4ea8-8ebd-4a037647e481"
          },
          {
            "reference": "urn:uuid:258f702d-7a71-4ea9-acb2-766752a06f72"
          },
          {
            "reference": "urn:uuid:e630268d-1bb5-46a9-9031-41278d94deda"
          },
          {
            "reference": "urn:uuid:6d7592b7-d334-429a-b77a-da9addc14902"
          },
          {
            "reference": "urn:uuid:a326e7da-6a89-4e4a-951b-d422818ff5c7"
          },
          {
            "reference": "urn:uuid:34d79cff-06f6-4dfb-a46c-514ce71cf1a9"
          },
          {
            "reference": "urn:uuid:f8040d98-2e98-4b5a-b8e1-73d79ce77d48"
          },
          {
            "reference": "urn:uuid:e5bf33df-c1ef-46bc-9160-fe7b83b95751"
          },
          {
            "reference": "urn:uuid:ac48b0ab-84a1-4b86-94ce-75bbbeb6e76c"
          }
        ],
        "status": "registered",
        "code": {
          "coding": [
            {
              "code": "11502-2",
              "system": "http://loinc.org",
              "display": "Laboratory report"
            }
          ]
        },
        "subject": {
          "reference": "urn:uuid:1aef801f-a32a-41a4-80e5-3681aadc29ee",
          "display": "Meaghan Neary"
        }
      }
    },
    {
      "fullUrl": "urn:uuid:1aef801f-a32a-41a4-80e5-3681aadc29ee",
      "resource": {
        "resourceType": "Patient",
        "id": "1aef801f-a32a-41a4-80e5-3681aadc29ee",
        "meta": {
          "security": [
            {
              "system": "http://terminology.hl7.org/CodeSystem/v3-ActReason",
              "code": "HTEST"
            },
            {
              "system": "http://terminology.hl7.org/CodeSystem/v3-ActReason",
              "code": "TRAIN"
            }
          ],
          "tag": [
            {
              "system": "https://synderai.net/fhir/CodeSystem/tags",
              "code": "synthetic",
              "display": "SYNDERAI Synthetic data"
            }
          ],
          "profile": [
            "http://hl7.eu/fhir/base/StructureDefinition/patient-eu-core"
          ]
        },
        "identifier": [
          {
            "type": {
              "coding": [
                {
                  "code": "PT",
                  "system": "http://terminology.hl7.org/CodeSystem/v2-0203"
                }
              ]
            },
            "system": "http://ec.europa.eu/identifier/eci",
            "value": "1586-567257-8"
          },
          {
            "type": {
              "coding": [
                {
                  "code": "MR",
                  "system": "http://terminology.hl7.org/CodeSystem/v2-0203"
                }
              ]
            },
            "system": "http://local.setting.eu/identifier",
            "value": "443e6379-f231-b364-3ccb-644740a1aa2a"
          }
        ],
        "name": [
          {
            "family": "Neary"
          },
          {
            "given": [
              "Meaghan"
            ]
          },
          {
            "text": "Meaghan Neary"
          }
        ],
        "address": [
          {
            "line": [
              "64 Linskey Street"
            ],
            "use": "home",
            "type": "physical",
            "postalCode": "D02",
            "city": "Dublin",
            "country": "Ireland"
          }
        ],
        "telecom": [
          {
            "system": "phone",
            "value": "001-967-573-0911x465"
          }
        ],
        "extension": [
          {
            "url": "http://hl7.org/fhir/StructureDefinition/patient-nationality",
            "valueCodeableConcept": {
              "coding": [
                {
                  "code": "IE",
                  "system": "http://hl7.org/fhir/ValueSet/country"
                }
              ]
            }
          }
        ],
        "text": {
          "status": "generated",
          "div": "<div xmlns=\"http://www.w3.org/1999/xhtml\"><table class=\"hl7__ips\"><tr><td>Meaghan Neary</td><td>female</td><td>19-Dec-1960</td></tr></table></div>"
        },
        "gender": "female",
        "birthDate": "1960-12-19"
      }
    },
    {
      "fullUrl": "urn:uuid:1271dc8b-8757-4bca-afa6-667b31fff895",
      "resource": {
        "resourceType": "ServiceRequest",
        "id": "1271dc8b-8757-4bca-afa6-667b31fff895",
        "meta": {
          "profile": [
            "http://hl7.eu/fhir/laboratory/StructureDefinition/ServiceRequest-eu-lab"
          ]
        },
        "identifier": [
          {
            "system": "http://example.org",
            "value": "608def8d-acd8-4286-9dd3-bd929b3f6b83"
          }
        ],
        "specimen": [
          {
            "reference": "urn:uuid:5e154f69-c0f9-4e3a-b6c8-a43100bacacd"
          },
          {
            "reference": "urn:uuid:cc801a16-bcb8-49d0-bdf4-808e2ce591e9"
          },
          {
            "reference": "urn:uuid:e9c498e2-6021-4353-81de-b6491ae7b35a"
          }
        ],
        "reasonCode": [
          {
            "coding": [
              {
                "code": "55822004",
                "system": "http://snomed.info/sct",
                "display": "Hyperlipidemia"
              }
            ]
          },
          {
            "coding": [
              {
                "code": "433144002",
                "system": "http://snomed.info/sct",
                "display": "Chronic kidney disease stage 3"
              }
            ]
          },
          {
            "coding": [
              {
                "code": "157141000119108",
                "system": "http://snomed.info/sct",
                "display": "Proteinuria due to type 2 diabetes mellitus"
              }
            ]
          },
          {
            "coding": [
              {
                "code": "431856006",
                "system": "http://snomed.info/sct",
                "display": "Chronic kidney disease stage 2"
              }
            ]
          },
          {
            "coding": [
              {
                "code": "90781000119102",
                "system": "http://snomed.info/sct",
                "display": "Microalbuminuria due to type 2 diabetes mellitus"
              }
            ]
          },
          {
            "coding": [
              {
                "code": "127013003",
                "system": "http://snomed.info/sct",
                "display": "Disorder of kidney due to diabetes mellitus"
              }
            ]
          },
          {
            "coding": [
              {
                "code": "431855005",
                "system": "http://snomed.info/sct",
                "display": "Chronic kidney disease stage 1"
              }
            ]
          },
          {
            "coding": [
              {
                "code": "237602007",
                "system": "http://snomed.info/sct",
                "display": "Metabolic syndrome X"
              }
            ]
          },
          {
            "coding": [
              {
                "code": "271737000",
                "system": "http://snomed.info/sct",
                "display": "Anemia"
              }
            ]
          },
          {
            "coding": [
              {
                "code": "15777000",
                "system": "http://snomed.info/sct",
                "display": "Prediabetes"
              }
            ]
          },
          {
            "coding": [
              {
                "code": "59621000",
                "system": "http://snomed.info/sct",
                "display": "Essential hypertension"
              }
            ]
          }
        ],
        "status": "active",
        "intent": "order",
        "code": {
          "coding": [
            {
              "code": "108252007",
              "system": "http://snomed.info/sct",
              "display": "Laboratory procedure"
            }
          ]
        },
        "subject": {
          "reference": "urn:uuid:1aef801f-a32a-41a4-80e5-3681aadc29ee",
          "display": "Meaghan Neary"
        },
        "requester": {
          "reference": "urn:uuid:2c984864-6663-42cc-ad68-54d63284e4e2"
        }
      }
    },
    {
      "fullUrl": "urn:uuid:2c984864-6663-42cc-ad68-54d63284e4e2",
      "resource": {
        "resourceType": "PractitionerRole",
        "id": "2c984864-6663-42cc-ad68-54d63284e4e2",
        "meta": {
          "profile": [
            "http://hl7.eu/fhir/base/StructureDefinition/practitionerRole-eu"
          ]
        },
        "text": {
          "status": "generated",
          "div": "<div xmlns=\"http://www.w3.org/1999/xhtml\">Provider Role Id: 2c984864-6663-42cc-ad68-54d63284e4e2</div>"
        },
        "organization": {
          "reference": "urn:uuid:9f0ba8ca-5e74-4626-b75f-872bddee4d5d"
        }
      }
    },
    {
      "fullUrl": "urn:uuid:9f0ba8ca-5e74-4626-b75f-872bddee4d5d",
      "resource": {
        "resourceType": "Organization",
        "id": "9f0ba8ca-5e74-4626-b75f-872bddee4d5d",
        "meta": {
          "profile": [
            "http://hl7.eu/fhir/base/StructureDefinition/organization-eu"
          ]
        },
        "identifier": [
          {
            "assigner": {
              "display": "HL7 Europe"
            },
            "system": "urn:oid:2.16.840.1.113883.2.51.999",
            "value": "b5ddd54b-d7a6-4cab-8069-93db90353d09"
          }
        ],
        "address": [
          {
            "line": [
              "Parnell Square West nan"
            ],
            "city": "Dublin",
            "postalCode": "D01",
            "country": "Ireland"
          }
        ],
        "text": {
          "status": "generated",
          "div": "<div xmlns=\"http://www.w3.org/1999/xhtml\">Provider Organization: Rotunda Hospital</div>"
        },
        "name": "Rotunda Hospital"
      }
    },
    {
      "fullUrl": "urn:uuid:5e154f69-c0f9-4e3a-b6c8-a43100bacacd",
      "resource": {
        "resourceType": "Specimen",
        "id": "5e154f69-c0f9-4e3a-b6c8-a43100bacacd",
        "meta": {
          "profile": [
            "http://hl7.eu/fhir/laboratory/StructureDefinition/Specimen-eu-lab"
          ]
        },
        "collection": {
          "collectedDateTime": "2017-09-18"
        },
        "text": {
          "status": "generated",
          "div": "<div xmlns=\"http://www.w3.org/1999/xhtml\"><table class=\"hl7__eu__lab__report\"><tr><th>Specimen</th><th>Collection Date</th></tr><tr><td>Acellular blood (serum or plasma) specimen</td><td><span class=\"nb\">18-Sep-2017</span></td></tr></table></div>"
        },
        "type": {
          "coding": [
            {
              "code": "122592007",
              "system": "http://snomed.info/sct",
              "display": "Acellular blood (serum or plasma) specimen"
            }
          ]
        }
      }
    },
    {
      "fullUrl": "urn:uuid:cc801a16-bcb8-49d0-bdf4-808e2ce591e9",
      "resource": {
        "resourceType": "Specimen",
        "id": "cc801a16-bcb8-49d0-bdf4-808e2ce591e9",
        "meta": {
          "profile": [
            "http://hl7.eu/fhir/laboratory/StructureDefinition/Specimen-eu-lab"
          ]
        },
        "collection": {
          "collectedDateTime": "2017-09-18"
        },
        "text": {
          "status": "generated",
          "div": "<div xmlns=\"http://www.w3.org/1999/xhtml\"><table class=\"hl7__eu__lab__report\"><tr><th>Specimen</th><th>Collection Date</th></tr><tr><td>Urine specimen</td><td><span class=\"nb\">18-Sep-2017</span></td></tr></table></div>"
        },
        "type": {
          "coding": [
            {
              "code": "122575003",
              "system": "http://snomed.info/sct",
              "display": "Urine specimen"
            }
          ]
        }
      }
    },
    {
      "fullUrl": "urn:uuid:e9c498e2-6021-4353-81de-b6491ae7b35a",
      "resource": {
        "resourceType": "Specimen",
        "id": "e9c498e2-6021-4353-81de-b6491ae7b35a",
        "meta": {
          "profile": [
            "http://hl7.eu/fhir/laboratory/StructureDefinition/Specimen-eu-lab"
          ]
        },
        "collection": {
          "collectedDateTime": "2017-09-18"
        },
        "text": {
          "status": "generated",
          "div": "<div xmlns=\"http://www.w3.org/1999/xhtml\"><table class=\"hl7__eu__lab__report\"><tr><th>Specimen</th><th>Collection Date</th></tr><tr><td>Whole blood specimen (specimen)</td><td><span class=\"nb\">18-Sep-2017</span></td></tr></table></div>"
        },
        "type": {
          "coding": [
            {
              "code": "258580003",
              "system": "http://snomed.info/sct",
              "display": "Whole blood specimen (specimen)"
            }
          ]
        }
      }
    },
    {
      "fullUrl": "urn:uuid:0d56dfc5-0669-4ec7-be91-b4a41d4b80d0",
      "resource": {
        "resourceType": "Observation",
        "id": "0d56dfc5-0669-4ec7-be91-b4a41d4b80d0",
        "meta": {
          "profile": [
            "http://hl7.eu/fhir/laboratory/StructureDefinition/Observation-resultslab-eu-lab"
          ]
        },
        "performer": [
          {
            "display": "The Central European Lab"
          }
        ],
        "category": [
          {
            "coding": [
              {
                "system": "http://terminology.hl7.org/CodeSystem/observation-category",
                "code": "laboratory"
              }
            ]
          }
        ],
        "code": {
          "coding": [
            {
              "code": "2345-7",
              "system": "http://loinc.org",
              "display": "Glucose [Mass/volume] in Serum or Plasma"
            }
          ],
          "text": "Glucose [Mass/volume] in Serum or Plasma"
        },
        "valueQuantity": {
          "system": "http://unitsofmeasure.org",
          "value": 89.1,
          "unit": "mg/dL",
          "code": "mg/dL"
        },
        "referenceRange": [
          {
            "low": {
              "value": 70,
              "code": "mg/dL",
              "system": "http://unitsofmeasure.org"
            }
          },
          {
            "high": {
              "value": 99,
              "code": "mg/dL",
              "system": "http://unitsofmeasure.org"
            }
          }
        ],
        "text": {
          "status": "generated",
          "div": "<div xmlns=\"http://www.w3.org/1999/xhtml\"><table class=\"hl7__eu__lab__report\"><tr><th>Test</th><th>19-Sep-2017</th><th>Reference&#xA0;Range</th><th>Unit</th></tr><tr><td>Glucose [Mass/volume] in Serum or Plasma</td><td>89.1</td><td>70 - 99</td><td></td><td>mg/dL</td></tr></table></div>"
        },
        "status": "final",
        "subject": {
          "reference": "urn:uuid:1aef801f-a32a-41a4-80e5-3681aadc29ee",
          "display": "Meaghan Neary"
        },
        "effectiveDateTime": "2017-09-18T22:11:04Z",
        "specimen": {
          "reference": "urn:uuid:5e154f69-c0f9-4e3a-b6c8-a43100bacacd"
        }
      }
    },
    {
      "fullUrl": "urn:uuid:ff4e70bb-9617-4f72-8377-93d9a1244558",
      "resource": {
        "resourceType": "Observation",
        "id": "ff4e70bb-9617-4f72-8377-93d9a1244558",
        "meta": {
          "profile": [
            "http://hl7.eu/fhir/laboratory/StructureDefinition/Observation-resultslab-eu-lab"
          ]
        },
        "performer": [
          {
            "display": "The Central European Lab"
          }
        ],
        "category": [
          {
            "coding": [
              {
                "system": "http://terminology.hl7.org/CodeSystem/observation-category",
                "code": "laboratory"
              }
            ]
          }
        ],
        "code": {
          "coding": [
            {
              "code": "3094-0",
              "system": "http://loinc.org",
              "display": "Urea nitrogen [Mass/volume] in Serum or Plasma"
            }
          ],
          "text": "Urea nitrogen [Mass/volume] in Serum or Plasma"
        },
        "valueQuantity": {
          "system": "http://unitsofmeasure.org",
          "value": 12.6,
          "unit": "mg/dL",
          "code": "mg/dL"
        },
        "referenceRange": [
          {
            "low": {
              "value": 7,
              "code": "mg/dL",
              "system": "http://unitsofmeasure.org"
            }
          },
          {
            "high": {
              "value": 50,
              "code": "mg/dL",
              "system": "http://unitsofmeasure.org"
            }
          }
        ],
        "text": {
          "status": "generated",
          "div": "<div xmlns=\"http://www.w3.org/1999/xhtml\"><table class=\"hl7__eu__lab__report\"><tr><th>Test</th><th>19-Sep-2017</th><th>Reference&#xA0;Range</th><th>Unit</th></tr><tr><td>Urea nitrogen [Mass/volume] in Serum or Plasma</td><td>12.6</td><td>7 - 50</td><td></td><td>mg/dL</td></tr></table></div>"
        },
        "status": "final",
        "subject": {
          "reference": "urn:uuid:1aef801f-a32a-41a4-80e5-3681aadc29ee",
          "display": "Meaghan Neary"
        },
        "effectiveDateTime": "2017-09-18T22:11:04Z",
        "specimen": {
          "reference": "urn:uuid:5e154f69-c0f9-4e3a-b6c8-a43100bacacd"
        }
      }
    },
    {
      "fullUrl": "urn:uuid:dd7b95ad-fb2b-426f-ab9d-86d8ef663879",
      "resource": {
        "resourceType": "Observation",
        "id": "dd7b95ad-fb2b-426f-ab9d-86d8ef663879",
        "meta": {
          "profile": [
            "http://hl7.eu/fhir/laboratory/StructureDefinition/Observation-resultslab-eu-lab"
          ]
        },
        "performer": [
          {
            "display": "The Central European Lab"
          }
        ],
        "category": [
          {
            "coding": [
              {
                "system": "http://terminology.hl7.org/CodeSystem/observation-category",
                "code": "laboratory"
              }
            ]
          }
        ],
        "code": {
          "coding": [
            {
              "code": "2160-0",
              "system": "http://loinc.org",
              "display": "Creatinine [Mass/volume] in Serum or Plasma"
            }
          ],
          "text": "Creatinine [Mass/volume] in Serum or Plasma"
        },
        "valueQuantity": {
          "system": "http://unitsofmeasure.org",
          "value": 2,
          "unit": "mg/dL",
          "code": "mg/dL"
        },
        "referenceRange": [
          {
            "low": {
              "value": 0.6,
              "code": "mg/dL",
              "system": "http://unitsofmeasure.org"
            }
          },
          {
            "high": {
              "value": 1.1,
              "code": "mg/dL",
              "system": "http://unitsofmeasure.org"
            }
          }
        ],
        "interpretation": [
          {
            "coding": [
              {
                "code": "H",
                "system": "http://terminology.hl7.org/CodeSystem/v3-ObservationInterpretation",
                "display": "High"
              }
            ]
          }
        ],
        "text": {
          "status": "generated",
          "div": "<div xmlns=\"http://www.w3.org/1999/xhtml\"><table class=\"hl7__eu__lab__report\"><tr><th>Test</th><th>19-Sep-2017</th><th>Reference&#xA0;Range</th><th>Unit</th></tr><tr><td>Creatinine [Mass/volume] in Serum or Plasma</td><td>2.0</td><td>0.6 - 1.1</td><td>H</td><td>mg/dL</td></tr></table></div>"
        },
        "status": "final",
        "subject": {
          "reference": "urn:uuid:1aef801f-a32a-41a4-80e5-3681aadc29ee",
          "display": "Meaghan Neary"
        },
        "effectiveDateTime": "2017-09-18T22:11:04Z",
        "specimen": {
          "reference": "urn:uuid:5e154f69-c0f9-4e3a-b6c8-a43100bacacd"
        }
      }
    },
    {
      "fullUrl": "urn:uuid:f1199f76-b592-4e35-9603-33d8962b5193",
      "resource": {
        "resourceType": "Observation",
        "id": "f1199f76-b592-4e35-9603-33d8962b5193",
        "meta": {
          "profile": [
            "http://hl7.eu/fhir/laboratory/StructureDefinition/Observation-resultslab-eu-lab"
          ]
        },
        "performer": [
          {
            "display": "The Central European Lab"
          }
        ],
        "category": [
          {
            "coding": [
              {
                "system": "http://terminology.hl7.org/CodeSystem/observation-category",
                "code": "laboratory"
              }
            ]
          }
        ],
        "code": {
          "coding": [
            {
              "code": "17861-6",
              "system": "http://loinc.org",
              "display": "Calcium [Mass/volume] in Serum or Plasma"
            }
          ],
          "text": "Calcium [Mass/volume] in Serum or Plasma"
        },
        "valueQuantity": {
          "system": "http://unitsofmeasure.org",
          "value": 9.9,
          "unit": "mg/dL",
          "code": "mg/dL"
        },
        "referenceRange": [
          {
            "low": {
              "value": 8.6,
              "code": "mg/dL",
              "system": "http://unitsofmeasure.org"
            }
          },
          {
            "high": {
              "value": 10.4,
              "code": "mg/dL",
              "system": "http://unitsofmeasure.org"
            }
          }
        ],
        "text": {
          "status": "generated",
          "div": "<div xmlns=\"http://www.w3.org/1999/xhtml\"><table class=\"hl7__eu__lab__report\"><tr><th>Test</th><th>19-Sep-2017</th><th>Reference&#xA0;Range</th><th>Unit</th></tr><tr><td>Calcium [Mass/volume] in Serum or Plasma</td><td>9.9</td><td>8.6 - 10.4</td><td></td><td>mg/dL</td></tr></table></div>"
        },
        "status": "final",
        "subject": {
          "reference": "urn:uuid:1aef801f-a32a-41a4-80e5-3681aadc29ee",
          "display": "Meaghan Neary"
        },
        "effectiveDateTime": "2017-09-18T22:11:04Z",
        "specimen": {
          "reference": "urn:uuid:5e154f69-c0f9-4e3a-b6c8-a43100bacacd"
        }
      }
    },
    {
      "fullUrl": "urn:uuid:f0009062-714b-452d-bb91-7c29cbae22af",
      "resource": {
        "resourceType": "Observation",
        "id": "f0009062-714b-452d-bb91-7c29cbae22af",
        "meta": {
          "profile": [
            "http://hl7.eu/fhir/laboratory/StructureDefinition/Observation-resultslab-eu-lab"
          ]
        },
        "performer": [
          {
            "display": "The Central European Lab"
          }
        ],
        "category": [
          {
            "coding": [
              {
                "system": "http://terminology.hl7.org/CodeSystem/observation-category",
                "code": "laboratory"
              }
            ]
          }
        ],
        "code": {
          "coding": [
            {
              "code": "2951-2",
              "system": "http://loinc.org",
              "display": "Sodium [Moles/volume] in Serum or Plasma"
            }
          ],
          "text": "Sodium [Moles/volume] in Serum or Plasma"
        },
        "valueQuantity": {
          "system": "http://unitsofmeasure.org",
          "value": 139.7,
          "unit": "mmol/L",
          "code": "mmol/L"
        },
        "referenceRange": [
          {
            "low": {
              "value": 135,
              "code": "mmol/L",
              "system": "http://unitsofmeasure.org"
            }
          },
          {
            "high": {
              "value": 145,
              "code": "mmol/L",
              "system": "http://unitsofmeasure.org"
            }
          }
        ],
        "text": {
          "status": "generated",
          "div": "<div xmlns=\"http://www.w3.org/1999/xhtml\"><table class=\"hl7__eu__lab__report\"><tr><th>Test</th><th>19-Sep-2017</th><th>Reference&#xA0;Range</th><th>Unit</th></tr><tr><td>Sodium [Moles/volume] in Serum or Plasma</td><td>139.7</td><td>135 - 145</td><td></td><td>mmol/L</td></tr></table></div>"
        },
        "status": "final",
        "subject": {
          "reference": "urn:uuid:1aef801f-a32a-41a4-80e5-3681aadc29ee",
          "display": "Meaghan Neary"
        },
        "effectiveDateTime": "2017-09-18T22:11:04Z",
        "specimen": {
          "reference": "urn:uuid:5e154f69-c0f9-4e3a-b6c8-a43100bacacd"
        }
      }
    },
    {
      "fullUrl": "urn:uuid:267f27ff-78ad-4f8b-8bad-d041f9281774",
      "resource": {
        "resourceType": "Observation",
        "id": "267f27ff-78ad-4f8b-8bad-d041f9281774",
        "meta": {
          "profile": [
            "http://hl7.eu/fhir/laboratory/StructureDefinition/Observation-resultslab-eu-lab"
          ]
        },
        "performer": [
          {
            "display": "The Central European Lab"
          }
        ],
        "category": [
          {
            "coding": [
              {
                "system": "http://terminology.hl7.org/CodeSystem/observation-category",
                "code": "laboratory"
              }
            ]
          }
        ],
        "code": {
          "coding": [
            {
              "code": "2823-3",
              "system": "http://loinc.org",
              "display": "Potassium [Moles/volume] in Serum or Plasma"
            }
          ],
          "text": "Potassium [Moles/volume] in Serum or Plasma"
        },
        "valueQuantity": {
          "system": "http://unitsofmeasure.org",
          "value": 5,
          "unit": "mmol/L",
          "code": "mmol/L"
        },
        "referenceRange": [
          {
            "low": {
              "value": 3.5,
              "code": "mmol/L",
              "system": "http://unitsofmeasure.org"
            }
          },
          {
            "high": {
              "value": 5.1,
              "code": "mmol/L",
              "system": "http://unitsofmeasure.org"
            }
          }
        ],
        "text": {
          "status": "generated",
          "div": "<div xmlns=\"http://www.w3.org/1999/xhtml\"><table class=\"hl7__eu__lab__report\"><tr><th>Test</th><th>19-Sep-2017</th><th>Reference&#xA0;Range</th><th>Unit</th></tr><tr><td>Potassium [Moles/volume] in Serum or Plasma</td><td>5.0</td><td>3.5 - 5.1</td><td></td><td>mmol/L</td></tr></table></div>"
        },
        "status": "final",
        "subject": {
          "reference": "urn:uuid:1aef801f-a32a-41a4-80e5-3681aadc29ee",
          "display": "Meaghan Neary"
        },
        "effectiveDateTime": "2017-09-18T22:11:04Z",
        "specimen": {
          "reference": "urn:uuid:5e154f69-c0f9-4e3a-b6c8-a43100bacacd"
        }
      }
    },
    {
      "fullUrl": "urn:uuid:ffcdde30-8dbe-4fde-95d2-0d6bfe939f03",
      "resource": {
        "resourceType": "Observation",
        "id": "ffcdde30-8dbe-4fde-95d2-0d6bfe939f03",
        "meta": {
          "profile": [
            "http://hl7.eu/fhir/laboratory/StructureDefinition/Observation-resultslab-eu-lab"
          ]
        },
        "performer": [
          {
            "display": "The Central European Lab"
          }
        ],
        "category": [
          {
            "coding": [
              {
                "system": "http://terminology.hl7.org/CodeSystem/observation-category",
                "code": "laboratory"
              }
            ]
          }
        ],
        "code": {
          "coding": [
            {
              "code": "2075-0",
              "system": "http://loinc.org",
              "display": "Chloride [Moles/volume] in Serum or Plasma"
            }
          ],
          "text": "Chloride [Moles/volume] in Serum or Plasma"
        },
        "valueQuantity": {
          "system": "http://unitsofmeasure.org",
          "value": 105.5,
          "unit": "mmol/L",
          "code": "mmol/L"
        },
        "referenceRange": [
          {
            "low": {
              "value": 98,
              "code": "mmol/L",
              "system": "http://unitsofmeasure.org"
            }
          },
          {
            "high": {
              "value": 108,
              "code": "mmol/L",
              "system": "http://unitsofmeasure.org"
            }
          }
        ],
        "text": {
          "status": "generated",
          "div": "<div xmlns=\"http://www.w3.org/1999/xhtml\"><table class=\"hl7__eu__lab__report\"><tr><th>Test</th><th>19-Sep-2017</th><th>Reference&#xA0;Range</th><th>Unit</th></tr><tr><td>Chloride [Moles/volume] in Serum or Plasma</td><td>105.5</td><td>98 - 108</td><td></td><td>mmol/L</td></tr></table></div>"
        },
        "status": "final",
        "subject": {
          "reference": "urn:uuid:1aef801f-a32a-41a4-80e5-3681aadc29ee",
          "display": "Meaghan Neary"
        },
        "effectiveDateTime": "2017-09-18T22:11:04Z",
        "specimen": {
          "reference": "urn:uuid:5e154f69-c0f9-4e3a-b6c8-a43100bacacd"
        }
      }
    },
    {
      "fullUrl": "urn:uuid:c073985c-d9d4-44f4-a1de-ca0a3fe24448",
      "resource": {
        "resourceType": "Observation",
        "id": "c073985c-d9d4-44f4-a1de-ca0a3fe24448",
        "meta": {
          "profile": [
            "http://hl7.eu/fhir/laboratory/StructureDefinition/Observation-resultslab-eu-lab"
          ]
        },
        "performer": [
          {
            "display": "The Central European Lab"
          }
        ],
        "category": [
          {
            "coding": [
              {
                "system": "http://terminology.hl7.org/CodeSystem/observation-category",
                "code": "laboratory"
              }
            ]
          }
        ],
        "code": {
          "coding": [
            {
              "code": "2028-9",
              "system": "http://loinc.org",
              "display": "Carbon dioxide, total [Moles/volume] in Serum or Plasma"
            }
          ],
          "text": "Carbon dioxide, total [Moles/volume] in Serum or Plasma"
        },
        "valueQuantity": {
          "system": "http://unitsofmeasure.org",
          "value": 20.3,
          "unit": "mmol/L",
          "code": "mmol/L"
        },
        "referenceRange": [
          {
            "low": {
              "value": 22,
              "code": "mmol/L",
              "system": "http://unitsofmeasure.org"
            }
          },
          {
            "high": {
              "value": 32,
              "code": "mmol/L",
              "system": "http://unitsofmeasure.org"
            }
          }
        ],
        "interpretation": [
          {
            "coding": [
              {
                "code": "L",
                "system": "http://terminology.hl7.org/CodeSystem/v3-ObservationInterpretation",
                "display": "Low"
              }
            ]
          }
        ],
        "text": {
          "status": "generated",
          "div": "<div xmlns=\"http://www.w3.org/1999/xhtml\"><table class=\"hl7__eu__lab__report\"><tr><th>Test</th><th>19-Sep-2017</th><th>Reference&#xA0;Range</th><th>Unit</th></tr><tr><td>Carbon dioxide, total [Moles/volume] in Serum or Plasma</td><td>20.3</td><td>22 - 32</td><td>L</td><td>mmol/L</td></tr></table></div>"
        },
        "status": "final",
        "subject": {
          "reference": "urn:uuid:1aef801f-a32a-41a4-80e5-3681aadc29ee",
          "display": "Meaghan Neary"
        },
        "effectiveDateTime": "2017-09-18T22:11:04Z",
        "specimen": {
          "reference": "urn:uuid:5e154f69-c0f9-4e3a-b6c8-a43100bacacd"
        }
      }
    },
    {
      "fullUrl": "urn:uuid:5b2b4ee4-c2ad-4703-b7ef-5ba02defca3a",
      "resource": {
        "resourceType": "Observation",
        "id": "5b2b4ee4-c2ad-4703-b7ef-5ba02defca3a",
        "meta": {
          "profile": [
            "http://hl7.eu/fhir/laboratory/StructureDefinition/Observation-resultslab-eu-lab"
          ]
        },
        "performer": [
          {
            "display": "The Central European Lab"
          }
        ],
        "category": [
          {
            "coding": [
              {
                "system": "http://terminology.hl7.org/CodeSystem/observation-category",
                "code": "laboratory"
              }
            ]
          }
        ],
        "code": {
          "coding": [
            {
              "code": "5767-9",
              "system": "http://loinc.org",
              "display": "Appearance of Urine"
            }
          ],
          "text": "Appearance of Urine"
        },
        "text": {
          "status": "generated",
          "div": "<div xmlns=\"http://www.w3.org/1999/xhtml\"><table class=\"hl7__eu__lab__report\"><tr><th>Test</th><th>19-Sep-2017</th><th>Reference&#xA0;Range</th><th>Unit</th></tr><tr><td>Appearance of Urine</td></tr></table></div>"
        },
        "status": "final",
        "subject": {
          "reference": "urn:uuid:1aef801f-a32a-41a4-80e5-3681aadc29ee",
          "display": "Meaghan Neary"
        },
        "effectiveDateTime": "2017-09-18T22:11:04Z",
        "specimen": {
          "reference": "urn:uuid:cc801a16-bcb8-49d0-bdf4-808e2ce591e9"
        }
      }
    },
    {
      "fullUrl": "urn:uuid:39e9ffaa-e725-4083-bdac-8574566aac20",
      "resource": {
        "resourceType": "Observation",
        "id": "39e9ffaa-e725-4083-bdac-8574566aac20",
        "meta": {
          "profile": [
            "http://hl7.eu/fhir/laboratory/StructureDefinition/Observation-resultslab-eu-lab"
          ]
        },
        "performer": [
          {
            "display": "The Central European Lab"
          }
        ],
        "category": [
          {
            "coding": [
              {
                "system": "http://terminology.hl7.org/CodeSystem/observation-category",
                "code": "laboratory"
              }
            ]
          }
        ],
        "code": {
          "coding": [
            {
              "code": "34533-0",
              "system": "http://loinc.org",
              "display": "Odor of Urine"
            }
          ],
          "text": "Odor of Urine"
        },
        "text": {
          "status": "generated",
          "div": "<div xmlns=\"http://www.w3.org/1999/xhtml\"><table class=\"hl7__eu__lab__report\"><tr><th>Test</th><th>19-Sep-2017</th><th>Reference&#xA0;Range</th><th>Unit</th></tr><tr><td>Odor of Urine</td></tr></table></div>"
        },
        "status": "final",
        "subject": {
          "reference": "urn:uuid:1aef801f-a32a-41a4-80e5-3681aadc29ee",
          "display": "Meaghan Neary"
        },
        "effectiveDateTime": "2017-09-18T22:11:04Z",
        "specimen": {
          "reference": "urn:uuid:cc801a16-bcb8-49d0-bdf4-808e2ce591e9"
        }
      }
    },
    {
      "fullUrl": "urn:uuid:75d28220-0de9-4600-a7f6-fa1f2c61e5b9",
      "resource": {
        "resourceType": "Observation",
        "id": "75d28220-0de9-4600-a7f6-fa1f2c61e5b9",
        "meta": {
          "profile": [
            "http://hl7.eu/fhir/laboratory/StructureDefinition/Observation-resultslab-eu-lab"
          ]
        },
        "performer": [
          {
            "display": "The Central European Lab"
          }
        ],
        "category": [
          {
            "coding": [
              {
                "system": "http://terminology.hl7.org/CodeSystem/observation-category",
                "code": "laboratory"
              }
            ]
          }
        ],
        "code": {
          "coding": [
            {
              "code": "32167-9",
              "system": "http://loinc.org",
              "display": "Clarity of Urine"
            }
          ],
          "text": "Clarity of Urine"
        },
        "text": {
          "status": "generated",
          "div": "<div xmlns=\"http://www.w3.org/1999/xhtml\"><table class=\"hl7__eu__lab__report\"><tr><th>Test</th><th>19-Sep-2017</th><th>Reference&#xA0;Range</th><th>Unit</th></tr><tr><td>Clarity of Urine</td></tr></table></div>"
        },
        "status": "final",
        "subject": {
          "reference": "urn:uuid:1aef801f-a32a-41a4-80e5-3681aadc29ee",
          "display": "Meaghan Neary"
        },
        "effectiveDateTime": "2017-09-18T22:11:04Z",
        "specimen": {
          "reference": "urn:uuid:cc801a16-bcb8-49d0-bdf4-808e2ce591e9"
        }
      }
    },
    {
      "fullUrl": "urn:uuid:eca8bd31-54af-4a6f-9fd9-7c61326158fc",
      "resource": {
        "resourceType": "Observation",
        "id": "eca8bd31-54af-4a6f-9fd9-7c61326158fc",
        "meta": {
          "profile": [
            "http://hl7.eu/fhir/laboratory/StructureDefinition/Observation-resultslab-eu-lab"
          ]
        },
        "performer": [
          {
            "display": "The Central European Lab"
          }
        ],
        "category": [
          {
            "coding": [
              {
                "system": "http://terminology.hl7.org/CodeSystem/observation-category",
                "code": "laboratory"
              }
            ]
          }
        ],
        "code": {
          "coding": [
            {
              "code": "5778-6",
              "system": "http://loinc.org",
              "display": "Color of Urine"
            }
          ],
          "text": "Color of Urine"
        },
        "text": {
          "status": "generated",
          "div": "<div xmlns=\"http://www.w3.org/1999/xhtml\"><table class=\"hl7__eu__lab__report\"><tr><th>Test</th><th>19-Sep-2017</th><th>Reference&#xA0;Range</th><th>Unit</th></tr><tr><td>Color of Urine</td></tr></table></div>"
        },
        "status": "final",
        "subject": {
          "reference": "urn:uuid:1aef801f-a32a-41a4-80e5-3681aadc29ee",
          "display": "Meaghan Neary"
        },
        "effectiveDateTime": "2017-09-18T22:11:04Z",
        "specimen": {
          "reference": "urn:uuid:cc801a16-bcb8-49d0-bdf4-808e2ce591e9"
        }
      }
    },
    {
      "fullUrl": "urn:uuid:9b308750-d1b5-4960-a4f3-9e9e9c883b37",
      "resource": {
        "resourceType": "Observation",
        "id": "9b308750-d1b5-4960-a4f3-9e9e9c883b37",
        "meta": {
          "profile": [
            "http://hl7.eu/fhir/laboratory/StructureDefinition/Observation-resultslab-eu-lab"
          ]
        },
        "performer": [
          {
            "display": "The Central European Lab"
          }
        ],
        "category": [
          {
            "coding": [
              {
                "system": "http://terminology.hl7.org/CodeSystem/observation-category",
                "code": "laboratory"
              }
            ]
          }
        ],
        "code": {
          "coding": [
            {
              "code": "5792-7",
              "system": "http://loinc.org",
              "display": "Glucose [Mass/volume] in Urine by Test strip"
            }
          ],
          "text": "Glucose [Mass/volume] in Urine by Test strip"
        },
        "valueQuantity": {
          "system": "http://unitsofmeasure.org",
          "value": 1.3,
          "unit": "mg/dL",
          "code": "mg/dL"
        },
        "referenceRange": [
          {
            "low": {
              "value": 0.8,
              "code": "mg/dL",
              "system": "http://unitsofmeasure.org"
            }
          },
          {
            "high": {
              "value": 0,
              "code": "mg/dL",
              "system": "http://unitsofmeasure.org"
            }
          }
        ],
        "interpretation": [
          {
            "coding": [
              {
                "code": "H",
                "system": "http://terminology.hl7.org/CodeSystem/v3-ObservationInterpretation",
                "display": "High"
              }
            ]
          }
        ],
        "text": {
          "status": "generated",
          "div": "<div xmlns=\"http://www.w3.org/1999/xhtml\"><table class=\"hl7__eu__lab__report\"><tr><th>Test</th><th>19-Sep-2017</th><th>Reference&#xA0;Range</th><th>Unit</th></tr><tr><td>Glucose [Mass/volume] in Urine by Test strip</td><td>1.3</td><td>0.8 - 0</td><td>H</td><td>mg/dL</td></tr></table></div>"
        },
        "status": "final",
        "subject": {
          "reference": "urn:uuid:1aef801f-a32a-41a4-80e5-3681aadc29ee",
          "display": "Meaghan Neary"
        },
        "effectiveDateTime": "2017-09-18T22:11:04Z",
        "specimen": {
          "reference": "urn:uuid:cc801a16-bcb8-49d0-bdf4-808e2ce591e9"
        }
      }
    },
    {
      "fullUrl": "urn:uuid:7364ac40-12cb-4dfe-b533-ec771aa89f95",
      "resource": {
        "resourceType": "Observation",
        "id": "7364ac40-12cb-4dfe-b533-ec771aa89f95",
        "meta": {
          "profile": [
            "http://hl7.eu/fhir/laboratory/StructureDefinition/Observation-resultslab-eu-lab"
          ]
        },
        "performer": [
          {
            "display": "The Central European Lab"
          }
        ],
        "category": [
          {
            "coding": [
              {
                "system": "http://terminology.hl7.org/CodeSystem/observation-category",
                "code": "laboratory"
              }
            ]
          }
        ],
        "code": {
          "coding": [
            {
              "code": "25428-4",
              "system": "http://loinc.org",
              "display": "Glucose [Presence] in Urine by Test strip"
            }
          ],
          "text": "Glucose [Presence] in Urine by Test strip"
        },
        "text": {
          "status": "generated",
          "div": "<div xmlns=\"http://www.w3.org/1999/xhtml\"><table class=\"hl7__eu__lab__report\"><tr><th>Test</th><th>19-Sep-2017</th><th>Reference&#xA0;Range</th><th>Unit</th></tr><tr><td>Glucose [Presence] in Urine by Test strip</td></tr></table></div>"
        },
        "status": "final",
        "subject": {
          "reference": "urn:uuid:1aef801f-a32a-41a4-80e5-3681aadc29ee",
          "display": "Meaghan Neary"
        },
        "effectiveDateTime": "2017-09-18T22:11:04Z",
        "specimen": {
          "reference": "urn:uuid:cc801a16-bcb8-49d0-bdf4-808e2ce591e9"
        }
      }
    },
    {
      "fullUrl": "urn:uuid:1feb7d22-928b-4107-bf6b-0b30750b8681",
      "resource": {
        "resourceType": "Observation",
        "id": "1feb7d22-928b-4107-bf6b-0b30750b8681",
        "meta": {
          "profile": [
            "http://hl7.eu/fhir/laboratory/StructureDefinition/Observation-resultslab-eu-lab"
          ]
        },
        "performer": [
          {
            "display": "The Central European Lab"
          }
        ],
        "category": [
          {
            "coding": [
              {
                "system": "http://terminology.hl7.org/CodeSystem/observation-category",
                "code": "laboratory"
              }
            ]
          }
        ],
        "code": {
          "coding": [
            {
              "code": "20505-4",
              "system": "http://loinc.org",
              "display": "Bilirubin.total [Mass/volume] in Urine by Test strip"
            }
          ],
          "text": "Bilirubin.total [Mass/volume] in Urine by Test strip"
        },
        "valueQuantity": {
          "system": "http://unitsofmeasure.org",
          "value": 0.3,
          "unit": "mg/dL",
          "code": "mg/dL"
        },
        "referenceRange": [
          {
            "low": {
              "value": 0,
              "code": "mg/dL",
              "system": "http://unitsofmeasure.org"
            }
          },
          {
            "high": {
              "value": 1,
              "code": "mg/dL",
              "system": "http://unitsofmeasure.org"
            }
          }
        ],
        "text": {
          "status": "generated",
          "div": "<div xmlns=\"http://www.w3.org/1999/xhtml\"><table class=\"hl7__eu__lab__report\"><tr><th>Test</th><th>19-Sep-2017</th><th>Reference&#xA0;Range</th><th>Unit</th></tr><tr><td>Bilirubin.total [Mass/volume] in Urine by Test strip</td><td>0.3</td><td>0 - 1</td><td></td><td>mg/dL</td></tr></table></div>"
        },
        "status": "final",
        "subject": {
          "reference": "urn:uuid:1aef801f-a32a-41a4-80e5-3681aadc29ee",
          "display": "Meaghan Neary"
        },
        "effectiveDateTime": "2017-09-18T22:11:04Z",
        "specimen": {
          "reference": "urn:uuid:cc801a16-bcb8-49d0-bdf4-808e2ce591e9"
        }
      }
    },
    {
      "fullUrl": "urn:uuid:1b9f0356-ab8f-40d3-9af1-a31d4a410696",
      "resource": {
        "resourceType": "Observation",
        "id": "1b9f0356-ab8f-40d3-9af1-a31d4a410696",
        "meta": {
          "profile": [
            "http://hl7.eu/fhir/laboratory/StructureDefinition/Observation-resultslab-eu-lab"
          ]
        },
        "performer": [
          {
            "display": "The Central European Lab"
          }
        ],
        "category": [
          {
            "coding": [
              {
                "system": "http://terminology.hl7.org/CodeSystem/observation-category",
                "code": "laboratory"
              }
            ]
          }
        ],
        "code": {
          "coding": [
            {
              "code": "5770-3",
              "system": "http://loinc.org",
              "display": "Bilirubin.total [Presence] in Urine by Test strip"
            }
          ],
          "text": "Bilirubin.total [Presence] in Urine by Test strip"
        },
        "text": {
          "status": "generated",
          "div": "<div xmlns=\"http://www.w3.org/1999/xhtml\"><table class=\"hl7__eu__lab__report\"><tr><th>Test</th><th>19-Sep-2017</th><th>Reference&#xA0;Range</th><th>Unit</th></tr><tr><td>Bilirubin.total [Presence] in Urine by Test strip</td></tr></table></div>"
        },
        "status": "final",
        "subject": {
          "reference": "urn:uuid:1aef801f-a32a-41a4-80e5-3681aadc29ee",
          "display": "Meaghan Neary"
        },
        "effectiveDateTime": "2017-09-18T22:11:04Z",
        "specimen": {
          "reference": "urn:uuid:cc801a16-bcb8-49d0-bdf4-808e2ce591e9"
        }
      }
    },
    {
      "fullUrl": "urn:uuid:18a3b881-e11a-4554-9d09-8852eba1580b",
      "resource": {
        "resourceType": "Observation",
        "id": "18a3b881-e11a-4554-9d09-8852eba1580b",
        "meta": {
          "profile": [
            "http://hl7.eu/fhir/laboratory/StructureDefinition/Observation-resultslab-eu-lab"
          ]
        },
        "performer": [
          {
            "display": "The Central European Lab"
          }
        ],
        "category": [
          {
            "coding": [
              {
                "system": "http://terminology.hl7.org/CodeSystem/observation-category",
                "code": "laboratory"
              }
            ]
          }
        ],
        "code": {
          "coding": [
            {
              "code": "5797-6",
              "system": "http://loinc.org",
              "display": "Ketones [Mass/volume] in Urine by Test strip"
            }
          ],
          "text": "Ketones [Mass/volume] in Urine by Test strip"
        },
        "valueQuantity": {
          "system": "http://unitsofmeasure.org",
          "value": 16.7,
          "unit": "mg/dL",
          "code": "mg/dL"
        },
        "referenceRange": [
          {
            "low": {
              "value": 0,
              "code": "mg/dL",
              "system": "http://unitsofmeasure.org"
            }
          },
          {
            "high": {
              "value": 4,
              "code": "mg/dL",
              "system": "http://unitsofmeasure.org"
            }
          }
        ],
        "interpretation": [
          {
            "coding": [
              {
                "code": "H",
                "system": "http://terminology.hl7.org/CodeSystem/v3-ObservationInterpretation",
                "display": "High"
              }
            ]
          }
        ],
        "text": {
          "status": "generated",
          "div": "<div xmlns=\"http://www.w3.org/1999/xhtml\"><table class=\"hl7__eu__lab__report\"><tr><th>Test</th><th>19-Sep-2017</th><th>Reference&#xA0;Range</th><th>Unit</th></tr><tr><td>Ketones [Mass/volume] in Urine by Test strip</td><td>16.7</td><td>0 - 4</td><td>H</td><td>mg/dL</td></tr></table></div>"
        },
        "status": "final",
        "subject": {
          "reference": "urn:uuid:1aef801f-a32a-41a4-80e5-3681aadc29ee",
          "display": "Meaghan Neary"
        },
        "effectiveDateTime": "2017-09-18T22:11:04Z",
        "specimen": {
          "reference": "urn:uuid:cc801a16-bcb8-49d0-bdf4-808e2ce591e9"
        }
      }
    },
    {
      "fullUrl": "urn:uuid:6439b2ca-85c3-4599-b07a-035d4a2c7104",
      "resource": {
        "resourceType": "Observation",
        "id": "6439b2ca-85c3-4599-b07a-035d4a2c7104",
        "meta": {
          "profile": [
            "http://hl7.eu/fhir/laboratory/StructureDefinition/Observation-resultslab-eu-lab"
          ]
        },
        "performer": [
          {
            "display": "The Central European Lab"
          }
        ],
        "category": [
          {
            "coding": [
              {
                "system": "http://terminology.hl7.org/CodeSystem/observation-category",
                "code": "laboratory"
              }
            ]
          }
        ],
        "code": {
          "coding": [
            {
              "code": "2514-8",
              "system": "http://loinc.org",
              "display": "Ketones [Presence] in Urine by Test strip"
            }
          ],
          "text": "Ketones [Presence] in Urine by Test strip"
        },
        "text": {
          "status": "generated",
          "div": "<div xmlns=\"http://www.w3.org/1999/xhtml\"><table class=\"hl7__eu__lab__report\"><tr><th>Test</th><th>19-Sep-2017</th><th>Reference&#xA0;Range</th><th>Unit</th></tr><tr><td>Ketones [Presence] in Urine by Test strip</td></tr></table></div>"
        },
        "status": "final",
        "subject": {
          "reference": "urn:uuid:1aef801f-a32a-41a4-80e5-3681aadc29ee",
          "display": "Meaghan Neary"
        },
        "effectiveDateTime": "2017-09-18T22:11:04Z",
        "specimen": {
          "reference": "urn:uuid:cc801a16-bcb8-49d0-bdf4-808e2ce591e9"
        }
      }
    },
    {
      "fullUrl": "urn:uuid:bdf55ffa-f912-426d-9b70-946aefc22225",
      "resource": {
        "resourceType": "Observation",
        "id": "bdf55ffa-f912-426d-9b70-946aefc22225",
        "meta": {
          "profile": [
            "http://hl7.eu/fhir/laboratory/StructureDefinition/Observation-resultslab-eu-lab"
          ]
        },
        "performer": [
          {
            "display": "The Central European Lab"
          }
        ],
        "category": [
          {
            "coding": [
              {
                "system": "http://terminology.hl7.org/CodeSystem/observation-category",
                "code": "laboratory"
              }
            ]
          }
        ],
        "code": {
          "coding": [
            {
              "code": "5811-5",
              "system": "http://loinc.org",
              "display": "Specific gravity of Urine by Test strip"
            }
          ],
          "text": "Specific gravity of Urine by Test strip"
        },
        "valueQuantity": {
          "system": "http://unitsofmeasure.org",
          "value": 1,
          "unit": "{nominal}",
          "code": "{nominal}"
        },
        "referenceRange": [
          {
            "low": {
              "value": 1.005,
              "code": "g/mL",
              "system": "http://unitsofmeasure.org"
            }
          },
          {
            "high": {
              "value": 1.03,
              "code": "g/mL",
              "system": "http://unitsofmeasure.org"
            }
          }
        ],
        "interpretation": [
          {
            "coding": [
              {
                "code": "L",
                "system": "http://terminology.hl7.org/CodeSystem/v3-ObservationInterpretation",
                "display": "Low"
              }
            ]
          }
        ],
        "text": {
          "status": "generated",
          "div": "<div xmlns=\"http://www.w3.org/1999/xhtml\"><table class=\"hl7__eu__lab__report\"><tr><th>Test</th><th>19-Sep-2017</th><th>Reference&#xA0;Range</th><th>Unit</th></tr><tr><td>Specific gravity of Urine by Test strip</td><td>1.0</td><td>1.005 - 1.03</td><td>L</td><td>{nominal}</td></tr></table></div>"
        },
        "status": "final",
        "subject": {
          "reference": "urn:uuid:1aef801f-a32a-41a4-80e5-3681aadc29ee",
          "display": "Meaghan Neary"
        },
        "effectiveDateTime": "2017-09-18T22:11:04Z",
        "specimen": {
          "reference": "urn:uuid:cc801a16-bcb8-49d0-bdf4-808e2ce591e9"
        }
      }
    },
    {
      "fullUrl": "urn:uuid:090d317e-c790-4231-8b96-02dcee51ed3b",
      "resource": {
        "resourceType": "Observation",
        "id": "090d317e-c790-4231-8b96-02dcee51ed3b",
        "meta": {
          "profile": [
            "http://hl7.eu/fhir/laboratory/StructureDefinition/Observation-resultslab-eu-lab"
          ]
        },
        "performer": [
          {
            "display": "The Central European Lab"
          }
        ],
        "category": [
          {
            "coding": [
              {
                "system": "http://terminology.hl7.org/CodeSystem/observation-category",
                "code": "laboratory"
              }
            ]
          }
        ],
        "code": {
          "coding": [
            {
              "code": "5803-2",
              "system": "http://loinc.org",
              "display": "pH of Urine by Test strip"
            }
          ],
          "text": "pH of Urine by Test strip"
        },
        "valueQuantity": {
          "system": "http://unitsofmeasure.org",
          "value": 6.9,
          "unit": "pH",
          "code": "pH"
        },
        "referenceRange": [
          {
            "low": {
              "value": 4.6,
              "code": "pH",
              "system": "http://unitsofmeasure.org"
            }
          },
          {
            "high": {
              "value": 7,
              "code": "pH",
              "system": "http://unitsofmeasure.org"
            }
          }
        ],
        "text": {
          "status": "generated",
          "div": "<div xmlns=\"http://www.w3.org/1999/xhtml\"><table class=\"hl7__eu__lab__report\"><tr><th>Test</th><th>19-Sep-2017</th><th>Reference&#xA0;Range</th><th>Unit</th></tr><tr><td>pH of Urine by Test strip</td><td>6.9</td><td>4.6 - 7</td><td></td><td>pH</td></tr></table></div>"
        },
        "status": "final",
        "subject": {
          "reference": "urn:uuid:1aef801f-a32a-41a4-80e5-3681aadc29ee",
          "display": "Meaghan Neary"
        },
        "effectiveDateTime": "2017-09-18T22:11:04Z",
        "specimen": {
          "reference": "urn:uuid:cc801a16-bcb8-49d0-bdf4-808e2ce591e9"
        }
      }
    },
    {
      "fullUrl": "urn:uuid:74a7d030-2988-485b-ab38-84961e17dbe8",
      "resource": {
        "resourceType": "Observation",
        "id": "74a7d030-2988-485b-ab38-84961e17dbe8",
        "meta": {
          "profile": [
            "http://hl7.eu/fhir/laboratory/StructureDefinition/Observation-resultslab-eu-lab"
          ]
        },
        "performer": [
          {
            "display": "The Central European Lab"
          }
        ],
        "category": [
          {
            "coding": [
              {
                "system": "http://terminology.hl7.org/CodeSystem/observation-category",
                "code": "laboratory"
              }
            ]
          }
        ],
        "code": {
          "coding": [
            {
              "code": "5804-0",
              "system": "http://loinc.org",
              "display": "Protein [Mass/volume] in Urine by Test strip"
            }
          ],
          "text": "Protein [Mass/volume] in Urine by Test strip"
        },
        "valueQuantity": {
          "system": "http://unitsofmeasure.org",
          "value": 348.7,
          "unit": "mg/dL",
          "code": "mg/dL"
        },
        "referenceRange": [
          {
            "low": {
              "value": 0,
              "code": "mg/dL",
              "system": "http://unitsofmeasure.org"
            }
          },
          {
            "high": {
              "value": 14,
              "code": "mg/dL",
              "system": "http://unitsofmeasure.org"
            }
          }
        ],
        "interpretation": [
          {
            "coding": [
              {
                "code": "H",
                "system": "http://terminology.hl7.org/CodeSystem/v3-ObservationInterpretation",
                "display": "High"
              }
            ]
          }
        ],
        "text": {
          "status": "generated",
          "div": "<div xmlns=\"http://www.w3.org/1999/xhtml\"><table class=\"hl7__eu__lab__report\"><tr><th>Test</th><th>19-Sep-2017</th><th>Reference&#xA0;Range</th><th>Unit</th></tr><tr><td>Protein [Mass/volume] in Urine by Test strip</td><td>348.7</td><td>0 - 14</td><td>H</td><td>mg/dL</td></tr></table></div>"
        },
        "status": "final",
        "subject": {
          "reference": "urn:uuid:1aef801f-a32a-41a4-80e5-3681aadc29ee",
          "display": "Meaghan Neary"
        },
        "effectiveDateTime": "2017-09-18T22:11:04Z",
        "specimen": {
          "reference": "urn:uuid:cc801a16-bcb8-49d0-bdf4-808e2ce591e9"
        }
      }
    },
    {
      "fullUrl": "urn:uuid:60c60666-00ee-4960-8cc8-fe4668f0f925",
      "resource": {
        "resourceType": "Observation",
        "id": "60c60666-00ee-4960-8cc8-fe4668f0f925",
        "meta": {
          "profile": [
            "http://hl7.eu/fhir/laboratory/StructureDefinition/Observation-resultslab-eu-lab"
          ]
        },
        "performer": [
          {
            "display": "The Central European Lab"
          }
        ],
        "category": [
          {
            "coding": [
              {
                "system": "http://terminology.hl7.org/CodeSystem/observation-category",
                "code": "laboratory"
              }
            ]
          }
        ],
        "code": {
          "coding": [
            {
              "code": "20454-5",
              "system": "http://loinc.org",
              "display": "Protein [Presence] in Urine by Test strip"
            }
          ],
          "text": "Protein [Presence] in Urine by Test strip"
        },
        "text": {
          "status": "generated",
          "div": "<div xmlns=\"http://www.w3.org/1999/xhtml\"><table class=\"hl7__eu__lab__report\"><tr><th>Test</th><th>19-Sep-2017</th><th>Reference&#xA0;Range</th><th>Unit</th></tr><tr><td>Protein [Presence] in Urine by Test strip</td></tr></table></div>"
        },
        "status": "final",
        "subject": {
          "reference": "urn:uuid:1aef801f-a32a-41a4-80e5-3681aadc29ee",
          "display": "Meaghan Neary"
        },
        "effectiveDateTime": "2017-09-18T22:11:04Z",
        "specimen": {
          "reference": "urn:uuid:cc801a16-bcb8-49d0-bdf4-808e2ce591e9"
        }
      }
    },
    {
      "fullUrl": "urn:uuid:5bf3ed83-efb4-43a2-82c1-a17198225102",
      "resource": {
        "resourceType": "Observation",
        "id": "5bf3ed83-efb4-43a2-82c1-a17198225102",
        "meta": {
          "profile": [
            "http://hl7.eu/fhir/laboratory/StructureDefinition/Observation-resultslab-eu-lab"
          ]
        },
        "performer": [
          {
            "display": "The Central European Lab"
          }
        ],
        "category": [
          {
            "coding": [
              {
                "system": "http://terminology.hl7.org/CodeSystem/observation-category",
                "code": "laboratory"
              }
            ]
          }
        ],
        "code": {
          "coding": [
            {
              "code": "5802-4",
              "system": "http://loinc.org",
              "display": "Nitrite [Presence] in Urine by Test strip"
            }
          ],
          "text": "Nitrite [Presence] in Urine by Test strip"
        },
        "text": {
          "status": "generated",
          "div": "<div xmlns=\"http://www.w3.org/1999/xhtml\"><table class=\"hl7__eu__lab__report\"><tr><th>Test</th><th>19-Sep-2017</th><th>Reference&#xA0;Range</th><th>Unit</th></tr><tr><td>Nitrite [Presence] in Urine by Test strip</td></tr></table></div>"
        },
        "status": "final",
        "subject": {
          "reference": "urn:uuid:1aef801f-a32a-41a4-80e5-3681aadc29ee",
          "display": "Meaghan Neary"
        },
        "effectiveDateTime": "2017-09-18T22:11:04Z",
        "specimen": {
          "reference": "urn:uuid:cc801a16-bcb8-49d0-bdf4-808e2ce591e9"
        }
      }
    },
    {
      "fullUrl": "urn:uuid:f8a7d686-9d1e-416a-9508-9e5eebd06c73",
      "resource": {
        "resourceType": "Observation",
        "id": "f8a7d686-9d1e-416a-9508-9e5eebd06c73",
        "meta": {
          "profile": [
            "http://hl7.eu/fhir/laboratory/StructureDefinition/Observation-resultslab-eu-lab"
          ]
        },
        "performer": [
          {
            "display": "The Central European Lab"
          }
        ],
        "category": [
          {
            "coding": [
              {
                "system": "http://terminology.hl7.org/CodeSystem/observation-category",
                "code": "laboratory"
              }
            ]
          }
        ],
        "code": {
          "coding": [
            {
              "code": "5794-3",
              "system": "http://loinc.org",
              "display": "Hemoglobin [Presence] in Urine by Test strip"
            }
          ],
          "text": "Hemoglobin [Presence] in Urine by Test strip"
        },
        "text": {
          "status": "generated",
          "div": "<div xmlns=\"http://www.w3.org/1999/xhtml\"><table class=\"hl7__eu__lab__report\"><tr><th>Test</th><th>19-Sep-2017</th><th>Reference&#xA0;Range</th><th>Unit</th></tr><tr><td>Hemoglobin [Presence] in Urine by Test strip</td></tr></table></div>"
        },
        "status": "final",
        "subject": {
          "reference": "urn:uuid:1aef801f-a32a-41a4-80e5-3681aadc29ee",
          "display": "Meaghan Neary"
        },
        "effectiveDateTime": "2017-09-18T22:11:04Z",
        "specimen": {
          "reference": "urn:uuid:cc801a16-bcb8-49d0-bdf4-808e2ce591e9"
        }
      }
    },
    {
      "fullUrl": "urn:uuid:5498ab6f-80f5-4b5d-b239-e1c5eee302ee",
      "resource": {
        "resourceType": "Observation",
        "id": "5498ab6f-80f5-4b5d-b239-e1c5eee302ee",
        "meta": {
          "profile": [
            "http://hl7.eu/fhir/laboratory/StructureDefinition/Observation-resultslab-eu-lab"
          ]
        },
        "performer": [
          {
            "display": "The Central European Lab"
          }
        ],
        "category": [
          {
            "coding": [
              {
                "system": "http://terminology.hl7.org/CodeSystem/observation-category",
                "code": "laboratory"
              }
            ]
          }
        ],
        "code": {
          "coding": [
            {
              "code": "5799-2",
              "system": "http://loinc.org",
              "display": "Leukocyte esterase [Presence] in Urine by Test strip"
            }
          ],
          "text": "Leukocyte esterase [Presence] in Urine by Test strip"
        },
        "text": {
          "status": "generated",
          "div": "<div xmlns=\"http://www.w3.org/1999/xhtml\"><table class=\"hl7__eu__lab__report\"><tr><th>Test</th><th>19-Sep-2017</th><th>Reference&#xA0;Range</th><th>Unit</th></tr><tr><td>Leukocyte esterase [Presence] in Urine by Test strip</td></tr></table></div>"
        },
        "status": "final",
        "subject": {
          "reference": "urn:uuid:1aef801f-a32a-41a4-80e5-3681aadc29ee",
          "display": "Meaghan Neary"
        },
        "effectiveDateTime": "2017-09-18T22:11:04Z",
        "specimen": {
          "reference": "urn:uuid:cc801a16-bcb8-49d0-bdf4-808e2ce591e9"
        }
      }
    },
    {
      "fullUrl": "urn:uuid:6e692831-f36d-4ea8-8ebd-4a037647e481",
      "resource": {
        "resourceType": "Observation",
        "id": "6e692831-f36d-4ea8-8ebd-4a037647e481",
        "meta": {
          "profile": [
            "http://hl7.eu/fhir/laboratory/StructureDefinition/Observation-resultslab-eu-lab"
          ]
        },
        "performer": [
          {
            "display": "The Central European Lab"
          }
        ],
        "category": [
          {
            "coding": [
              {
                "system": "http://terminology.hl7.org/CodeSystem/observation-category",
                "code": "laboratory"
              }
            ]
          }
        ],
        "code": {
          "coding": [
            {
              "code": "4548-4",
              "system": "http://loinc.org",
              "display": "Hemoglobin A1c/Hemoglobin.total in Blood"
            }
          ],
          "text": "Hemoglobin A1c/Hemoglobin.total in Blood"
        },
        "valueQuantity": {
          "system": "http://unitsofmeasure.org",
          "value": 3,
          "unit": "%",
          "code": "%"
        },
        "referenceRange": [
          {
            "low": {
              "value": 4,
              "code": "%",
              "system": "http://unitsofmeasure.org"
            }
          },
          {
            "high": {
              "value": 6.4,
              "code": "%",
              "system": "http://unitsofmeasure.org"
            }
          }
        ],
        "interpretation": [
          {
            "coding": [
              {
                "code": "L",
                "system": "http://terminology.hl7.org/CodeSystem/v3-ObservationInterpretation",
                "display": "Low"
              }
            ]
          }
        ],
        "text": {
          "status": "generated",
          "div": "<div xmlns=\"http://www.w3.org/1999/xhtml\"><table class=\"hl7__eu__lab__report\"><tr><th>Test</th><th>19-Sep-2017</th><th>Reference&#xA0;Range</th><th>Unit</th></tr><tr><td>Hemoglobin A1c/Hemoglobin.total in Blood</td><td>3.0</td><td>4 - 6.4</td><td>L</td><td>%</td></tr></table></div>"
        },
        "status": "final",
        "subject": {
          "reference": "urn:uuid:1aef801f-a32a-41a4-80e5-3681aadc29ee",
          "display": "Meaghan Neary"
        },
        "effectiveDateTime": "2017-09-18T22:11:04Z",
        "specimen": {
          "reference": "urn:uuid:e9c498e2-6021-4353-81de-b6491ae7b35a"
        }
      }
    },
    {
      "fullUrl": "urn:uuid:258f702d-7a71-4ea9-acb2-766752a06f72",
      "resource": {
        "resourceType": "Observation",
        "id": "258f702d-7a71-4ea9-acb2-766752a06f72",
        "meta": {
          "profile": [
            "http://hl7.eu/fhir/laboratory/StructureDefinition/Observation-resultslab-eu-lab"
          ]
        },
        "performer": [
          {
            "display": "The Central European Lab"
          }
        ],
        "category": [
          {
            "coding": [
              {
                "system": "http://terminology.hl7.org/CodeSystem/observation-category",
                "code": "laboratory"
              }
            ]
          }
        ],
        "code": {
          "coding": [
            {
              "code": "2339-0",
              "system": "http://loinc.org",
              "display": "Glucose [Mass/volume] in Blood"
            }
          ],
          "text": "Glucose [Mass/volume] in Blood"
        },
        "valueQuantity": {
          "system": "http://unitsofmeasure.org",
          "value": 89.1,
          "unit": "mg/dL",
          "code": "mg/dL"
        },
        "referenceRange": [
          {
            "low": {
              "value": 70,
              "code": "mg/dL",
              "system": "http://unitsofmeasure.org"
            }
          },
          {
            "high": {
              "value": 100,
              "code": "mg/dL",
              "system": "http://unitsofmeasure.org"
            }
          }
        ],
        "text": {
          "status": "generated",
          "div": "<div xmlns=\"http://www.w3.org/1999/xhtml\"><table class=\"hl7__eu__lab__report\"><tr><th>Test</th><th>19-Sep-2017</th><th>Reference&#xA0;Range</th><th>Unit</th></tr><tr><td>Glucose [Mass/volume] in Blood</td><td>89.1</td><td>70 - 100</td><td></td><td>mg/dL</td></tr></table></div>"
        },
        "status": "final",
        "subject": {
          "reference": "urn:uuid:1aef801f-a32a-41a4-80e5-3681aadc29ee",
          "display": "Meaghan Neary"
        },
        "effectiveDateTime": "2017-09-18T22:11:04Z",
        "specimen": {
          "reference": "urn:uuid:e9c498e2-6021-4353-81de-b6491ae7b35a"
        }
      }
    },
    {
      "fullUrl": "urn:uuid:e630268d-1bb5-46a9-9031-41278d94deda",
      "resource": {
        "resourceType": "Observation",
        "id": "e630268d-1bb5-46a9-9031-41278d94deda",
        "meta": {
          "profile": [
            "http://hl7.eu/fhir/laboratory/StructureDefinition/Observation-resultslab-eu-lab"
          ]
        },
        "performer": [
          {
            "display": "The Central European Lab"
          }
        ],
        "category": [
          {
            "coding": [
              {
                "system": "http://terminology.hl7.org/CodeSystem/observation-category",
                "code": "laboratory"
              }
            ]
          }
        ],
        "code": {
          "coding": [
            {
              "code": "6299-2",
              "system": "http://loinc.org",
              "display": "Urea nitrogen [Mass/volume] in Blood"
            }
          ],
          "text": "Urea nitrogen [Mass/volume] in Blood"
        },
        "valueQuantity": {
          "system": "http://unitsofmeasure.org",
          "value": 12.6,
          "unit": "mg/dL",
          "code": "mg/dL"
        },
        "referenceRange": [
          {
            "low": {
              "value": 7,
              "code": "mg/dL",
              "system": "http://unitsofmeasure.org"
            }
          },
          {
            "high": {
              "value": 43,
              "code": "mg/dL",
              "system": "http://unitsofmeasure.org"
            }
          }
        ],
        "text": {
          "status": "generated",
          "div": "<div xmlns=\"http://www.w3.org/1999/xhtml\"><table class=\"hl7__eu__lab__report\"><tr><th>Test</th><th>19-Sep-2017</th><th>Reference&#xA0;Range</th><th>Unit</th></tr><tr><td>Urea nitrogen [Mass/volume] in Blood</td><td>12.6</td><td>7 - 43</td><td></td><td>mg/dL</td></tr></table></div>"
        },
        "status": "final",
        "subject": {
          "reference": "urn:uuid:1aef801f-a32a-41a4-80e5-3681aadc29ee",
          "display": "Meaghan Neary"
        },
        "effectiveDateTime": "2017-09-18T22:11:04Z",
        "specimen": {
          "reference": "urn:uuid:e9c498e2-6021-4353-81de-b6491ae7b35a"
        }
      }
    },
    {
      "fullUrl": "urn:uuid:6d7592b7-d334-429a-b77a-da9addc14902",
      "resource": {
        "resourceType": "Observation",
        "id": "6d7592b7-d334-429a-b77a-da9addc14902",
        "meta": {
          "profile": [
            "http://hl7.eu/fhir/laboratory/StructureDefinition/Observation-resultslab-eu-lab"
          ]
        },
        "performer": [
          {
            "display": "The Central European Lab"
          }
        ],
        "category": [
          {
            "coding": [
              {
                "system": "http://terminology.hl7.org/CodeSystem/observation-category",
                "code": "laboratory"
              }
            ]
          }
        ],
        "code": {
          "coding": [
            {
              "code": "38483-4",
              "system": "http://loinc.org",
              "display": "Creatinine [Mass/volume] in Blood"
            }
          ],
          "text": "Creatinine [Mass/volume] in Blood"
        },
        "valueQuantity": {
          "system": "http://unitsofmeasure.org",
          "value": 1.4,
          "unit": "mg/dL",
          "code": "mg/dL"
        },
        "referenceRange": [
          {
            "low": {
              "value": 0.6,
              "code": "mg/dL",
              "system": "http://unitsofmeasure.org"
            }
          },
          {
            "high": {
              "value": 1.1,
              "code": "mg/dL",
              "system": "http://unitsofmeasure.org"
            }
          }
        ],
        "interpretation": [
          {
            "coding": [
              {
                "code": "H",
                "system": "http://terminology.hl7.org/CodeSystem/v3-ObservationInterpretation",
                "display": "High"
              }
            ]
          }
        ],
        "text": {
          "status": "generated",
          "div": "<div xmlns=\"http://www.w3.org/1999/xhtml\"><table class=\"hl7__eu__lab__report\"><tr><th>Test</th><th>19-Sep-2017</th><th>Reference&#xA0;Range</th><th>Unit</th></tr><tr><td>Creatinine [Mass/volume] in Blood</td><td>1.4</td><td>0.6 - 1.1</td><td>H</td><td>mg/dL</td></tr></table></div>"
        },
        "status": "final",
        "subject": {
          "reference": "urn:uuid:1aef801f-a32a-41a4-80e5-3681aadc29ee",
          "display": "Meaghan Neary"
        },
        "effectiveDateTime": "2017-09-18T22:11:04Z",
        "specimen": {
          "reference": "urn:uuid:e9c498e2-6021-4353-81de-b6491ae7b35a"
        }
      }
    },
    {
      "fullUrl": "urn:uuid:a326e7da-6a89-4e4a-951b-d422818ff5c7",
      "resource": {
        "resourceType": "Observation",
        "id": "a326e7da-6a89-4e4a-951b-d422818ff5c7",
        "meta": {
          "profile": [
            "http://hl7.eu/fhir/laboratory/StructureDefinition/Observation-resultslab-eu-lab"
          ]
        },
        "performer": [
          {
            "display": "The Central European Lab"
          }
        ],
        "category": [
          {
            "coding": [
              {
                "system": "http://terminology.hl7.org/CodeSystem/observation-category",
                "code": "laboratory"
              }
            ]
          }
        ],
        "code": {
          "coding": [
            {
              "code": "49765-1",
              "system": "http://loinc.org",
              "display": "Calcium [Mass/volume] in Blood"
            }
          ],
          "text": "Calcium [Mass/volume] in Blood"
        },
        "valueQuantity": {
          "system": "http://unitsofmeasure.org",
          "value": 9.9,
          "unit": "mg/dL",
          "code": "mg/dL"
        },
        "referenceRange": [
          {
            "low": {
              "value": 8.5,
              "code": "mg/dL",
              "system": "http://unitsofmeasure.org"
            }
          },
          {
            "high": {
              "value": 10.5,
              "code": "mg/dL",
              "system": "http://unitsofmeasure.org"
            }
          }
        ],
        "text": {
          "status": "generated",
          "div": "<div xmlns=\"http://www.w3.org/1999/xhtml\"><table class=\"hl7__eu__lab__report\"><tr><th>Test</th><th>19-Sep-2017</th><th>Reference&#xA0;Range</th><th>Unit</th></tr><tr><td>Calcium [Mass/volume] in Blood</td><td>9.9</td><td>8.5 - 10.5</td><td></td><td>mg/dL</td></tr></table></div>"
        },
        "status": "final",
        "subject": {
          "reference": "urn:uuid:1aef801f-a32a-41a4-80e5-3681aadc29ee",
          "display": "Meaghan Neary"
        },
        "effectiveDateTime": "2017-09-18T22:11:04Z",
        "specimen": {
          "reference": "urn:uuid:e9c498e2-6021-4353-81de-b6491ae7b35a"
        }
      }
    },
    {
      "fullUrl": "urn:uuid:34d79cff-06f6-4dfb-a46c-514ce71cf1a9",
      "resource": {
        "resourceType": "Observation",
        "id": "34d79cff-06f6-4dfb-a46c-514ce71cf1a9",
        "meta": {
          "profile": [
            "http://hl7.eu/fhir/laboratory/StructureDefinition/Observation-resultslab-eu-lab"
          ]
        },
        "performer": [
          {
            "display": "The Central European Lab"
          }
        ],
        "category": [
          {
            "coding": [
              {
                "system": "http://terminology.hl7.org/CodeSystem/observation-category",
                "code": "laboratory"
              }
            ]
          }
        ],
        "code": {
          "coding": [
            {
              "code": "2947-0",
              "system": "http://loinc.org",
              "display": "Sodium [Moles/volume] in Blood"
            }
          ],
          "text": "Sodium [Moles/volume] in Blood"
        },
        "valueQuantity": {
          "system": "http://unitsofmeasure.org",
          "value": 139.7,
          "unit": "mmol/L",
          "code": "mmol/L"
        },
        "referenceRange": [
          {
            "low": {
              "value": 135,
              "code": "mmol/L",
              "system": "http://unitsofmeasure.org"
            }
          },
          {
            "high": {
              "value": 145,
              "code": "mmol/L",
              "system": "http://unitsofmeasure.org"
            }
          }
        ],
        "text": {
          "status": "generated",
          "div": "<div xmlns=\"http://www.w3.org/1999/xhtml\"><table class=\"hl7__eu__lab__report\"><tr><th>Test</th><th>19-Sep-2017</th><th>Reference&#xA0;Range</th><th>Unit</th></tr><tr><td>Sodium [Moles/volume] in Blood</td><td>139.7</td><td>135 - 145</td><td></td><td>mmol/L</td></tr></table></div>"
        },
        "status": "final",
        "subject": {
          "reference": "urn:uuid:1aef801f-a32a-41a4-80e5-3681aadc29ee",
          "display": "Meaghan Neary"
        },
        "effectiveDateTime": "2017-09-18T22:11:04Z",
        "specimen": {
          "reference": "urn:uuid:e9c498e2-6021-4353-81de-b6491ae7b35a"
        }
      }
    },
    {
      "fullUrl": "urn:uuid:f8040d98-2e98-4b5a-b8e1-73d79ce77d48",
      "resource": {
        "resourceType": "Observation",
        "id": "f8040d98-2e98-4b5a-b8e1-73d79ce77d48",
        "meta": {
          "profile": [
            "http://hl7.eu/fhir/laboratory/StructureDefinition/Observation-resultslab-eu-lab"
          ]
        },
        "performer": [
          {
            "display": "The Central European Lab"
          }
        ],
        "category": [
          {
            "coding": [
              {
                "system": "http://terminology.hl7.org/CodeSystem/observation-category",
                "code": "laboratory"
              }
            ]
          }
        ],
        "code": {
          "coding": [
            {
              "code": "6298-4",
              "system": "http://loinc.org",
              "display": "Potassium [Moles/volume] in Blood"
            }
          ],
          "text": "Potassium [Moles/volume] in Blood"
        },
        "valueQuantity": {
          "system": "http://unitsofmeasure.org",
          "value": 5,
          "unit": "mmol/L",
          "code": "mmol/L"
        },
        "referenceRange": [
          {
            "low": {
              "value": 3.5,
              "code": "mmol/L",
              "system": "http://unitsofmeasure.org"
            }
          },
          {
            "high": {
              "value": 5.1,
              "code": "mmol/L",
              "system": "http://unitsofmeasure.org"
            }
          }
        ],
        "text": {
          "status": "generated",
          "div": "<div xmlns=\"http://www.w3.org/1999/xhtml\"><table class=\"hl7__eu__lab__report\"><tr><th>Test</th><th>19-Sep-2017</th><th>Reference&#xA0;Range</th><th>Unit</th></tr><tr><td>Potassium [Moles/volume] in Blood</td><td>5.0</td><td>3.5 - 5.1</td><td></td><td>mmol/L</td></tr></table></div>"
        },
        "status": "final",
        "subject": {
          "reference": "urn:uuid:1aef801f-a32a-41a4-80e5-3681aadc29ee",
          "display": "Meaghan Neary"
        },
        "effectiveDateTime": "2017-09-18T22:11:04Z",
        "specimen": {
          "reference": "urn:uuid:e9c498e2-6021-4353-81de-b6491ae7b35a"
        }
      }
    },
    {
      "fullUrl": "urn:uuid:e5bf33df-c1ef-46bc-9160-fe7b83b95751",
      "resource": {
        "resourceType": "Observation",
        "id": "e5bf33df-c1ef-46bc-9160-fe7b83b95751",
        "meta": {
          "profile": [
            "http://hl7.eu/fhir/laboratory/StructureDefinition/Observation-resultslab-eu-lab"
          ]
        },
        "performer": [
          {
            "display": "The Central European Lab"
          }
        ],
        "category": [
          {
            "coding": [
              {
                "system": "http://terminology.hl7.org/CodeSystem/observation-category",
                "code": "laboratory"
              }
            ]
          }
        ],
        "code": {
          "coding": [
            {
              "code": "2069-3",
              "system": "http://loinc.org",
              "display": "Chloride [Moles/volume] in Blood"
            }
          ],
          "text": "Chloride [Moles/volume] in Blood"
        },
        "valueQuantity": {
          "system": "http://unitsofmeasure.org",
          "value": 105.5,
          "unit": "mmol/L",
          "code": "mmol/L"
        },
        "referenceRange": [
          {
            "low": {
              "value": 98,
              "code": "mmol/L",
              "system": "http://unitsofmeasure.org"
            }
          },
          {
            "high": {
              "value": 108,
              "code": "mmol/L",
              "system": "http://unitsofmeasure.org"
            }
          }
        ],
        "text": {
          "status": "generated",
          "div": "<div xmlns=\"http://www.w3.org/1999/xhtml\"><table class=\"hl7__eu__lab__report\"><tr><th>Test</th><th>19-Sep-2017</th><th>Reference&#xA0;Range</th><th>Unit</th></tr><tr><td>Chloride [Moles/volume] in Blood</td><td>105.5</td><td>98 - 108</td><td></td><td>mmol/L</td></tr></table></div>"
        },
        "status": "final",
        "subject": {
          "reference": "urn:uuid:1aef801f-a32a-41a4-80e5-3681aadc29ee",
          "display": "Meaghan Neary"
        },
        "effectiveDateTime": "2017-09-18T22:11:04Z",
        "specimen": {
          "reference": "urn:uuid:e9c498e2-6021-4353-81de-b6491ae7b35a"
        }
      }
    },
    {
      "fullUrl": "urn:uuid:ac48b0ab-84a1-4b86-94ce-75bbbeb6e76c",
      "resource": {
        "resourceType": "Observation",
        "id": "ac48b0ab-84a1-4b86-94ce-75bbbeb6e76c",
        "meta": {
          "profile": [
            "http://hl7.eu/fhir/laboratory/StructureDefinition/Observation-resultslab-eu-lab"
          ]
        },
        "performer": [
          {
            "display": "The Central European Lab"
          }
        ],
        "category": [
          {
            "coding": [
              {
                "system": "http://terminology.hl7.org/CodeSystem/observation-category",
                "code": "laboratory"
              }
            ]
          }
        ],
        "code": {
          "coding": [
            {
              "code": "20565-8",
              "system": "http://loinc.org",
              "display": "Carbon dioxide, total [Moles/volume] in Blood"
            }
          ],
          "text": "Carbon dioxide, total [Moles/volume] in Blood"
        },
        "valueQuantity": {
          "system": "http://unitsofmeasure.org",
          "value": 20.3,
          "unit": "mmol/L",
          "code": "mmol/L"
        },
        "referenceRange": [
          {
            "low": {
              "value": 22,
              "code": "mmol/L",
              "system": "http://unitsofmeasure.org"
            }
          },
          {
            "high": {
              "value": 29,
              "code": "mmol/L",
              "system": "http://unitsofmeasure.org"
            }
          }
        ],
        "interpretation": [
          {
            "coding": [
              {
                "code": "L",
                "system": "http://terminology.hl7.org/CodeSystem/v3-ObservationInterpretation",
                "display": "Low"
              }
            ]
          }
        ],
        "text": {
          "status": "generated",
          "div": "<div xmlns=\"http://www.w3.org/1999/xhtml\"><table class=\"hl7__eu__lab__report\"><tr><th>Test</th><th>19-Sep-2017</th><th>Reference&#xA0;Range</th><th>Unit</th></tr><tr><td>Carbon dioxide, total [Moles/volume] in Blood</td><td>20.3</td><td>22 - 29</td><td>L</td><td>mmol/L</td></tr></table></div>"
        },
        "status": "final",
        "subject": {
          "reference": "urn:uuid:1aef801f-a32a-41a4-80e5-3681aadc29ee",
          "display": "Meaghan Neary"
        },
        "effectiveDateTime": "2017-09-18T22:11:04Z",
        "specimen": {
          "reference": "urn:uuid:e9c498e2-6021-4353-81de-b6491ae7b35a"
        }
      }
    },
    {
      "fullUrl": "urn:uuid:baba9ef9-ac30-43c7-86a6-8bf9dcc10459",
      "resource": {
        "resourceType": "Device",
        "id": "baba9ef9-ac30-43c7-86a6-8bf9dcc10459",
        "deviceName": [
          {
            "name": "SYNDERAI Synthetic Generator",
            "type": "manufacturer-name"
          }
        ],
        "version": [
          {
            "value": "5.0"
          }
        ],
        "text": {
          "status": "generated",
          "div": "<div xmlns=\"http://www.w3.org/1999/xhtml\">SYNDERAI Synthetic Generator v5.0</div>"
        },
        "status": "active\"",
        "distinctIdentifier": "synderai-generator-50",
        "manufacturer": "SYNDERAI Project"
      }
    },
    {
      "fullUrl": "urn:uuid:0f046d91-1cb1-41d0-9985-f7b41c989f65",
      "resource": {
        "resourceType": "Provenance",
        "id": "0f046d91-1cb1-41d0-9985-f7b41c989f65",
        "target": [
          {
            "reference": "Patient/1aef801f-a32a-41a4-80e5-3681aadc29ee"
          },
          {
            "reference": "Bundle/8bc6a22f-7413-4a49-9b9b-1ccac2edd617"
          },
          {
            "reference": "Composition/debcb87e-f07a-424d-91a7-49f488aaf314"
          },
          {
            "reference": "PractitionerRole/111315d2-9c04-46e7-b7ee-b6bd9b82b787"
          },
          {
            "reference": "Practitioner/ee2f6125-2a50-40d3-8e85-c7b8b9ee49ad"
          },
          {
            "reference": "PractitionerRole/2c984864-6663-42cc-ad68-54d63284e4e2"
          },
          {
            "reference": "Organization/9f0ba8ca-5e74-4626-b75f-872bddee4d5d"
          }
        ],
        "activity": {
          "text": "Synthetic Example Data Generation"
        },
        "policy": [
          "https://synderai.net/synderai-synthetic-data-policy"
        ],
        "agent": [
          {
            "type": {
              "text": "author"
            },
            "who": {
              "reference": "Device/baba9ef9-ac30-43c7-86a6-8bf9dcc10459"
            }
          }
        ],
        "reason": [
          {
            "text": "Interoperability Testing and Training (non-clinical use)"
          }
        ],
        "text": {
          "status": "generated",
          "div": "<div xmlns=\"http://www.w3.org/1999/xhtml\">Provenance for SYNDERAI Synthetic Example Data Resource</div>"
        },
        "recorded": "2017-09-19T00:11:04Z"
      }
    },
    {
      "fullUrl": "urn:uuid:111315d2-9c04-46e7-b7ee-b6bd9b82b787",
      "resource": {
        "resourceType": "PractitionerRole",
        "id": "111315d2-9c04-46e7-b7ee-b6bd9b82b787",
        "meta": {
          "profile": [
            "http://hl7.eu/fhir/base/StructureDefinition/practitionerRole-eu"
          ]
        },
        "text": {
          "status": "generated",
          "div": "<div xmlns=\"http://www.w3.org/1999/xhtml\">Laboratory Role Id: 111315d2-9c04-46e7-b7ee-b6bd9b82b787</div>"
        },
        "practitioner": {
          "reference": "urn:uuid:ee2f6125-2a50-40d3-8e85-c7b8b9ee49ad"
        }
      }
    },
    {
      "fullUrl": "urn:uuid:ee2f6125-2a50-40d3-8e85-c7b8b9ee49ad",
      "resource": {
        "resourceType": "Practitioner",
        "id": "ee2f6125-2a50-40d3-8e85-c7b8b9ee49ad",
        "meta": {
          "profile": [
            "http://hl7.eu/fhir/base/StructureDefinition/practitioner-eu"
          ]
        },
        "identifier": [
          {
            "assigner": {
              "display": "HL7 Europe"
            },
            "system": "urn:oid:2.16.840.1.113883.2.51.999",
            "value": "a86ff774-96c6-4730-82f1-9d8ebdd19a8e"
          }
        ],
        "name": [
          {
            "prefix": [
              "dr"
            ],
            "given": [
              "Ex"
            ],
            "family": "Ample"
          }
        ],
        "address": [
          {
            "line": [
              "Laboratoire Central Européenne",
              "Boulevard du Jardin Botanique 32"
            ],
            "postalCode": "1000",
            "city": "Brussels",
            "country": "Belgium"
          }
        ],
        "text": {
          "status": "generated",
          "div": "<div xmlns=\"http://www.w3.org/1999/xhtml\">Laboratory: Laboratoire Central Européenne, 1000 Brussels, Belgium</div>"
        }
      }
    }
  ],
  "type": "document",
  "timestamp": "2017-09-19T00:11:04Z"
}
