{
  "resourceType": "Bundle",
  "id": "02caf274-37de-4bd7-90e3-06c4fd3ff049",
  "meta": {
    "profile": [
      "http://hl7.eu/fhir/laboratory/StructureDefinition/Bundle-eu-lab"
    ]
  },
  "identifier": {
    "assigner": {
      "display": "HL7 Europe"
    },
    "system": "urn:oid:2.16.840.1.113883.2.51.999",
    "value": "29c73de9-66c3-4991-98d2-610000e55f2b"
  },
  "entry": [
    {
      "fullUrl": "urn:uuid:a48ae3cb-c64b-4691-b6ad-ad4bf83572e2",
      "resource": {
        "resourceType": "Composition",
        "id": "a48ae3cb-c64b-4691-b6ad-ad4bf83572e2",
        "meta": {
          "profile": [
            "http://hl7.eu/fhir/laboratory/StructureDefinition/Composition-eu-lab"
          ]
        },
        "identifier": {
          "assigner": {
            "display": "HL7 Europe"
          },
          "system": "urn:oid:2.16.840.1.113883.2.51.999",
          "value": "d7513614-a925-4b0a-a3a5-a69cf7deb6d9"
        },
        "author": [
          {
            "reference": "urn:uuid:4cb5f99c-4757-4cec-8c84-ca8d077741e7"
          }
        ],
        "category": [
          {
            "coding": [
              {
                "code": "26436-6",
                "system": "http://loinc.org",
                "display": "Laboratory studies (set)"
              }
            ]
          }
        ],
        "type": {
          "coding": [
            {
              "code": "11502-2",
              "system": "http://loinc.org",
              "display": "Laboratory report"
            }
          ],
          "text": "Laboratory Report"
        },
        "section": [
          {
            "code": {
              "coding": [
                {
                  "code": "26436-6",
                  "system": "http://loinc.org",
                  "display": "Laboratory studies (set)"
                }
              ],
              "text": "Laboratory studies"
            },
            "section": [
              {
                "code": {
                  "coding": [
                    {
                      "code": "$18719-5",
                      "system": "http://loinc.org",
                      "display": "Chemistry studies (set)"
                    }
                  ],
                  "text": "Chemistry"
                },
                "entry": [
                  {
                    "reference": "urn:uuid:e1c3a3e1-df37-47e3-9fdb-83bee39fed7b"
                  },
                  {
                    "reference": "urn:uuid:cbef7c1c-a420-4e50-9642-8a39b8d27123"
                  },
                  {
                    "reference": "urn:uuid:a8dd53a5-07da-4b91-a4b4-04a715bc909c"
                  },
                  {
                    "reference": "urn:uuid:901c22e7-f7d3-4a1d-9e25-b7f87d4bf468"
                  },
                  {
                    "reference": "urn:uuid:8dac40a3-03f8-47d6-979a-51a26873dabc"
                  },
                  {
                    "reference": "urn:uuid:08dbdf54-3392-49b7-b319-05cac06d6539"
                  },
                  {
                    "reference": "urn:uuid:dd37e7a9-5f48-4c51-8a28-4aedf0cce94f"
                  },
                  {
                    "reference": "urn:uuid:a48130fd-7b22-472e-8679-52e3083fe3ff"
                  },
                  {
                    "reference": "urn:uuid:b49fab2b-caa1-4cbe-99b0-1588a28eff60"
                  }
                ],
                "text": {
                  "status": "generated",
                  "div": "<div xmlns=\"http://www.w3.org/1999/xhtml\"><h3>Chemistry</h3><table class=\"hl7__eu__lab__report\"><thead><tr><th>Test</th><th>27-OCT-2019</th><th>Reference&#xA0;Range</th><th>Unit</th></tr></thead><tbody><tr><td>Hemoglobin A1c/Hemoglobin.total in Blood</td><td>5.8</td><td>4.5 - 6.4</td><td>%</td></tr><tr><td>Glucose [Mass/volume] in Blood</td><td><strong>64.8 L</strong></td><td>70 - 140</td><td>mg/dL</td></tr><tr><td>Urea nitrogen [Mass/volume] in Blood</td><td>9.9</td><td>7 - 25</td><td>mg/dL</td></tr><tr><td>Creatinine [Mass/volume] in Blood</td><td><strong>0.5 L</strong></td><td>0.6 - 1.1</td><td>mg/dL</td></tr><tr><td>Calcium [Mass/volume] in Blood</td><td>9.5</td><td>8.6 - 10.4</td><td>mg/dL</td></tr><tr><td>Sodium [Moles/volume] in Blood</td><td>137.0</td><td>135 - 145</td><td>mmol/L</td></tr><tr><td>Potassium [Moles/volume] in Blood</td><td>4.5</td><td>3.5 - 5.3</td><td>mmol/L</td></tr><tr><td>Chloride [Moles/volume] in Blood</td><td>101.5</td><td>98 - 108</td><td>mmol/L</td></tr><tr><td>Carbon dioxide, total [Moles/volume] in Blood</td><td>22.6</td><td>22 - 32</td><td>mmol/L</td></tr></tbody></table></div>"
                },
                "title": "Chemistry"
              }
            ],
            "title": "Laboratory Report"
          },
          {
            "text": {
              "status": "generated",
              "div": "<div xmlns=\"http://www.w3.org/1999/xhtml\"><h3>Annotation</h3><table class=\"hl7__eu__lab__report\"><tr><th>Conclusion and Recommendations based on this report and previous findings known to us</th></tr><tr><td>The patient shows mild hypoglycemia and slightly low creatinine, which may reflect reduced muscle mass typical for advanced age. Other parameters, including renal function, electrolytes, calcium, and HbA1c, are within normal limits. No acute laboratory abnormalities detected; clinical correlation for hypoglycemia is recommended.</td></tr></table></div>"
            },
            "code": {
              "coding": [
                {
                  "system": "http://loinc.org",
                  "code": "48767-8",
                  "display": "Annotation comment"
                }
              ]
            },
            "title": "Annotation comment"
          }
        ],
        "status": "final",
        "subject": {
          "reference": "urn:uuid:649894b9-9e2e-466a-a5ce-1cdff87b4c2c",
          "display": "Helene Andresen"
        },
        "date": "2019-10-27T00:53:36Z",
        "title": "Laboratory Report",
        "confidentiality": "N"
      }
    },
    {
      "fullUrl": "urn:uuid:c313010a-e8df-4f9f-8659-a3cb7d6a34bc",
      "resource": {
        "resourceType": "DiagnosticReport",
        "id": "c313010a-e8df-4f9f-8659-a3cb7d6a34bc",
        "meta": {
          "profile": [
            "http://hl7.eu/fhir/laboratory/StructureDefinition/DiagnosticReport-eu-lab"
          ]
        },
        "identifier": [
          {
            "assigner": {
              "display": "HL7 Europe"
            },
            "system": "urn:oid:2.16.840.1.113883.2.51.999",
            "value": "46c02ff3-e057-4c24-9960-f1b30a568300"
          }
        ],
        "extension": [
          {
            "url": "http://hl7.org/fhir/5.0/StructureDefinition/extension-DiagnosticReport.composition",
            "valueReference": {
              "reference": "urn:uuid:d7513614-a925-4b0a-a3a5-a69cf7deb6d9"
            }
          }
        ],
        "category": [
          {
            "coding": [
              {
                "code": "26436-6",
                "system": "http://loinc.org",
                "display": "Laboratory studies (set)"
              }
            ]
          }
        ],
        "specimen": [
          {
            "reference": "urn:uuid:83a520e0-3fc9-4537-89f0-830f9a364865"
          }
        ],
        "result": [
          {
            "reference": "urn:uuid:e1c3a3e1-df37-47e3-9fdb-83bee39fed7b"
          },
          {
            "reference": "urn:uuid:cbef7c1c-a420-4e50-9642-8a39b8d27123"
          },
          {
            "reference": "urn:uuid:a8dd53a5-07da-4b91-a4b4-04a715bc909c"
          },
          {
            "reference": "urn:uuid:901c22e7-f7d3-4a1d-9e25-b7f87d4bf468"
          },
          {
            "reference": "urn:uuid:8dac40a3-03f8-47d6-979a-51a26873dabc"
          },
          {
            "reference": "urn:uuid:08dbdf54-3392-49b7-b319-05cac06d6539"
          },
          {
            "reference": "urn:uuid:dd37e7a9-5f48-4c51-8a28-4aedf0cce94f"
          },
          {
            "reference": "urn:uuid:a48130fd-7b22-472e-8679-52e3083fe3ff"
          },
          {
            "reference": "urn:uuid:b49fab2b-caa1-4cbe-99b0-1588a28eff60"
          }
        ],
        "status": "registered",
        "code": {
          "coding": [
            {
              "code": "11502-2",
              "system": "http://loinc.org",
              "display": "Laboratory report"
            }
          ]
        },
        "subject": {
          "reference": "urn:uuid:649894b9-9e2e-466a-a5ce-1cdff87b4c2c",
          "display": "Helene Andresen"
        }
      }
    },
    {
      "fullUrl": "urn:uuid:649894b9-9e2e-466a-a5ce-1cdff87b4c2c",
      "resource": {
        "resourceType": "Patient",
        "id": "649894b9-9e2e-466a-a5ce-1cdff87b4c2c",
        "meta": {
          "security": [
            {
              "system": "http://terminology.hl7.org/CodeSystem/v3-ActReason",
              "code": "HTEST"
            },
            {
              "system": "http://terminology.hl7.org/CodeSystem/v3-ActReason",
              "code": "TRAIN"
            }
          ],
          "tag": [
            {
              "system": "https://synderai.net/fhir/CodeSystem/tags",
              "code": "synthetic",
              "display": "SYNDERAI Synthetic data"
            }
          ],
          "profile": [
            "http://hl7.eu/fhir/base/StructureDefinition/patient-eu-core"
          ]
        },
        "identifier": [
          {
            "type": {
              "coding": [
                {
                  "code": "PT",
                  "system": "http://terminology.hl7.org/CodeSystem/v2-0203"
                }
              ]
            },
            "system": "http://ec.europa.eu/identifier/eci",
            "value": "3450-170343-2"
          },
          {
            "type": {
              "coding": [
                {
                  "code": "MR",
                  "system": "http://terminology.hl7.org/CodeSystem/v2-0203"
                }
              ]
            },
            "system": "http://local.setting.eu/identifier",
            "value": "72e91c9c-0b01-42b0-a6a0-6dcc70aeec49"
          }
        ],
        "name": [
          {
            "family": "Andresen"
          },
          {
            "given": [
              "Helene"
            ]
          },
          {
            "text": "Helene Andresen"
          }
        ],
        "address": [
          {
            "line": [
              "Kristiansenberget 2"
            ],
            "use": "home",
            "type": "physical",
            "postalCode": "0172",
            "city": "Sørensen",
            "country": "Norway"
          }
        ],
        "telecom": [
          {
            "system": "phone",
            "value": "53 98 86 24"
          }
        ],
        "extension": [
          {
            "url": "http://hl7.org/fhir/StructureDefinition/patient-nationality",
            "valueCodeableConcept": {
              "coding": [
                {
                  "code": "NO",
                  "system": "http://hl7.org/fhir/ValueSet/country"
                }
              ]
            }
          }
        ],
        "text": {
          "status": "generated",
          "div": "<div xmlns=\"http://www.w3.org/1999/xhtml\"><table class=\"hl7__ips\"><tr><td>Helene Andresen</td><td>female</td><td>17-Oct-1939</td></tr></table></div>"
        },
        "gender": "female",
        "birthDate": "1939-10-17"
      }
    },
    {
      "fullUrl": "urn:uuid:09095fa8-2577-429e-a7e0-c283deb92a95",
      "resource": {
        "resourceType": "ServiceRequest",
        "id": "09095fa8-2577-429e-a7e0-c283deb92a95",
        "meta": {
          "profile": [
            "http://hl7.eu/fhir/laboratory/StructureDefinition/ServiceRequest-eu-lab"
          ]
        },
        "identifier": [
          {
            "system": "http://example.org",
            "value": "1ec08c25-a2c4-4a20-bd78-166b6cbc5262"
          }
        ],
        "specimen": [
          {
            "reference": "urn:uuid:83a520e0-3fc9-4537-89f0-830f9a364865"
          }
        ],
        "reasonCode": [
          {
            "coding": [
              {
                "code": "64859006",
                "system": "http://snomed.info/sct",
                "display": "Osteoporosis"
              }
            ]
          },
          {
            "coding": [
              {
                "code": "40055000",
                "system": "http://snomed.info/sct",
                "display": "Chronic sinusitis"
              }
            ]
          },
          {
            "coding": [
              {
                "code": "55822004",
                "system": "http://snomed.info/sct",
                "display": "Hyperlipidemia"
              }
            ]
          },
          {
            "coding": [
              {
                "code": "271737000",
                "system": "http://snomed.info/sct",
                "display": "Anemia"
              }
            ]
          },
          {
            "coding": [
              {
                "code": "15777000",
                "system": "http://snomed.info/sct",
                "display": "Prediabetes"
              }
            ]
          },
          {
            "coding": [
              {
                "code": "128613002",
                "system": "http://snomed.info/sct",
                "display": "Seizure disorder"
              }
            ]
          }
        ],
        "status": "active",
        "intent": "order",
        "code": {
          "coding": [
            {
              "code": "108252007",
              "system": "http://snomed.info/sct",
              "display": "Laboratory procedure"
            }
          ]
        },
        "subject": {
          "reference": "urn:uuid:649894b9-9e2e-466a-a5ce-1cdff87b4c2c",
          "display": "Helene Andresen"
        },
        "requester": {
          "reference": "urn:uuid:a18d346c-e189-40fa-aba6-78336d59dc87"
        }
      }
    },
    {
      "fullUrl": "urn:uuid:a18d346c-e189-40fa-aba6-78336d59dc87",
      "resource": {
        "resourceType": "PractitionerRole",
        "id": "a18d346c-e189-40fa-aba6-78336d59dc87",
        "meta": {
          "profile": [
            "http://hl7.eu/fhir/base/StructureDefinition/practitionerRole-eu"
          ]
        },
        "text": {
          "status": "generated",
          "div": "<div xmlns=\"http://www.w3.org/1999/xhtml\">Provider Role Id: a18d346c-e189-40fa-aba6-78336d59dc87</div>"
        },
        "organization": {
          "reference": "urn:uuid:0c74e540-5cf4-4c98-bbe6-90d2f33d22ca"
        }
      }
    },
    {
      "fullUrl": "urn:uuid:0c74e540-5cf4-4c98-bbe6-90d2f33d22ca",
      "resource": {
        "resourceType": "Organization",
        "id": "0c74e540-5cf4-4c98-bbe6-90d2f33d22ca",
        "meta": {
          "profile": [
            "http://hl7.eu/fhir/base/StructureDefinition/organization-eu"
          ]
        },
        "identifier": [
          {
            "assigner": {
              "display": "HL7 Europe"
            },
            "system": "urn:oid:2.16.840.1.113883.2.51.999",
            "value": "3771bd7a-05f3-4577-88ba-0b0ee7afa82a"
          }
        ],
        "address": [
          {
            "city": "Oslo",
            "postalCode": "0155",
            "country": "Norway"
          }
        ],
        "text": {
          "status": "generated",
          "div": "<div xmlns=\"http://www.w3.org/1999/xhtml\">Provider Organization: Oslo universitetssykehus (Ullevål)</div>"
        },
        "name": "Oslo universitetssykehus (Ullevål)"
      }
    },
    {
      "fullUrl": "urn:uuid:83a520e0-3fc9-4537-89f0-830f9a364865",
      "resource": {
        "resourceType": "Specimen",
        "id": "83a520e0-3fc9-4537-89f0-830f9a364865",
        "meta": {
          "profile": [
            "http://hl7.eu/fhir/laboratory/StructureDefinition/Specimen-eu-lab"
          ]
        },
        "collection": {
          "collectedDateTime": "2019-10-26"
        },
        "text": {
          "status": "generated",
          "div": "<div xmlns=\"http://www.w3.org/1999/xhtml\"><table class=\"hl7__eu__lab__report\"><tr><th>Specimen</th><th>Collection Date</th></tr><tr><td>Whole blood specimen (specimen)</td><td><span class=\"nb\">26-Oct-2019</span></td></tr></table></div>"
        },
        "type": {
          "coding": [
            {
              "code": "258580003",
              "system": "http://snomed.info/sct",
              "display": "Whole blood specimen (specimen)"
            }
          ]
        }
      }
    },
    {
      "fullUrl": "urn:uuid:e1c3a3e1-df37-47e3-9fdb-83bee39fed7b",
      "resource": {
        "resourceType": "Observation",
        "id": "e1c3a3e1-df37-47e3-9fdb-83bee39fed7b",
        "meta": {
          "profile": [
            "http://hl7.eu/fhir/laboratory/StructureDefinition/Observation-resultslab-eu-lab"
          ]
        },
        "performer": [
          {
            "display": "The Central European Lab"
          }
        ],
        "category": [
          {
            "coding": [
              {
                "system": "http://terminology.hl7.org/CodeSystem/observation-category",
                "code": "laboratory"
              }
            ]
          }
        ],
        "code": {
          "coding": [
            {
              "code": "4548-4",
              "system": "http://loinc.org",
              "display": "Hemoglobin A1c/Hemoglobin.total in Blood"
            }
          ],
          "text": "Hemoglobin A1c/Hemoglobin.total in Blood"
        },
        "valueQuantity": {
          "system": "http://unitsofmeasure.org",
          "value": 5.8,
          "unit": "%",
          "code": "%"
        },
        "referenceRange": [
          {
            "low": {
              "value": 4.5,
              "code": "%",
              "system": "http://unitsofmeasure.org"
            }
          },
          {
            "high": {
              "value": 6.4,
              "code": "%",
              "system": "http://unitsofmeasure.org"
            }
          }
        ],
        "text": {
          "status": "generated",
          "div": "<div xmlns=\"http://www.w3.org/1999/xhtml\"><table class=\"hl7__eu__lab__report\"><tr><th>Test</th><th>27-Oct-2019</th><th>Reference&#xA0;Range</th><th>Unit</th></tr><tr><td>Hemoglobin A1c/Hemoglobin.total in Blood</td><td>5.8</td><td>4.5 - 6.4</td><td></td><td>%</td></tr></table></div>"
        },
        "status": "final",
        "subject": {
          "reference": "urn:uuid:649894b9-9e2e-466a-a5ce-1cdff87b4c2c",
          "display": "Helene Andresen"
        },
        "effectiveDateTime": "2019-10-26T22:53:36Z",
        "specimen": {
          "reference": "urn:uuid:83a520e0-3fc9-4537-89f0-830f9a364865"
        }
      }
    },
    {
      "fullUrl": "urn:uuid:cbef7c1c-a420-4e50-9642-8a39b8d27123",
      "resource": {
        "resourceType": "Observation",
        "id": "cbef7c1c-a420-4e50-9642-8a39b8d27123",
        "meta": {
          "profile": [
            "http://hl7.eu/fhir/laboratory/StructureDefinition/Observation-resultslab-eu-lab"
          ]
        },
        "performer": [
          {
            "display": "The Central European Lab"
          }
        ],
        "category": [
          {
            "coding": [
              {
                "system": "http://terminology.hl7.org/CodeSystem/observation-category",
                "code": "laboratory"
              }
            ]
          }
        ],
        "code": {
          "coding": [
            {
              "code": "2339-0",
              "system": "http://loinc.org",
              "display": "Glucose [Mass/volume] in Blood"
            }
          ],
          "text": "Glucose [Mass/volume] in Blood"
        },
        "valueQuantity": {
          "system": "http://unitsofmeasure.org",
          "value": 64.8,
          "unit": "mg/dL",
          "code": "mg/dL"
        },
        "referenceRange": [
          {
            "low": {
              "value": 70,
              "code": "mg/dL",
              "system": "http://unitsofmeasure.org"
            }
          },
          {
            "high": {
              "value": 140,
              "code": "mg/dL",
              "system": "http://unitsofmeasure.org"
            }
          }
        ],
        "interpretation": [
          {
            "coding": [
              {
                "code": "L",
                "system": "http://terminology.hl7.org/CodeSystem/v3-ObservationInterpretation",
                "display": "Low"
              }
            ]
          }
        ],
        "text": {
          "status": "generated",
          "div": "<div xmlns=\"http://www.w3.org/1999/xhtml\"><table class=\"hl7__eu__lab__report\"><tr><th>Test</th><th>27-Oct-2019</th><th>Reference&#xA0;Range</th><th>Unit</th></tr><tr><td>Glucose [Mass/volume] in Blood</td><td>64.8</td><td>70 - 140</td><td>L</td><td>mg/dL</td></tr></table></div>"
        },
        "status": "final",
        "subject": {
          "reference": "urn:uuid:649894b9-9e2e-466a-a5ce-1cdff87b4c2c",
          "display": "Helene Andresen"
        },
        "effectiveDateTime": "2019-10-26T22:53:36Z",
        "specimen": {
          "reference": "urn:uuid:83a520e0-3fc9-4537-89f0-830f9a364865"
        }
      }
    },
    {
      "fullUrl": "urn:uuid:a8dd53a5-07da-4b91-a4b4-04a715bc909c",
      "resource": {
        "resourceType": "Observation",
        "id": "a8dd53a5-07da-4b91-a4b4-04a715bc909c",
        "meta": {
          "profile": [
            "http://hl7.eu/fhir/laboratory/StructureDefinition/Observation-resultslab-eu-lab"
          ]
        },
        "performer": [
          {
            "display": "The Central European Lab"
          }
        ],
        "category": [
          {
            "coding": [
              {
                "system": "http://terminology.hl7.org/CodeSystem/observation-category",
                "code": "laboratory"
              }
            ]
          }
        ],
        "code": {
          "coding": [
            {
              "code": "6299-2",
              "system": "http://loinc.org",
              "display": "Urea nitrogen [Mass/volume] in Blood"
            }
          ],
          "text": "Urea nitrogen [Mass/volume] in Blood"
        },
        "valueQuantity": {
          "system": "http://unitsofmeasure.org",
          "value": 9.9,
          "unit": "mg/dL",
          "code": "mg/dL"
        },
        "referenceRange": [
          {
            "low": {
              "value": 7,
              "code": "mg/dL",
              "system": "http://unitsofmeasure.org"
            }
          },
          {
            "high": {
              "value": 25,
              "code": "mg/dL",
              "system": "http://unitsofmeasure.org"
            }
          }
        ],
        "text": {
          "status": "generated",
          "div": "<div xmlns=\"http://www.w3.org/1999/xhtml\"><table class=\"hl7__eu__lab__report\"><tr><th>Test</th><th>27-Oct-2019</th><th>Reference&#xA0;Range</th><th>Unit</th></tr><tr><td>Urea nitrogen [Mass/volume] in Blood</td><td>9.9</td><td>7 - 25</td><td></td><td>mg/dL</td></tr></table></div>"
        },
        "status": "final",
        "subject": {
          "reference": "urn:uuid:649894b9-9e2e-466a-a5ce-1cdff87b4c2c",
          "display": "Helene Andresen"
        },
        "effectiveDateTime": "2019-10-26T22:53:36Z",
        "specimen": {
          "reference": "urn:uuid:83a520e0-3fc9-4537-89f0-830f9a364865"
        }
      }
    },
    {
      "fullUrl": "urn:uuid:901c22e7-f7d3-4a1d-9e25-b7f87d4bf468",
      "resource": {
        "resourceType": "Observation",
        "id": "901c22e7-f7d3-4a1d-9e25-b7f87d4bf468",
        "meta": {
          "profile": [
            "http://hl7.eu/fhir/laboratory/StructureDefinition/Observation-resultslab-eu-lab"
          ]
        },
        "performer": [
          {
            "display": "The Central European Lab"
          }
        ],
        "category": [
          {
            "coding": [
              {
                "system": "http://terminology.hl7.org/CodeSystem/observation-category",
                "code": "laboratory"
              }
            ]
          }
        ],
        "code": {
          "coding": [
            {
              "code": "38483-4",
              "system": "http://loinc.org",
              "display": "Creatinine [Mass/volume] in Blood"
            }
          ],
          "text": "Creatinine [Mass/volume] in Blood"
        },
        "valueQuantity": {
          "system": "http://unitsofmeasure.org",
          "value": 0.5,
          "unit": "mg/dL",
          "code": "mg/dL"
        },
        "referenceRange": [
          {
            "low": {
              "value": 0.6,
              "code": "mg/dL",
              "system": "http://unitsofmeasure.org"
            }
          },
          {
            "high": {
              "value": 1.1,
              "code": "mg/dL",
              "system": "http://unitsofmeasure.org"
            }
          }
        ],
        "interpretation": [
          {
            "coding": [
              {
                "code": "L",
                "system": "http://terminology.hl7.org/CodeSystem/v3-ObservationInterpretation",
                "display": "Low"
              }
            ]
          }
        ],
        "text": {
          "status": "generated",
          "div": "<div xmlns=\"http://www.w3.org/1999/xhtml\"><table class=\"hl7__eu__lab__report\"><tr><th>Test</th><th>27-Oct-2019</th><th>Reference&#xA0;Range</th><th>Unit</th></tr><tr><td>Creatinine [Mass/volume] in Blood</td><td>0.5</td><td>0.6 - 1.1</td><td>L</td><td>mg/dL</td></tr></table></div>"
        },
        "status": "final",
        "subject": {
          "reference": "urn:uuid:649894b9-9e2e-466a-a5ce-1cdff87b4c2c",
          "display": "Helene Andresen"
        },
        "effectiveDateTime": "2019-10-26T22:53:36Z",
        "specimen": {
          "reference": "urn:uuid:83a520e0-3fc9-4537-89f0-830f9a364865"
        }
      }
    },
    {
      "fullUrl": "urn:uuid:8dac40a3-03f8-47d6-979a-51a26873dabc",
      "resource": {
        "resourceType": "Observation",
        "id": "8dac40a3-03f8-47d6-979a-51a26873dabc",
        "meta": {
          "profile": [
            "http://hl7.eu/fhir/laboratory/StructureDefinition/Observation-resultslab-eu-lab"
          ]
        },
        "performer": [
          {
            "display": "The Central European Lab"
          }
        ],
        "category": [
          {
            "coding": [
              {
                "system": "http://terminology.hl7.org/CodeSystem/observation-category",
                "code": "laboratory"
              }
            ]
          }
        ],
        "code": {
          "coding": [
            {
              "code": "49765-1",
              "system": "http://loinc.org",
              "display": "Calcium [Mass/volume] in Blood"
            }
          ],
          "text": "Calcium [Mass/volume] in Blood"
        },
        "valueQuantity": {
          "system": "http://unitsofmeasure.org",
          "value": 9.5,
          "unit": "mg/dL",
          "code": "mg/dL"
        },
        "referenceRange": [
          {
            "low": {
              "value": 8.6,
              "code": "mg/dL",
              "system": "http://unitsofmeasure.org"
            }
          },
          {
            "high": {
              "value": 10.4,
              "code": "mg/dL",
              "system": "http://unitsofmeasure.org"
            }
          }
        ],
        "text": {
          "status": "generated",
          "div": "<div xmlns=\"http://www.w3.org/1999/xhtml\"><table class=\"hl7__eu__lab__report\"><tr><th>Test</th><th>27-Oct-2019</th><th>Reference&#xA0;Range</th><th>Unit</th></tr><tr><td>Calcium [Mass/volume] in Blood</td><td>9.5</td><td>8.6 - 10.4</td><td></td><td>mg/dL</td></tr></table></div>"
        },
        "status": "final",
        "subject": {
          "reference": "urn:uuid:649894b9-9e2e-466a-a5ce-1cdff87b4c2c",
          "display": "Helene Andresen"
        },
        "effectiveDateTime": "2019-10-26T22:53:36Z",
        "specimen": {
          "reference": "urn:uuid:83a520e0-3fc9-4537-89f0-830f9a364865"
        }
      }
    },
    {
      "fullUrl": "urn:uuid:08dbdf54-3392-49b7-b319-05cac06d6539",
      "resource": {
        "resourceType": "Observation",
        "id": "08dbdf54-3392-49b7-b319-05cac06d6539",
        "meta": {
          "profile": [
            "http://hl7.eu/fhir/laboratory/StructureDefinition/Observation-resultslab-eu-lab"
          ]
        },
        "performer": [
          {
            "display": "The Central European Lab"
          }
        ],
        "category": [
          {
            "coding": [
              {
                "system": "http://terminology.hl7.org/CodeSystem/observation-category",
                "code": "laboratory"
              }
            ]
          }
        ],
        "code": {
          "coding": [
            {
              "code": "2947-0",
              "system": "http://loinc.org",
              "display": "Sodium [Moles/volume] in Blood"
            }
          ],
          "text": "Sodium [Moles/volume] in Blood"
        },
        "valueQuantity": {
          "system": "http://unitsofmeasure.org",
          "value": 137,
          "unit": "mmol/L",
          "code": "mmol/L"
        },
        "referenceRange": [
          {
            "low": {
              "value": 135,
              "code": "mmol/L",
              "system": "http://unitsofmeasure.org"
            }
          },
          {
            "high": {
              "value": 145,
              "code": "mmol/L",
              "system": "http://unitsofmeasure.org"
            }
          }
        ],
        "text": {
          "status": "generated",
          "div": "<div xmlns=\"http://www.w3.org/1999/xhtml\"><table class=\"hl7__eu__lab__report\"><tr><th>Test</th><th>27-Oct-2019</th><th>Reference&#xA0;Range</th><th>Unit</th></tr><tr><td>Sodium [Moles/volume] in Blood</td><td>137.0</td><td>135 - 145</td><td></td><td>mmol/L</td></tr></table></div>"
        },
        "status": "final",
        "subject": {
          "reference": "urn:uuid:649894b9-9e2e-466a-a5ce-1cdff87b4c2c",
          "display": "Helene Andresen"
        },
        "effectiveDateTime": "2019-10-26T22:53:36Z",
        "specimen": {
          "reference": "urn:uuid:83a520e0-3fc9-4537-89f0-830f9a364865"
        }
      }
    },
    {
      "fullUrl": "urn:uuid:dd37e7a9-5f48-4c51-8a28-4aedf0cce94f",
      "resource": {
        "resourceType": "Observation",
        "id": "dd37e7a9-5f48-4c51-8a28-4aedf0cce94f",
        "meta": {
          "profile": [
            "http://hl7.eu/fhir/laboratory/StructureDefinition/Observation-resultslab-eu-lab"
          ]
        },
        "performer": [
          {
            "display": "The Central European Lab"
          }
        ],
        "category": [
          {
            "coding": [
              {
                "system": "http://terminology.hl7.org/CodeSystem/observation-category",
                "code": "laboratory"
              }
            ]
          }
        ],
        "code": {
          "coding": [
            {
              "code": "6298-4",
              "system": "http://loinc.org",
              "display": "Potassium [Moles/volume] in Blood"
            }
          ],
          "text": "Potassium [Moles/volume] in Blood"
        },
        "valueQuantity": {
          "system": "http://unitsofmeasure.org",
          "value": 4.5,
          "unit": "mmol/L",
          "code": "mmol/L"
        },
        "referenceRange": [
          {
            "low": {
              "value": 3.5,
              "code": "mmol/L",
              "system": "http://unitsofmeasure.org"
            }
          },
          {
            "high": {
              "value": 5.3,
              "code": "mmol/L",
              "system": "http://unitsofmeasure.org"
            }
          }
        ],
        "text": {
          "status": "generated",
          "div": "<div xmlns=\"http://www.w3.org/1999/xhtml\"><table class=\"hl7__eu__lab__report\"><tr><th>Test</th><th>27-Oct-2019</th><th>Reference&#xA0;Range</th><th>Unit</th></tr><tr><td>Potassium [Moles/volume] in Blood</td><td>4.5</td><td>3.5 - 5.3</td><td></td><td>mmol/L</td></tr></table></div>"
        },
        "status": "final",
        "subject": {
          "reference": "urn:uuid:649894b9-9e2e-466a-a5ce-1cdff87b4c2c",
          "display": "Helene Andresen"
        },
        "effectiveDateTime": "2019-10-26T22:53:36Z",
        "specimen": {
          "reference": "urn:uuid:83a520e0-3fc9-4537-89f0-830f9a364865"
        }
      }
    },
    {
      "fullUrl": "urn:uuid:a48130fd-7b22-472e-8679-52e3083fe3ff",
      "resource": {
        "resourceType": "Observation",
        "id": "a48130fd-7b22-472e-8679-52e3083fe3ff",
        "meta": {
          "profile": [
            "http://hl7.eu/fhir/laboratory/StructureDefinition/Observation-resultslab-eu-lab"
          ]
        },
        "performer": [
          {
            "display": "The Central European Lab"
          }
        ],
        "category": [
          {
            "coding": [
              {
                "system": "http://terminology.hl7.org/CodeSystem/observation-category",
                "code": "laboratory"
              }
            ]
          }
        ],
        "code": {
          "coding": [
            {
              "code": "2069-3",
              "system": "http://loinc.org",
              "display": "Chloride [Moles/volume] in Blood"
            }
          ],
          "text": "Chloride [Moles/volume] in Blood"
        },
        "valueQuantity": {
          "system": "http://unitsofmeasure.org",
          "value": 101.5,
          "unit": "mmol/L",
          "code": "mmol/L"
        },
        "referenceRange": [
          {
            "low": {
              "value": 98,
              "code": "mmol/L",
              "system": "http://unitsofmeasure.org"
            }
          },
          {
            "high": {
              "value": 108,
              "code": "mmol/L",
              "system": "http://unitsofmeasure.org"
            }
          }
        ],
        "text": {
          "status": "generated",
          "div": "<div xmlns=\"http://www.w3.org/1999/xhtml\"><table class=\"hl7__eu__lab__report\"><tr><th>Test</th><th>27-Oct-2019</th><th>Reference&#xA0;Range</th><th>Unit</th></tr><tr><td>Chloride [Moles/volume] in Blood</td><td>101.5</td><td>98 - 108</td><td></td><td>mmol/L</td></tr></table></div>"
        },
        "status": "final",
        "subject": {
          "reference": "urn:uuid:649894b9-9e2e-466a-a5ce-1cdff87b4c2c",
          "display": "Helene Andresen"
        },
        "effectiveDateTime": "2019-10-26T22:53:36Z",
        "specimen": {
          "reference": "urn:uuid:83a520e0-3fc9-4537-89f0-830f9a364865"
        }
      }
    },
    {
      "fullUrl": "urn:uuid:b49fab2b-caa1-4cbe-99b0-1588a28eff60",
      "resource": {
        "resourceType": "Observation",
        "id": "b49fab2b-caa1-4cbe-99b0-1588a28eff60",
        "meta": {
          "profile": [
            "http://hl7.eu/fhir/laboratory/StructureDefinition/Observation-resultslab-eu-lab"
          ]
        },
        "performer": [
          {
            "display": "The Central European Lab"
          }
        ],
        "category": [
          {
            "coding": [
              {
                "system": "http://terminology.hl7.org/CodeSystem/observation-category",
                "code": "laboratory"
              }
            ]
          }
        ],
        "code": {
          "coding": [
            {
              "code": "20565-8",
              "system": "http://loinc.org",
              "display": "Carbon dioxide, total [Moles/volume] in Blood"
            }
          ],
          "text": "Carbon dioxide, total [Moles/volume] in Blood"
        },
        "valueQuantity": {
          "system": "http://unitsofmeasure.org",
          "value": 22.6,
          "unit": "mmol/L",
          "code": "mmol/L"
        },
        "referenceRange": [
          {
            "low": {
              "value": 22,
              "code": "mmol/L",
              "system": "http://unitsofmeasure.org"
            }
          },
          {
            "high": {
              "value": 32,
              "code": "mmol/L",
              "system": "http://unitsofmeasure.org"
            }
          }
        ],
        "text": {
          "status": "generated",
          "div": "<div xmlns=\"http://www.w3.org/1999/xhtml\"><table class=\"hl7__eu__lab__report\"><tr><th>Test</th><th>27-Oct-2019</th><th>Reference&#xA0;Range</th><th>Unit</th></tr><tr><td>Carbon dioxide, total [Moles/volume] in Blood</td><td>22.6</td><td>22 - 32</td><td></td><td>mmol/L</td></tr></table></div>"
        },
        "status": "final",
        "subject": {
          "reference": "urn:uuid:649894b9-9e2e-466a-a5ce-1cdff87b4c2c",
          "display": "Helene Andresen"
        },
        "effectiveDateTime": "2019-10-26T22:53:36Z",
        "specimen": {
          "reference": "urn:uuid:83a520e0-3fc9-4537-89f0-830f9a364865"
        }
      }
    },
    {
      "fullUrl": "urn:uuid:139f97d4-3d55-4403-8ee4-8c4f76ab0b63",
      "resource": {
        "resourceType": "Device",
        "id": "139f97d4-3d55-4403-8ee4-8c4f76ab0b63",
        "deviceName": [
          {
            "name": "SYNDERAI Synthetic Generator",
            "type": "manufacturer-name"
          }
        ],
        "version": [
          {
            "value": "5.0"
          }
        ],
        "text": {
          "status": "generated",
          "div": "<div xmlns=\"http://www.w3.org/1999/xhtml\">SYNDERAI Synthetic Generator v5.0</div>"
        },
        "status": "active\"",
        "distinctIdentifier": "synderai-generator-50",
        "manufacturer": "SYNDERAI Project"
      }
    },
    {
      "fullUrl": "urn:uuid:fc0c4bf2-d9d7-4710-ae6f-2bc771165019",
      "resource": {
        "resourceType": "Provenance",
        "id": "fc0c4bf2-d9d7-4710-ae6f-2bc771165019",
        "target": [
          {
            "reference": "Patient/649894b9-9e2e-466a-a5ce-1cdff87b4c2c"
          },
          {
            "reference": "Bundle/02caf274-37de-4bd7-90e3-06c4fd3ff049"
          },
          {
            "reference": "Composition/a48ae3cb-c64b-4691-b6ad-ad4bf83572e2"
          },
          {
            "reference": "PractitionerRole/4cb5f99c-4757-4cec-8c84-ca8d077741e7"
          },
          {
            "reference": "Practitioner/2e8384f9-8768-47e6-9a39-80cb4be72304"
          },
          {
            "reference": "PractitionerRole/a18d346c-e189-40fa-aba6-78336d59dc87"
          },
          {
            "reference": "Organization/0c74e540-5cf4-4c98-bbe6-90d2f33d22ca"
          }
        ],
        "activity": {
          "text": "Synthetic Example Data Generation"
        },
        "policy": [
          "https://synderai.net/synderai-synthetic-data-policy"
        ],
        "agent": [
          {
            "type": {
              "text": "author"
            },
            "who": {
              "reference": "Device/139f97d4-3d55-4403-8ee4-8c4f76ab0b63"
            }
          }
        ],
        "reason": [
          {
            "text": "Interoperability Testing and Training (non-clinical use)"
          }
        ],
        "text": {
          "status": "generated",
          "div": "<div xmlns=\"http://www.w3.org/1999/xhtml\">Provenance for SYNDERAI Synthetic Example Data Resource</div>"
        },
        "recorded": "2019-10-27T00:53:36Z"
      }
    },
    {
      "fullUrl": "urn:uuid:4cb5f99c-4757-4cec-8c84-ca8d077741e7",
      "resource": {
        "resourceType": "PractitionerRole",
        "id": "4cb5f99c-4757-4cec-8c84-ca8d077741e7",
        "meta": {
          "profile": [
            "http://hl7.eu/fhir/base/StructureDefinition/practitionerRole-eu"
          ]
        },
        "text": {
          "status": "generated",
          "div": "<div xmlns=\"http://www.w3.org/1999/xhtml\">Laboratory Role Id: 4cb5f99c-4757-4cec-8c84-ca8d077741e7</div>"
        },
        "practitioner": {
          "reference": "urn:uuid:2e8384f9-8768-47e6-9a39-80cb4be72304"
        }
      }
    },
    {
      "fullUrl": "urn:uuid:2e8384f9-8768-47e6-9a39-80cb4be72304",
      "resource": {
        "resourceType": "Practitioner",
        "id": "2e8384f9-8768-47e6-9a39-80cb4be72304",
        "meta": {
          "profile": [
            "http://hl7.eu/fhir/base/StructureDefinition/practitioner-eu"
          ]
        },
        "identifier": [
          {
            "assigner": {
              "display": "HL7 Europe"
            },
            "system": "urn:oid:2.16.840.1.113883.2.51.999",
            "value": "67547351-e352-4f71-be8a-5338112d5e07"
          }
        ],
        "name": [
          {
            "prefix": [
              "dr"
            ],
            "given": [
              "Ex"
            ],
            "family": "Ample"
          }
        ],
        "address": [
          {
            "line": [
              "Laboratoire Central Européenne",
              "Boulevard du Jardin Botanique 32"
            ],
            "postalCode": "1000",
            "city": "Brussels",
            "country": "Belgium"
          }
        ],
        "text": {
          "status": "generated",
          "div": "<div xmlns=\"http://www.w3.org/1999/xhtml\">Laboratory: Laboratoire Central Européenne, 1000 Brussels, Belgium</div>"
        }
      }
    }
  ],
  "type": "document",
  "timestamp": "2019-10-27T00:53:36Z"
}
