{
  "resourceType": "Bundle",
  "id": "b5bdc465-4185-4cb4-8f73-967b7bf312b2",
  "meta": {
    "profile": [
      "http://hl7.eu/fhir/laboratory/StructureDefinition/Bundle-eu-lab"
    ]
  },
  "identifier": {
    "assigner": {
      "display": "HL7 Europe"
    },
    "system": "urn:oid:2.16.840.1.113883.2.51.999",
    "value": "8b70f852-f2f4-4e3e-bc26-1ad20ecb1c2a"
  },
  "entry": [
    {
      "fullUrl": "urn:uuid:85eba3c0-a653-4d0f-944b-60c2d863846d",
      "resource": {
        "resourceType": "Composition",
        "id": "85eba3c0-a653-4d0f-944b-60c2d863846d",
        "meta": {
          "profile": [
            "http://hl7.eu/fhir/laboratory/StructureDefinition/Composition-eu-lab"
          ]
        },
        "identifier": {
          "assigner": {
            "display": "HL7 Europe"
          },
          "system": "urn:oid:2.16.840.1.113883.2.51.999",
          "value": "36d04985-3f53-4045-b077-1f63868a003f"
        },
        "author": [
          {
            "reference": "urn:uuid:24ad1bce-4ec1-426f-b9e4-a94e47305a35"
          }
        ],
        "category": [
          {
            "coding": [
              {
                "code": "26436-6",
                "system": "http://loinc.org",
                "display": "Laboratory studies (set)"
              }
            ]
          }
        ],
        "type": {
          "coding": [
            {
              "code": "11502-2",
              "system": "http://loinc.org",
              "display": "Laboratory report"
            }
          ],
          "text": "Laboratory Report"
        },
        "section": [
          {
            "code": {
              "coding": [
                {
                  "code": "26436-6",
                  "system": "http://loinc.org",
                  "display": "Laboratory studies (set)"
                }
              ],
              "text": "Laboratory studies"
            },
            "section": [
              {
                "code": {
                  "coding": [
                    {
                      "code": "$18723-7",
                      "system": "http://loinc.org",
                      "display": "Hematology studies (set)"
                    }
                  ],
                  "text": "Hematology"
                },
                "entry": [
                  {
                    "reference": "urn:uuid:32ec1a2c-8e07-4fea-9e0f-75ea3213c537"
                  },
                  {
                    "reference": "urn:uuid:6153459a-75e0-4dce-aa50-b37d6eed1ee3"
                  },
                  {
                    "reference": "urn:uuid:6e6152cc-c157-4f89-9c2c-b4e7ed8340bb"
                  },
                  {
                    "reference": "urn:uuid:2cd65014-10eb-4980-bceb-306d8e7e5a6d"
                  },
                  {
                    "reference": "urn:uuid:ed61c4dd-858c-4d58-acf4-010de14241db"
                  },
                  {
                    "reference": "urn:uuid:748e49c5-2166-4ee4-b645-95eb2e471297"
                  },
                  {
                    "reference": "urn:uuid:e614c0da-f588-428d-998a-7febd618ef63"
                  },
                  {
                    "reference": "urn:uuid:ebe237b5-5f14-4e37-80c7-139eafc31474"
                  },
                  {
                    "reference": "urn:uuid:a6d9a917-b177-4bf5-ad42-4896323285af"
                  }
                ],
                "text": {
                  "status": "generated",
                  "div": "<div xmlns=\"http://www.w3.org/1999/xhtml\"><h3>Hematology</h3><table class=\"hl7__eu__lab__report\"><thead><tr><th>Test</th><th>01-JUN-2017</th><th>Reference&#xA0;Range</th><th>Unit</th></tr></thead><tbody><tr><td>Leukocytes [#/volume] in Blood by Automated count</td><td>7.5</td><td>4 - 11</td><td>10*3/uL</td></tr><tr><td>Erythrocytes [#/volume] in Blood by Automated count</td><td>5.0</td><td>4.2 - 5.8</td><td>10*6/uL</td></tr><tr><td>Hemoglobin [Mass/volume] in Blood</td><td>15.0</td><td>12 - 16</td><td>g/dL</td></tr><tr><td>Hematocrit [Volume Fraction] of Blood by Automated count</td><td>45.9</td><td>36 - 48</td><td>%</td></tr><tr><td>MCV [Entitic volume] by Automated count</td><td>91.5</td><td>78 - 98</td><td>fL</td></tr><tr><td>MCH [Entitic mass] by Automated count</td><td>28.8</td><td>27 - 34.5</td><td>pg</td></tr><tr><td>MCHC [Mass/volume] by Automated count</td><td>35.4</td><td>31.5 - 35.5</td><td>g/dL</td></tr><tr><td>Erythrocyte distribution width [Ratio] by Automated count</td><td>12.6</td><td>11.5 - 16</td><td>%</td></tr><tr><td>Platelets [#/volume] in Blood by Automated count</td><td><strong>407.7 H</strong></td><td>150 - 350</td><td>10*3/uL</td></tr></tbody></table></div>"
                },
                "title": "Hematology"
              },
              {
                "code": {
                  "coding": [
                    {
                      "code": "$18719-5",
                      "system": "http://loinc.org",
                      "display": "Chemistry studies (set)"
                    }
                  ],
                  "text": "Chemistry"
                },
                "entry": [
                  {
                    "reference": "urn:uuid:c3fa2baa-9980-4e0e-b85a-7551b95e8df7"
                  },
                  {
                    "reference": "urn:uuid:b2b93ee6-d8d1-4e85-99c0-e1c8d053362c"
                  },
                  {
                    "reference": "urn:uuid:0214c0fa-02dd-409f-a4dd-e1c608c6de68"
                  },
                  {
                    "reference": "urn:uuid:c041e74a-3870-48e5-ab2b-eceb1ac9a40c"
                  },
                  {
                    "reference": "urn:uuid:c038df51-6c7f-4299-bed3-643754a7ee84"
                  },
                  {
                    "reference": "urn:uuid:950a4e70-b6df-4241-8ee2-c8b49b8fbc8e"
                  },
                  {
                    "reference": "urn:uuid:54e33307-e446-470c-94fa-27f40cd509b2"
                  },
                  {
                    "reference": "urn:uuid:a7e16a64-f735-4f4b-975e-e830b7c714b2"
                  },
                  {
                    "reference": "urn:uuid:584b0991-feb5-4650-8f4f-6cddd8200371"
                  },
                  {
                    "reference": "urn:uuid:f9af50fd-4393-4c78-ab52-dc4ed0a56649"
                  },
                  {
                    "reference": "urn:uuid:e7c59bdd-d7a9-4532-99d1-24c7a24fbe84"
                  },
                  {
                    "reference": "urn:uuid:288f18c7-fe08-4f93-9785-27c2b93b0c22"
                  },
                  {
                    "reference": "urn:uuid:1b7ab8f3-c8ad-46e2-9be2-47b3d9775d63"
                  },
                  {
                    "reference": "urn:uuid:1e859db9-fe48-4276-92e2-b70d8c088b3d"
                  },
                  {
                    "reference": "urn:uuid:593988ff-ad2d-471a-a721-d6bd68bdc31e"
                  },
                  {
                    "reference": "urn:uuid:456fc603-670a-4f3c-b94c-e9ba0b9fde78"
                  },
                  {
                    "reference": "urn:uuid:7d5d507d-aa18-427b-9ec1-5005ac711462"
                  },
                  {
                    "reference": "urn:uuid:62312f00-62e0-4ea4-905a-e1381cb2b157"
                  },
                  {
                    "reference": "urn:uuid:78c550ff-de07-4230-9458-30c676b0c871"
                  },
                  {
                    "reference": "urn:uuid:43807536-eef6-40ae-9056-c16acd64ff95"
                  },
                  {
                    "reference": "urn:uuid:a2f3710f-45ad-4f41-9f05-c91b6bf5cd23"
                  },
                  {
                    "reference": "urn:uuid:5dd581ae-1dbb-43b6-88e2-4902bd0b919e"
                  },
                  {
                    "reference": "urn:uuid:e70a4b2c-23e8-4682-90de-3de6f7ac1361"
                  },
                  {
                    "reference": "urn:uuid:66fdc10d-b748-4a56-a738-77b3e45fd731"
                  },
                  {
                    "reference": "urn:uuid:34b64594-abe5-474f-9b45-6d5ea1bc1f83"
                  },
                  {
                    "reference": "urn:uuid:3d1e286a-e845-4323-81cb-ea26b839f222"
                  },
                  {
                    "reference": "urn:uuid:2e5dcc50-12be-4eaf-a6ea-a92787f3fb82"
                  },
                  {
                    "reference": "urn:uuid:4fb96161-7001-4689-b222-02e4f1bc091d"
                  },
                  {
                    "reference": "urn:uuid:701c09f2-f881-443d-803c-3681d0f28232"
                  }
                ],
                "text": {
                  "status": "generated",
                  "div": "<div xmlns=\"http://www.w3.org/1999/xhtml\"><h3>Chemistry</h3><table class=\"hl7__eu__lab__report\"><thead><tr><th>Test</th><th>01-JUN-2017</th><th>Reference&#xA0;Range</th><th>Unit</th></tr></thead><tbody><tr><td>Glucose [Mass/volume] in Serum or Plasma</td><td>77.5</td><td>70 - 140</td><td>mg/dL</td></tr><tr><td>Urea nitrogen [Mass/volume] in Serum or Plasma</td><td>18.3</td><td>7 - 25</td><td>mg/dL</td></tr><tr><td>Creatinine [Mass/volume] in Serum or Plasma</td><td><strong>2.6 H</strong></td><td>0.6 - 1.1</td><td>mg/dL</td></tr><tr><td>Calcium [Mass/volume] in Serum or Plasma</td><td>9.7</td><td>8.5 - 10.4</td><td>mg/dL</td></tr><tr><td>Sodium [Moles/volume] in Serum or Plasma</td><td>138.8</td><td>135 - 145</td><td>mmol/L</td></tr><tr><td>Potassium [Moles/volume] in Serum or Plasma</td><td>4.8</td><td>3.5 - 5.3</td><td>mmol/L</td></tr><tr><td>Chloride [Moles/volume] in Serum or Plasma</td><td><strong>109.8 H</strong></td><td>98 - 108</td><td>mmol/L</td></tr><tr><td>Carbon dioxide, total [Moles/volume] in Serum or Plasma</td><td>22.6</td><td>22 - 29</td><td>mmol/L</td></tr><tr><td>Protein [Mass/volume] in Serum or Plasma</td><td>6.9</td><td>6 - 8.3</td><td>g/dL</td></tr><tr><td>Albumin [Mass/volume] in Serum or Plasma</td><td>4.6</td><td>3.5 - 5.5</td><td>g/dL</td></tr><tr><td>Bilirubin.total [Mass/volume] in Serum or Plasma</td><td><strong>12.9 H</strong></td><td>0.3 - 1.2</td><td>mg/dL</td></tr><tr><td>Alkaline phosphatase [Enzymatic activity/volume] in Serum or Plasma</td><td>64.1</td><td>35 - 270</td><td>U/L</td></tr><tr><td>Alanine aminotransferase [Enzymatic activity/volume] in Serum or Plasma</td><td>37.4</td><td>7 - 60</td><td>U/L</td></tr><tr><td>Aspartate aminotransferase [Enzymatic activity/volume] in Serum or Plasma</td><td>39.7</td><td>10 - 40</td><td>U/L</td></tr><tr><td>Magnesium [Mass/volume] in Serum or Plasma</td><td>1.8</td><td>1.6 - 2.3</td><td>mg/dL</td></tr><tr><td>Phosphate [Mass/volume] in Serum or Plasma</td><td>2.8</td><td>2.5 - 4.5</td><td>mg/dL</td></tr><tr><td>pH of Arterial blood</td><td><strong>7.1 L</strong></td><td>7.35 - 7.45</td><td>[pH]</td></tr><tr><td>Carbon dioxide [Partial pressure] in Arterial blood</td><td>42.1</td><td>38 - 48</td><td>mm[Hg]</td></tr><tr><td>Oxygen [Partial pressure] in Arterial blood</td><td>81.0</td><td>75 - 100</td><td>mm[Hg]</td></tr><tr><td>Bicarbonate [Moles/volume] in Arterial blood</td><td>24.4</td><td>22 - 31</td><td>mmol/L</td></tr><tr><td>Oxygen saturation in Arterial blood</td><td>98.0</td><td>95 - 100</td><td>%</td></tr><tr><td>Cholesterol [Mass/volume] in Serum or Plasma</td><td>179.2</td><td>125 - 200</td><td>mg/dL</td></tr><tr><td>Triglyceride [Mass/volume] in Serum or Plasma</td><td>104.9</td><td>0 - 150</td><td>mg/dL</td></tr><tr><td>Cholesterol in LDL [Mass/volume] in Serum or Plasma by Direct assay</td><td>113.2</td><td>0 - 130</td><td>mg/dL</td></tr><tr><td>Cholesterol in HDL [Mass/volume] in Serum or Plasma</td><td><strong>45.1 L</strong></td><td>50 - 100</td><td>mg/dL</td></tr><tr><td>Troponin I.cardiac [Mass/volume] in Serum or Plasma by High sensitivity method</td><td>0.0</td><td>0 - 19.9</td><td>pg/mL</td></tr><tr><td>Thyrotropin [Units/volume] in Serum or Plasma</td><td>3.2</td><td>0.5 - 4.2</td><td>m[IU]/L</td></tr><tr><td>Hemoglobin A1c/Hemoglobin.total in Blood</td><td>5.9</td><td>4.5 - 6.4</td><td>%</td></tr><tr><td>Ketones [Presence] in Urine by Test strip</td><td>1.0</td><td>0.5 - 4</td><td>{presence}</td></tr></tbody></table></div>"
                },
                "title": "Chemistry"
              },
              {
                "code": {
                  "coding": [
                    {
                      "code": "$18720-3",
                      "system": "http://loinc.org",
                      "display": "Coagulation studies (set)"
                    }
                  ],
                  "text": "Coagulation"
                },
                "entry": [
                  {
                    "reference": "urn:uuid:7a33010e-338c-49b1-93a6-e3a980f32d20"
                  },
                  {
                    "reference": "urn:uuid:89d1932b-2838-4a91-8d9b-eebe8b598abb"
                  },
                  {
                    "reference": "urn:uuid:372b6e67-2e1c-400a-a7b8-1d4783b9a0af"
                  }
                ],
                "text": {
                  "status": "generated",
                  "div": "<div xmlns=\"http://www.w3.org/1999/xhtml\"><h3>Coagulation</h3><table class=\"hl7__eu__lab__report\"><thead><tr><th>Test</th><th>01-JUN-2017</th><th>Reference&#xA0;Range</th><th>Unit</th></tr></thead><tbody><tr><td>Prothrombin time (PT)</td><td>11.0</td><td>11 - 15</td><td>s</td></tr><tr><td>INR in Platelet poor plasma by Coagulation assay</td><td>1.0</td><td>0.9 - 3</td><td>{INR}</td></tr><tr><td>aPTT in Blood by Coagulation assay</td><td>33.9</td><td>25 - 40</td><td>s</td></tr></tbody></table></div>"
                },
                "title": "Coagulation"
              },
              {
                "code": {
                  "coding": [
                    {
                      "code": "$18729-4",
                      "system": "http://loinc.org",
                      "display": "Urinalysis studies (set)"
                    }
                  ],
                  "text": "Urinalysis"
                },
                "entry": [
                  {
                    "reference": "urn:uuid:5531d77a-0cfc-4693-9983-cbbfd90ff54a"
                  },
                  {
                    "reference": "urn:uuid:d0ce6ee4-5609-49d4-b626-5f9325c0c2d6"
                  },
                  {
                    "reference": "urn:uuid:a6664cde-2f3e-472e-8159-1dee5feb6414"
                  },
                  {
                    "reference": "urn:uuid:ef7c408f-8ae1-4588-a2fe-e33dfb296bb4"
                  },
                  {
                    "reference": "urn:uuid:4bfbb0ad-62e2-45a5-85de-1c484a7cdce7"
                  },
                  {
                    "reference": "urn:uuid:47d77316-a673-43fa-86a7-9dd1be970af9"
                  },
                  {
                    "reference": "urn:uuid:dc508245-6fe9-42b2-8794-8db7843e567c"
                  },
                  {
                    "reference": "urn:uuid:e139aeca-5716-4cd6-ad3c-c5891707cff4"
                  }
                ],
                "text": {
                  "status": "generated",
                  "div": "<div xmlns=\"http://www.w3.org/1999/xhtml\"><h3>Urinalysis</h3><table class=\"hl7__eu__lab__report\"><thead><tr><th>Test</th><th>01-JUN-2017</th><th>Reference&#xA0;Range</th><th>Unit</th></tr></thead><tbody><tr><td>Glucose [Presence] in Urine by Test strip</td><td><strong>1.0 H</strong></td><td>0 - 0</td><td>{presence}</td></tr><tr><td>Bilirubin.total [Presence] in Urine by Test strip</td><td>1.0</td><td>0 - 1</td><td>{presence}</td></tr><tr><td>Specific gravity of Urine by Test strip</td><td><strong>1.0 L</strong></td><td>1.005 - 1.03</td><td>{SG}</td></tr><tr><td>pH of Urine by Test strip</td><td>5.7</td><td>4.5 - 7.5</td><td>[pH]</td></tr><tr><td>Protein [Presence] in Urine by Test strip</td><td><strong>1.0 H</strong></td><td>0 - 0</td><td>{presence}</td></tr><tr><td>Nitrite [Presence] in Urine by Test strip</td><td>1.0</td><td>0 - 1</td><td>{presence}</td></tr><tr><td>Hemoglobin [Presence] in Urine by Test strip</td><td>0.0</td><td>0 - 0</td><td>{presence}</td></tr><tr><td>Leukocyte esterase [Presence] in Urine by Test strip</td><td>0.0</td><td>0 - 0</td><td>{presence}</td></tr></tbody></table></div>"
                },
                "title": "Urinalysis"
              }
            ],
            "title": "Laboratory Report"
          },
          {
            "text": {
              "status": "generated",
              "div": "<div xmlns=\"http://www.w3.org/1999/xhtml\"><h3>Annotation</h3><table class=\"hl7__eu__lab__report\"><tr><th>Conclusion and Recommendations based on this report and previous findings known to us</th></tr><tr><td>The patient shows elevated creatinine, indicating impaired renal function, and markedly increased total bilirubin, suggesting possible liver dysfunction or hemolysis. There is metabolic acidosis (low arterial pH), mild hyperchloremia, and proteinuria with glucosuria, which may reflect renal tubular dysfunction or diabetes. Platelets are mildly elevated. HDL cholesterol is low, increasing cardiovascular risk. Other parameters are within normal limits. Clinical correlation and further evaluation of renal and hepatic status are recommended.</td></tr></table></div>"
            },
            "code": {
              "coding": [
                {
                  "system": "http://loinc.org",
                  "code": "48767-8",
                  "display": "Annotation comment"
                }
              ]
            },
            "title": "Annotation comment"
          }
        ],
        "status": "final",
        "subject": {
          "reference": "urn:uuid:36ad9e0c-15e7-4fc6-b11e-df2560297fae",
          "display": "Magdolna Balog"
        },
        "date": "2017-06-01T21:52:39Z",
        "title": "Laboratory Report",
        "confidentiality": "N"
      }
    },
    {
      "fullUrl": "urn:uuid:6197dd78-9774-4ff1-aa43-a724fce87d1d",
      "resource": {
        "resourceType": "DiagnosticReport",
        "id": "6197dd78-9774-4ff1-aa43-a724fce87d1d",
        "meta": {
          "profile": [
            "http://hl7.eu/fhir/laboratory/StructureDefinition/DiagnosticReport-eu-lab"
          ]
        },
        "identifier": [
          {
            "assigner": {
              "display": "HL7 Europe"
            },
            "system": "urn:oid:2.16.840.1.113883.2.51.999",
            "value": "8b09457c-8923-4e40-ae60-305cb86db41b"
          }
        ],
        "extension": [
          {
            "url": "http://hl7.org/fhir/5.0/StructureDefinition/extension-DiagnosticReport.composition",
            "valueReference": {
              "reference": "urn:uuid:36d04985-3f53-4045-b077-1f63868a003f"
            }
          }
        ],
        "category": [
          {
            "coding": [
              {
                "code": "26436-6",
                "system": "http://loinc.org",
                "display": "Laboratory studies (set)"
              }
            ]
          }
        ],
        "specimen": [
          {
            "reference": "urn:uuid:455a89e3-6372-417b-b16c-af9e1c33a43a"
          },
          {
            "reference": "urn:uuid:455a89e3-6372-417b-b16c-af9e1c33a43a"
          },
          {
            "reference": "urn:uuid:870baa14-ab1b-4142-930a-5fb27eceece5"
          },
          {
            "reference": "urn:uuid:65640dc1-51d9-45d7-92ed-1bd0c58e978b"
          },
          {
            "reference": "urn:uuid:14d5e03e-512f-4987-b44c-af3dd531dfde"
          },
          {
            "reference": "urn:uuid:5130593a-0631-4952-b8e4-e45cf0b364fb"
          }
        ],
        "result": [
          {
            "reference": "urn:uuid:32ec1a2c-8e07-4fea-9e0f-75ea3213c537"
          },
          {
            "reference": "urn:uuid:6153459a-75e0-4dce-aa50-b37d6eed1ee3"
          },
          {
            "reference": "urn:uuid:6e6152cc-c157-4f89-9c2c-b4e7ed8340bb"
          },
          {
            "reference": "urn:uuid:2cd65014-10eb-4980-bceb-306d8e7e5a6d"
          },
          {
            "reference": "urn:uuid:ed61c4dd-858c-4d58-acf4-010de14241db"
          },
          {
            "reference": "urn:uuid:748e49c5-2166-4ee4-b645-95eb2e471297"
          },
          {
            "reference": "urn:uuid:e614c0da-f588-428d-998a-7febd618ef63"
          },
          {
            "reference": "urn:uuid:ebe237b5-5f14-4e37-80c7-139eafc31474"
          },
          {
            "reference": "urn:uuid:a6d9a917-b177-4bf5-ad42-4896323285af"
          },
          {
            "reference": "urn:uuid:c3fa2baa-9980-4e0e-b85a-7551b95e8df7"
          },
          {
            "reference": "urn:uuid:b2b93ee6-d8d1-4e85-99c0-e1c8d053362c"
          },
          {
            "reference": "urn:uuid:0214c0fa-02dd-409f-a4dd-e1c608c6de68"
          },
          {
            "reference": "urn:uuid:c041e74a-3870-48e5-ab2b-eceb1ac9a40c"
          },
          {
            "reference": "urn:uuid:c038df51-6c7f-4299-bed3-643754a7ee84"
          },
          {
            "reference": "urn:uuid:950a4e70-b6df-4241-8ee2-c8b49b8fbc8e"
          },
          {
            "reference": "urn:uuid:54e33307-e446-470c-94fa-27f40cd509b2"
          },
          {
            "reference": "urn:uuid:a7e16a64-f735-4f4b-975e-e830b7c714b2"
          },
          {
            "reference": "urn:uuid:584b0991-feb5-4650-8f4f-6cddd8200371"
          },
          {
            "reference": "urn:uuid:f9af50fd-4393-4c78-ab52-dc4ed0a56649"
          },
          {
            "reference": "urn:uuid:e7c59bdd-d7a9-4532-99d1-24c7a24fbe84"
          },
          {
            "reference": "urn:uuid:288f18c7-fe08-4f93-9785-27c2b93b0c22"
          },
          {
            "reference": "urn:uuid:1b7ab8f3-c8ad-46e2-9be2-47b3d9775d63"
          },
          {
            "reference": "urn:uuid:1e859db9-fe48-4276-92e2-b70d8c088b3d"
          },
          {
            "reference": "urn:uuid:593988ff-ad2d-471a-a721-d6bd68bdc31e"
          },
          {
            "reference": "urn:uuid:456fc603-670a-4f3c-b94c-e9ba0b9fde78"
          },
          {
            "reference": "urn:uuid:7a33010e-338c-49b1-93a6-e3a980f32d20"
          },
          {
            "reference": "urn:uuid:89d1932b-2838-4a91-8d9b-eebe8b598abb"
          },
          {
            "reference": "urn:uuid:372b6e67-2e1c-400a-a7b8-1d4783b9a0af"
          },
          {
            "reference": "urn:uuid:7d5d507d-aa18-427b-9ec1-5005ac711462"
          },
          {
            "reference": "urn:uuid:62312f00-62e0-4ea4-905a-e1381cb2b157"
          },
          {
            "reference": "urn:uuid:78c550ff-de07-4230-9458-30c676b0c871"
          },
          {
            "reference": "urn:uuid:43807536-eef6-40ae-9056-c16acd64ff95"
          },
          {
            "reference": "urn:uuid:a2f3710f-45ad-4f41-9f05-c91b6bf5cd23"
          },
          {
            "reference": "urn:uuid:5dd581ae-1dbb-43b6-88e2-4902bd0b919e"
          },
          {
            "reference": "urn:uuid:e70a4b2c-23e8-4682-90de-3de6f7ac1361"
          },
          {
            "reference": "urn:uuid:66fdc10d-b748-4a56-a738-77b3e45fd731"
          },
          {
            "reference": "urn:uuid:34b64594-abe5-474f-9b45-6d5ea1bc1f83"
          },
          {
            "reference": "urn:uuid:3d1e286a-e845-4323-81cb-ea26b839f222"
          },
          {
            "reference": "urn:uuid:2e5dcc50-12be-4eaf-a6ea-a92787f3fb82"
          },
          {
            "reference": "urn:uuid:4fb96161-7001-4689-b222-02e4f1bc091d"
          },
          {
            "reference": "urn:uuid:5531d77a-0cfc-4693-9983-cbbfd90ff54a"
          },
          {
            "reference": "urn:uuid:d0ce6ee4-5609-49d4-b626-5f9325c0c2d6"
          },
          {
            "reference": "urn:uuid:701c09f2-f881-443d-803c-3681d0f28232"
          },
          {
            "reference": "urn:uuid:a6664cde-2f3e-472e-8159-1dee5feb6414"
          },
          {
            "reference": "urn:uuid:ef7c408f-8ae1-4588-a2fe-e33dfb296bb4"
          },
          {
            "reference": "urn:uuid:4bfbb0ad-62e2-45a5-85de-1c484a7cdce7"
          },
          {
            "reference": "urn:uuid:47d77316-a673-43fa-86a7-9dd1be970af9"
          },
          {
            "reference": "urn:uuid:dc508245-6fe9-42b2-8794-8db7843e567c"
          },
          {
            "reference": "urn:uuid:e139aeca-5716-4cd6-ad3c-c5891707cff4"
          }
        ],
        "status": "registered",
        "code": {
          "coding": [
            {
              "code": "11502-2",
              "system": "http://loinc.org",
              "display": "Laboratory report"
            }
          ]
        },
        "subject": {
          "reference": "urn:uuid:36ad9e0c-15e7-4fc6-b11e-df2560297fae",
          "display": "Magdolna Balog"
        }
      }
    },
    {
      "fullUrl": "urn:uuid:36ad9e0c-15e7-4fc6-b11e-df2560297fae",
      "resource": {
        "resourceType": "Patient",
        "id": "36ad9e0c-15e7-4fc6-b11e-df2560297fae",
        "meta": {
          "security": [
            {
              "system": "http://terminology.hl7.org/CodeSystem/v3-ActReason",
              "code": "HTEST"
            },
            {
              "system": "http://terminology.hl7.org/CodeSystem/v3-ActReason",
              "code": "TRAIN"
            }
          ],
          "tag": [
            {
              "system": "https://synderai.net/fhir/CodeSystem/tags",
              "code": "synthetic",
              "display": "SYNDERAI Synthetic data"
            }
          ],
          "profile": [
            "http://hl7.eu/fhir/base/StructureDefinition/patient-eu-core"
          ]
        },
        "identifier": [
          {
            "type": {
              "coding": [
                {
                  "code": "PT",
                  "system": "http://terminology.hl7.org/CodeSystem/v2-0203"
                }
              ]
            },
            "system": "http://ec.europa.eu/identifier/eci",
            "value": "2437-386280-4"
          },
          {
            "type": {
              "coding": [
                {
                  "code": "MR",
                  "system": "http://terminology.hl7.org/CodeSystem/v2-0203"
                }
              ]
            },
            "system": "http://local.setting.eu/identifier",
            "value": "1d8dc8c5-3a85-b1b5-4101-cca776d0be28"
          }
        ],
        "name": [
          {
            "family": "Balog"
          },
          {
            "given": [
              "Magdolna"
            ]
          },
          {
            "text": "Magdolna Balog"
          }
        ],
        "address": [
          {
            "line": [
              "Ady endre utca 160."
            ],
            "use": "home",
            "type": "physical",
            "postalCode": "3989",
            "city": "Némethídfa",
            "country": "Hungary"
          }
        ],
        "telecom": [
          {
            "system": "phone",
            "value": "+36 46 091-2914"
          }
        ],
        "extension": [
          {
            "url": "http://hl7.org/fhir/StructureDefinition/patient-nationality",
            "valueCodeableConcept": {
              "coding": [
                {
                  "code": "HU",
                  "system": "http://hl7.org/fhir/ValueSet/country"
                }
              ]
            }
          }
        ],
        "text": {
          "status": "generated",
          "div": "<div xmlns=\"http://www.w3.org/1999/xhtml\"><table class=\"hl7__ips\"><tr><td>Magdolna Balog</td><td>female</td><td>21-May-1946</td></tr></table></div>"
        },
        "gender": "female",
        "birthDate": "1946-05-21"
      }
    },
    {
      "fullUrl": "urn:uuid:7cd19487-fd95-4f08-83f0-d9905c7a52fe",
      "resource": {
        "resourceType": "ServiceRequest",
        "id": "7cd19487-fd95-4f08-83f0-d9905c7a52fe",
        "meta": {
          "profile": [
            "http://hl7.eu/fhir/laboratory/StructureDefinition/ServiceRequest-eu-lab"
          ]
        },
        "identifier": [
          {
            "system": "http://example.org",
            "value": "b6378d1a-8c50-453d-bce0-63105ce98828"
          }
        ],
        "specimen": [
          {
            "reference": "urn:uuid:455a89e3-6372-417b-b16c-af9e1c33a43a"
          },
          {
            "reference": "urn:uuid:870baa14-ab1b-4142-930a-5fb27eceece5"
          },
          {
            "reference": "urn:uuid:65640dc1-51d9-45d7-92ed-1bd0c58e978b"
          },
          {
            "reference": "urn:uuid:14d5e03e-512f-4987-b44c-af3dd531dfde"
          },
          {
            "reference": "urn:uuid:5130593a-0631-4952-b8e4-e45cf0b364fb"
          }
        ],
        "reasonCode": [
          {
            "coding": [
              {
                "code": "26929004",
                "system": "http://snomed.info/sct",
                "display": "Alzheimer&#039;s disease"
              }
            ]
          },
          {
            "coding": [
              {
                "code": "414545008",
                "system": "http://snomed.info/sct",
                "display": "Ischemic heart disease"
              }
            ]
          },
          {
            "coding": [
              {
                "code": "49436004",
                "system": "http://snomed.info/sct",
                "display": "Atrial fibrillation"
              }
            ]
          },
          {
            "coding": [
              {
                "code": "64859006",
                "system": "http://snomed.info/sct",
                "display": "Osteoporosis"
              }
            ]
          },
          {
            "coding": [
              {
                "code": "15777000",
                "system": "http://snomed.info/sct",
                "display": "Prediabetes"
              }
            ]
          },
          {
            "coding": [
              {
                "code": "271737000",
                "system": "http://snomed.info/sct",
                "display": "Anemia"
              }
            ]
          }
        ],
        "status": "active",
        "intent": "order",
        "code": {
          "coding": [
            {
              "code": "108252007",
              "system": "http://snomed.info/sct",
              "display": "Laboratory procedure"
            }
          ]
        },
        "subject": {
          "reference": "urn:uuid:36ad9e0c-15e7-4fc6-b11e-df2560297fae",
          "display": "Magdolna Balog"
        },
        "requester": {
          "reference": "urn:uuid:4a9d8d6f-f827-45cd-9874-e9981d904211"
        }
      }
    },
    {
      "fullUrl": "urn:uuid:4a9d8d6f-f827-45cd-9874-e9981d904211",
      "resource": {
        "resourceType": "PractitionerRole",
        "id": "4a9d8d6f-f827-45cd-9874-e9981d904211",
        "meta": {
          "profile": [
            "http://hl7.eu/fhir/base/StructureDefinition/practitionerRole-eu"
          ]
        },
        "text": {
          "status": "generated",
          "div": "<div xmlns=\"http://www.w3.org/1999/xhtml\">Provider Role Id: 4a9d8d6f-f827-45cd-9874-e9981d904211</div>"
        },
        "organization": {
          "reference": "urn:uuid:4c192426-79fb-4efb-a071-99aa61fada99"
        }
      }
    },
    {
      "fullUrl": "urn:uuid:4c192426-79fb-4efb-a071-99aa61fada99",
      "resource": {
        "resourceType": "Organization",
        "id": "4c192426-79fb-4efb-a071-99aa61fada99",
        "meta": {
          "profile": [
            "http://hl7.eu/fhir/base/StructureDefinition/organization-eu"
          ]
        },
        "identifier": [
          {
            "assigner": {
              "display": "HL7 Europe"
            },
            "system": "urn:oid:2.16.840.1.113883.2.51.999",
            "value": "6a942497-5a89-48de-93c1-fc6309987573"
          }
        ],
        "address": [
          {
            "line": [
              "Csabai kapu 9-11"
            ],
            "city": "Miskolc",
            "postalCode": "3529",
            "country": "Hungary"
          }
        ],
        "text": {
          "status": "generated",
          "div": "<div xmlns=\"http://www.w3.org/1999/xhtml\">Provider Organization: Semmelweis Ignác Egészségügyi Központ és Egyetemi Oktató Kórház</div>"
        },
        "name": "Semmelweis Ignác Egészségügyi Központ és Egyetemi Oktató Kórház"
      }
    },
    {
      "fullUrl": "urn:uuid:455a89e3-6372-417b-b16c-af9e1c33a43a",
      "resource": {
        "resourceType": "Specimen",
        "id": "455a89e3-6372-417b-b16c-af9e1c33a43a",
        "meta": {
          "profile": [
            "http://hl7.eu/fhir/laboratory/StructureDefinition/Specimen-eu-lab"
          ]
        },
        "collection": {
          "collectedDateTime": "2017-06-01"
        },
        "text": {
          "status": "generated",
          "div": "<div xmlns=\"http://www.w3.org/1999/xhtml\"><table class=\"hl7__eu__lab__report\"><tr><th>Specimen</th><th>Collection Date</th></tr><tr><td>Whole blood specimen (specimen)</td><td><span class=\"nb\">01-Jun-2017</span></td></tr></table></div>"
        },
        "type": {
          "coding": [
            {
              "code": "258580003",
              "system": "http://snomed.info/sct",
              "display": "Whole blood specimen (specimen)"
            }
          ]
        }
      }
    },
    {
      "fullUrl": "urn:uuid:455a89e3-6372-417b-b16c-af9e1c33a43a",
      "resource": {
        "resourceType": "Specimen",
        "id": "455a89e3-6372-417b-b16c-af9e1c33a43a",
        "meta": {
          "profile": [
            "http://hl7.eu/fhir/laboratory/StructureDefinition/Specimen-eu-lab"
          ]
        },
        "collection": {
          "collectedDateTime": "2017-06-01"
        },
        "text": {
          "status": "generated",
          "div": "<div xmlns=\"http://www.w3.org/1999/xhtml\"><table class=\"hl7__eu__lab__report\"><tr><th>Specimen</th><th>Collection Date</th></tr><tr><td>Whole blood specimen (specimen)</td><td><span class=\"nb\">01-Jun-2017</span></td></tr></table></div>"
        },
        "type": {
          "coding": [
            {
              "code": "258580003",
              "system": "http://snomed.info/sct",
              "display": "Whole blood specimen (specimen)"
            }
          ]
        }
      }
    },
    {
      "fullUrl": "urn:uuid:870baa14-ab1b-4142-930a-5fb27eceece5",
      "resource": {
        "resourceType": "Specimen",
        "id": "870baa14-ab1b-4142-930a-5fb27eceece5",
        "meta": {
          "profile": [
            "http://hl7.eu/fhir/laboratory/StructureDefinition/Specimen-eu-lab"
          ]
        },
        "collection": {
          "collectedDateTime": "2017-06-01"
        },
        "text": {
          "status": "generated",
          "div": "<div xmlns=\"http://www.w3.org/1999/xhtml\"><table class=\"hl7__eu__lab__report\"><tr><th>Specimen</th><th>Collection Date</th></tr><tr><td>Acellular blood (serum or plasma) specimen</td><td><span class=\"nb\">01-Jun-2017</span></td></tr></table></div>"
        },
        "type": {
          "coding": [
            {
              "code": "122592007",
              "system": "http://snomed.info/sct",
              "display": "Acellular blood (serum or plasma) specimen"
            }
          ]
        }
      }
    },
    {
      "fullUrl": "urn:uuid:65640dc1-51d9-45d7-92ed-1bd0c58e978b",
      "resource": {
        "resourceType": "Specimen",
        "id": "65640dc1-51d9-45d7-92ed-1bd0c58e978b",
        "meta": {
          "profile": [
            "http://hl7.eu/fhir/laboratory/StructureDefinition/Specimen-eu-lab"
          ]
        },
        "collection": {
          "collectedDateTime": "2017-06-01"
        },
        "text": {
          "status": "generated",
          "div": "<div xmlns=\"http://www.w3.org/1999/xhtml\"><table class=\"hl7__eu__lab__report\"><tr><th>Specimen</th><th>Collection Date</th></tr><tr><td>Platelet poor plasma specimen</td><td><span class=\"nb\">01-Jun-2017</span></td></tr></table></div>"
        },
        "type": {
          "coding": [
            {
              "code": "119362004",
              "system": "http://snomed.info/sct",
              "display": "Platelet poor plasma specimen"
            }
          ]
        }
      }
    },
    {
      "fullUrl": "urn:uuid:14d5e03e-512f-4987-b44c-af3dd531dfde",
      "resource": {
        "resourceType": "Specimen",
        "id": "14d5e03e-512f-4987-b44c-af3dd531dfde",
        "meta": {
          "profile": [
            "http://hl7.eu/fhir/laboratory/StructureDefinition/Specimen-eu-lab"
          ]
        },
        "collection": {
          "collectedDateTime": "2017-06-01"
        },
        "text": {
          "status": "generated",
          "div": "<div xmlns=\"http://www.w3.org/1999/xhtml\"><table class=\"hl7__eu__lab__report\"><tr><th>Specimen</th><th>Collection Date</th></tr><tr><td>Arterial blood specimen</td><td><span class=\"nb\">01-Jun-2017</span></td></tr></table></div>"
        },
        "type": {
          "coding": [
            {
              "code": "122552005",
              "system": "http://snomed.info/sct",
              "display": "Arterial blood specimen"
            }
          ]
        }
      }
    },
    {
      "fullUrl": "urn:uuid:5130593a-0631-4952-b8e4-e45cf0b364fb",
      "resource": {
        "resourceType": "Specimen",
        "id": "5130593a-0631-4952-b8e4-e45cf0b364fb",
        "meta": {
          "profile": [
            "http://hl7.eu/fhir/laboratory/StructureDefinition/Specimen-eu-lab"
          ]
        },
        "collection": {
          "collectedDateTime": "2017-06-01"
        },
        "text": {
          "status": "generated",
          "div": "<div xmlns=\"http://www.w3.org/1999/xhtml\"><table class=\"hl7__eu__lab__report\"><tr><th>Specimen</th><th>Collection Date</th></tr><tr><td>Urine specimen</td><td><span class=\"nb\">01-Jun-2017</span></td></tr></table></div>"
        },
        "type": {
          "coding": [
            {
              "code": "122575003",
              "system": "http://snomed.info/sct",
              "display": "Urine specimen"
            }
          ]
        }
      }
    },
    {
      "fullUrl": "urn:uuid:32ec1a2c-8e07-4fea-9e0f-75ea3213c537",
      "resource": {
        "resourceType": "Observation",
        "id": "32ec1a2c-8e07-4fea-9e0f-75ea3213c537",
        "meta": {
          "profile": [
            "http://hl7.eu/fhir/laboratory/StructureDefinition/Observation-resultslab-eu-lab"
          ]
        },
        "performer": [
          {
            "display": "The Central European Lab"
          }
        ],
        "category": [
          {
            "coding": [
              {
                "system": "http://terminology.hl7.org/CodeSystem/observation-category",
                "code": "laboratory"
              }
            ]
          }
        ],
        "code": {
          "coding": [
            {
              "code": "6690-2",
              "system": "http://loinc.org",
              "display": "Leukocytes [#/volume] in Blood by Automated count"
            }
          ],
          "text": "Leukocytes [#/volume] in Blood by Automated count"
        },
        "valueQuantity": {
          "system": "http://unitsofmeasure.org",
          "value": 7.5,
          "unit": "10*3/uL",
          "code": "10*3/uL"
        },
        "referenceRange": [
          {
            "low": {
              "value": 4,
              "code": "10*3/uL",
              "system": "http://unitsofmeasure.org"
            }
          },
          {
            "high": {
              "value": 11,
              "code": "10*3/uL",
              "system": "http://unitsofmeasure.org"
            }
          }
        ],
        "text": {
          "status": "generated",
          "div": "<div xmlns=\"http://www.w3.org/1999/xhtml\"><table class=\"hl7__eu__lab__report\"><tr><th>Test</th><th>01-Jun-2017</th><th>Reference&#xA0;Range</th><th>Unit</th></tr><tr><td>Leukocytes [#/volume] in Blood by Automated count</td><td>7.5</td><td>4 - 11</td><td></td><td>10*3/uL</td></tr></table></div>"
        },
        "status": "final",
        "subject": {
          "reference": "urn:uuid:36ad9e0c-15e7-4fc6-b11e-df2560297fae",
          "display": "Magdolna Balog"
        },
        "effectiveDateTime": "2017-06-01T19:52:39Z",
        "specimen": {
          "reference": "urn:uuid:455a89e3-6372-417b-b16c-af9e1c33a43a"
        }
      }
    },
    {
      "fullUrl": "urn:uuid:6153459a-75e0-4dce-aa50-b37d6eed1ee3",
      "resource": {
        "resourceType": "Observation",
        "id": "6153459a-75e0-4dce-aa50-b37d6eed1ee3",
        "meta": {
          "profile": [
            "http://hl7.eu/fhir/laboratory/StructureDefinition/Observation-resultslab-eu-lab"
          ]
        },
        "performer": [
          {
            "display": "The Central European Lab"
          }
        ],
        "category": [
          {
            "coding": [
              {
                "system": "http://terminology.hl7.org/CodeSystem/observation-category",
                "code": "laboratory"
              }
            ]
          }
        ],
        "code": {
          "coding": [
            {
              "code": "789-8",
              "system": "http://loinc.org",
              "display": "Erythrocytes [#/volume] in Blood by Automated count"
            }
          ],
          "text": "Erythrocytes [#/volume] in Blood by Automated count"
        },
        "valueQuantity": {
          "system": "http://unitsofmeasure.org",
          "value": 5,
          "unit": "10*6/uL",
          "code": "10*6/uL"
        },
        "referenceRange": [
          {
            "low": {
              "value": 4.2,
              "code": "10*6/uL",
              "system": "http://unitsofmeasure.org"
            }
          },
          {
            "high": {
              "value": 5.8,
              "code": "10*6/uL",
              "system": "http://unitsofmeasure.org"
            }
          }
        ],
        "text": {
          "status": "generated",
          "div": "<div xmlns=\"http://www.w3.org/1999/xhtml\"><table class=\"hl7__eu__lab__report\"><tr><th>Test</th><th>01-Jun-2017</th><th>Reference&#xA0;Range</th><th>Unit</th></tr><tr><td>Erythrocytes [#/volume] in Blood by Automated count</td><td>5.0</td><td>4.2 - 5.8</td><td></td><td>10*6/uL</td></tr></table></div>"
        },
        "status": "final",
        "subject": {
          "reference": "urn:uuid:36ad9e0c-15e7-4fc6-b11e-df2560297fae",
          "display": "Magdolna Balog"
        },
        "effectiveDateTime": "2017-06-01T19:52:39Z",
        "specimen": {
          "reference": "urn:uuid:455a89e3-6372-417b-b16c-af9e1c33a43a"
        }
      }
    },
    {
      "fullUrl": "urn:uuid:6e6152cc-c157-4f89-9c2c-b4e7ed8340bb",
      "resource": {
        "resourceType": "Observation",
        "id": "6e6152cc-c157-4f89-9c2c-b4e7ed8340bb",
        "meta": {
          "profile": [
            "http://hl7.eu/fhir/laboratory/StructureDefinition/Observation-resultslab-eu-lab"
          ]
        },
        "performer": [
          {
            "display": "The Central European Lab"
          }
        ],
        "category": [
          {
            "coding": [
              {
                "system": "http://terminology.hl7.org/CodeSystem/observation-category",
                "code": "laboratory"
              }
            ]
          }
        ],
        "code": {
          "coding": [
            {
              "code": "718-7",
              "system": "http://loinc.org",
              "display": "Hemoglobin [Mass/volume] in Blood"
            }
          ],
          "text": "Hemoglobin [Mass/volume] in Blood"
        },
        "valueQuantity": {
          "system": "http://unitsofmeasure.org",
          "value": 15,
          "unit": "g/dL",
          "code": "g/dL"
        },
        "referenceRange": [
          {
            "low": {
              "value": 12,
              "code": "g/dL",
              "system": "http://unitsofmeasure.org"
            }
          },
          {
            "high": {
              "value": 16,
              "code": "g/dL",
              "system": "http://unitsofmeasure.org"
            }
          }
        ],
        "text": {
          "status": "generated",
          "div": "<div xmlns=\"http://www.w3.org/1999/xhtml\"><table class=\"hl7__eu__lab__report\"><tr><th>Test</th><th>01-Jun-2017</th><th>Reference&#xA0;Range</th><th>Unit</th></tr><tr><td>Hemoglobin [Mass/volume] in Blood</td><td>15.0</td><td>12 - 16</td><td></td><td>g/dL</td></tr></table></div>"
        },
        "status": "final",
        "subject": {
          "reference": "urn:uuid:36ad9e0c-15e7-4fc6-b11e-df2560297fae",
          "display": "Magdolna Balog"
        },
        "effectiveDateTime": "2017-06-01T19:52:39Z",
        "specimen": {
          "reference": "urn:uuid:455a89e3-6372-417b-b16c-af9e1c33a43a"
        }
      }
    },
    {
      "fullUrl": "urn:uuid:2cd65014-10eb-4980-bceb-306d8e7e5a6d",
      "resource": {
        "resourceType": "Observation",
        "id": "2cd65014-10eb-4980-bceb-306d8e7e5a6d",
        "meta": {
          "profile": [
            "http://hl7.eu/fhir/laboratory/StructureDefinition/Observation-resultslab-eu-lab"
          ]
        },
        "performer": [
          {
            "display": "The Central European Lab"
          }
        ],
        "category": [
          {
            "coding": [
              {
                "system": "http://terminology.hl7.org/CodeSystem/observation-category",
                "code": "laboratory"
              }
            ]
          }
        ],
        "code": {
          "coding": [
            {
              "code": "4544-3",
              "system": "http://loinc.org",
              "display": "Hematocrit [Volume Fraction] of Blood by Automated count"
            }
          ],
          "text": "Hematocrit [Volume Fraction] of Blood by Automated count"
        },
        "valueQuantity": {
          "system": "http://unitsofmeasure.org",
          "value": 45.9,
          "unit": "%",
          "code": "%"
        },
        "referenceRange": [
          {
            "low": {
              "value": 36,
              "code": "%",
              "system": "http://unitsofmeasure.org"
            }
          },
          {
            "high": {
              "value": 48,
              "code": "%",
              "system": "http://unitsofmeasure.org"
            }
          }
        ],
        "text": {
          "status": "generated",
          "div": "<div xmlns=\"http://www.w3.org/1999/xhtml\"><table class=\"hl7__eu__lab__report\"><tr><th>Test</th><th>01-Jun-2017</th><th>Reference&#xA0;Range</th><th>Unit</th></tr><tr><td>Hematocrit [Volume Fraction] of Blood by Automated count</td><td>45.9</td><td>36 - 48</td><td></td><td>%</td></tr></table></div>"
        },
        "status": "final",
        "subject": {
          "reference": "urn:uuid:36ad9e0c-15e7-4fc6-b11e-df2560297fae",
          "display": "Magdolna Balog"
        },
        "effectiveDateTime": "2017-06-01T19:52:39Z",
        "specimen": {
          "reference": "urn:uuid:455a89e3-6372-417b-b16c-af9e1c33a43a"
        }
      }
    },
    {
      "fullUrl": "urn:uuid:ed61c4dd-858c-4d58-acf4-010de14241db",
      "resource": {
        "resourceType": "Observation",
        "id": "ed61c4dd-858c-4d58-acf4-010de14241db",
        "meta": {
          "profile": [
            "http://hl7.eu/fhir/laboratory/StructureDefinition/Observation-resultslab-eu-lab"
          ]
        },
        "performer": [
          {
            "display": "The Central European Lab"
          }
        ],
        "category": [
          {
            "coding": [
              {
                "system": "http://terminology.hl7.org/CodeSystem/observation-category",
                "code": "laboratory"
              }
            ]
          }
        ],
        "code": {
          "coding": [
            {
              "code": "787-2",
              "system": "http://loinc.org",
              "display": "MCV [Entitic volume] by Automated count"
            }
          ],
          "text": "MCV [Entitic volume] by Automated count"
        },
        "valueQuantity": {
          "system": "http://unitsofmeasure.org",
          "value": 91.5,
          "unit": "fL",
          "code": "fL"
        },
        "referenceRange": [
          {
            "low": {
              "value": 78,
              "code": "fL",
              "system": "http://unitsofmeasure.org"
            }
          },
          {
            "high": {
              "value": 98,
              "code": "fL",
              "system": "http://unitsofmeasure.org"
            }
          }
        ],
        "text": {
          "status": "generated",
          "div": "<div xmlns=\"http://www.w3.org/1999/xhtml\"><table class=\"hl7__eu__lab__report\"><tr><th>Test</th><th>01-Jun-2017</th><th>Reference&#xA0;Range</th><th>Unit</th></tr><tr><td>MCV [Entitic volume] by Automated count</td><td>91.5</td><td>78 - 98</td><td></td><td>fL</td></tr></table></div>"
        },
        "status": "final",
        "subject": {
          "reference": "urn:uuid:36ad9e0c-15e7-4fc6-b11e-df2560297fae",
          "display": "Magdolna Balog"
        },
        "effectiveDateTime": "2017-06-01T19:52:39Z",
        "specimen": {
          "reference": "urn:uuid:455a89e3-6372-417b-b16c-af9e1c33a43a"
        }
      }
    },
    {
      "fullUrl": "urn:uuid:748e49c5-2166-4ee4-b645-95eb2e471297",
      "resource": {
        "resourceType": "Observation",
        "id": "748e49c5-2166-4ee4-b645-95eb2e471297",
        "meta": {
          "profile": [
            "http://hl7.eu/fhir/laboratory/StructureDefinition/Observation-resultslab-eu-lab"
          ]
        },
        "performer": [
          {
            "display": "The Central European Lab"
          }
        ],
        "category": [
          {
            "coding": [
              {
                "system": "http://terminology.hl7.org/CodeSystem/observation-category",
                "code": "laboratory"
              }
            ]
          }
        ],
        "code": {
          "coding": [
            {
              "code": "785-6",
              "system": "http://loinc.org",
              "display": "MCH [Entitic mass] by Automated count"
            }
          ],
          "text": "MCH [Entitic mass] by Automated count"
        },
        "valueQuantity": {
          "system": "http://unitsofmeasure.org",
          "value": 28.8,
          "unit": "pg",
          "code": "pg"
        },
        "referenceRange": [
          {
            "low": {
              "value": 27,
              "code": "pg",
              "system": "http://unitsofmeasure.org"
            }
          },
          {
            "high": {
              "value": 34.5,
              "code": "pg",
              "system": "http://unitsofmeasure.org"
            }
          }
        ],
        "text": {
          "status": "generated",
          "div": "<div xmlns=\"http://www.w3.org/1999/xhtml\"><table class=\"hl7__eu__lab__report\"><tr><th>Test</th><th>01-Jun-2017</th><th>Reference&#xA0;Range</th><th>Unit</th></tr><tr><td>MCH [Entitic mass] by Automated count</td><td>28.8</td><td>27 - 34.5</td><td></td><td>pg</td></tr></table></div>"
        },
        "status": "final",
        "subject": {
          "reference": "urn:uuid:36ad9e0c-15e7-4fc6-b11e-df2560297fae",
          "display": "Magdolna Balog"
        },
        "effectiveDateTime": "2017-06-01T19:52:39Z",
        "specimen": {
          "reference": "urn:uuid:455a89e3-6372-417b-b16c-af9e1c33a43a"
        }
      }
    },
    {
      "fullUrl": "urn:uuid:e614c0da-f588-428d-998a-7febd618ef63",
      "resource": {
        "resourceType": "Observation",
        "id": "e614c0da-f588-428d-998a-7febd618ef63",
        "meta": {
          "profile": [
            "http://hl7.eu/fhir/laboratory/StructureDefinition/Observation-resultslab-eu-lab"
          ]
        },
        "performer": [
          {
            "display": "The Central European Lab"
          }
        ],
        "category": [
          {
            "coding": [
              {
                "system": "http://terminology.hl7.org/CodeSystem/observation-category",
                "code": "laboratory"
              }
            ]
          }
        ],
        "code": {
          "coding": [
            {
              "code": "786-4",
              "system": "http://loinc.org",
              "display": "MCHC [Mass/volume] by Automated count"
            }
          ],
          "text": "MCHC [Mass/volume] by Automated count"
        },
        "valueQuantity": {
          "system": "http://unitsofmeasure.org",
          "value": 35.4,
          "unit": "g/dL",
          "code": "g/dL"
        },
        "referenceRange": [
          {
            "low": {
              "value": 31.5,
              "code": "g/dL",
              "system": "http://unitsofmeasure.org"
            }
          },
          {
            "high": {
              "value": 35.5,
              "code": "g/dL",
              "system": "http://unitsofmeasure.org"
            }
          }
        ],
        "text": {
          "status": "generated",
          "div": "<div xmlns=\"http://www.w3.org/1999/xhtml\"><table class=\"hl7__eu__lab__report\"><tr><th>Test</th><th>01-Jun-2017</th><th>Reference&#xA0;Range</th><th>Unit</th></tr><tr><td>MCHC [Mass/volume] by Automated count</td><td>35.4</td><td>31.5 - 35.5</td><td></td><td>g/dL</td></tr></table></div>"
        },
        "status": "final",
        "subject": {
          "reference": "urn:uuid:36ad9e0c-15e7-4fc6-b11e-df2560297fae",
          "display": "Magdolna Balog"
        },
        "effectiveDateTime": "2017-06-01T19:52:39Z",
        "specimen": {
          "reference": "urn:uuid:455a89e3-6372-417b-b16c-af9e1c33a43a"
        }
      }
    },
    {
      "fullUrl": "urn:uuid:ebe237b5-5f14-4e37-80c7-139eafc31474",
      "resource": {
        "resourceType": "Observation",
        "id": "ebe237b5-5f14-4e37-80c7-139eafc31474",
        "meta": {
          "profile": [
            "http://hl7.eu/fhir/laboratory/StructureDefinition/Observation-resultslab-eu-lab"
          ]
        },
        "performer": [
          {
            "display": "The Central European Lab"
          }
        ],
        "category": [
          {
            "coding": [
              {
                "system": "http://terminology.hl7.org/CodeSystem/observation-category",
                "code": "laboratory"
              }
            ]
          }
        ],
        "code": {
          "coding": [
            {
              "code": "788-0",
              "system": "http://loinc.org",
              "display": "Erythrocyte distribution width [Ratio] by Automated count"
            }
          ],
          "text": "Erythrocyte distribution width [Ratio] by Automated count"
        },
        "valueQuantity": {
          "system": "http://unitsofmeasure.org",
          "value": 12.6,
          "unit": "%",
          "code": "%"
        },
        "referenceRange": [
          {
            "low": {
              "value": 11.5,
              "code": "%",
              "system": "http://unitsofmeasure.org"
            }
          },
          {
            "high": {
              "value": 16,
              "code": "%",
              "system": "http://unitsofmeasure.org"
            }
          }
        ],
        "text": {
          "status": "generated",
          "div": "<div xmlns=\"http://www.w3.org/1999/xhtml\"><table class=\"hl7__eu__lab__report\"><tr><th>Test</th><th>01-Jun-2017</th><th>Reference&#xA0;Range</th><th>Unit</th></tr><tr><td>Erythrocyte distribution width [Ratio] by Automated count</td><td>12.6</td><td>11.5 - 16</td><td></td><td>%</td></tr></table></div>"
        },
        "status": "final",
        "subject": {
          "reference": "urn:uuid:36ad9e0c-15e7-4fc6-b11e-df2560297fae",
          "display": "Magdolna Balog"
        },
        "effectiveDateTime": "2017-06-01T19:52:39Z",
        "specimen": {
          "reference": "urn:uuid:455a89e3-6372-417b-b16c-af9e1c33a43a"
        }
      }
    },
    {
      "fullUrl": "urn:uuid:a6d9a917-b177-4bf5-ad42-4896323285af",
      "resource": {
        "resourceType": "Observation",
        "id": "a6d9a917-b177-4bf5-ad42-4896323285af",
        "meta": {
          "profile": [
            "http://hl7.eu/fhir/laboratory/StructureDefinition/Observation-resultslab-eu-lab"
          ]
        },
        "performer": [
          {
            "display": "The Central European Lab"
          }
        ],
        "category": [
          {
            "coding": [
              {
                "system": "http://terminology.hl7.org/CodeSystem/observation-category",
                "code": "laboratory"
              }
            ]
          }
        ],
        "code": {
          "coding": [
            {
              "code": "777-3",
              "system": "http://loinc.org",
              "display": "Platelets [#/volume] in Blood by Automated count"
            }
          ],
          "text": "Platelets [#/volume] in Blood by Automated count"
        },
        "valueQuantity": {
          "system": "http://unitsofmeasure.org",
          "value": 407.7,
          "unit": "10*3/uL",
          "code": "10*3/uL"
        },
        "referenceRange": [
          {
            "low": {
              "value": 150,
              "code": "10*3/uL",
              "system": "http://unitsofmeasure.org"
            }
          },
          {
            "high": {
              "value": 350,
              "code": "10*3/uL",
              "system": "http://unitsofmeasure.org"
            }
          }
        ],
        "interpretation": [
          {
            "coding": [
              {
                "code": "H",
                "system": "http://terminology.hl7.org/CodeSystem/v3-ObservationInterpretation",
                "display": "High"
              }
            ]
          }
        ],
        "text": {
          "status": "generated",
          "div": "<div xmlns=\"http://www.w3.org/1999/xhtml\"><table class=\"hl7__eu__lab__report\"><tr><th>Test</th><th>01-Jun-2017</th><th>Reference&#xA0;Range</th><th>Unit</th></tr><tr><td>Platelets [#/volume] in Blood by Automated count</td><td>407.7</td><td>150 - 350</td><td>H</td><td>10*3/uL</td></tr></table></div>"
        },
        "status": "final",
        "subject": {
          "reference": "urn:uuid:36ad9e0c-15e7-4fc6-b11e-df2560297fae",
          "display": "Magdolna Balog"
        },
        "effectiveDateTime": "2017-06-01T19:52:39Z",
        "specimen": {
          "reference": "urn:uuid:455a89e3-6372-417b-b16c-af9e1c33a43a"
        }
      }
    },
    {
      "fullUrl": "urn:uuid:c3fa2baa-9980-4e0e-b85a-7551b95e8df7",
      "resource": {
        "resourceType": "Observation",
        "id": "c3fa2baa-9980-4e0e-b85a-7551b95e8df7",
        "meta": {
          "profile": [
            "http://hl7.eu/fhir/laboratory/StructureDefinition/Observation-resultslab-eu-lab"
          ]
        },
        "performer": [
          {
            "display": "The Central European Lab"
          }
        ],
        "category": [
          {
            "coding": [
              {
                "system": "http://terminology.hl7.org/CodeSystem/observation-category",
                "code": "laboratory"
              }
            ]
          }
        ],
        "code": {
          "coding": [
            {
              "code": "2345-7",
              "system": "http://loinc.org",
              "display": "Glucose [Mass/volume] in Serum or Plasma"
            }
          ],
          "text": "Glucose [Mass/volume] in Serum or Plasma"
        },
        "valueQuantity": {
          "system": "http://unitsofmeasure.org",
          "value": 77.5,
          "unit": "mg/dL",
          "code": "mg/dL"
        },
        "referenceRange": [
          {
            "low": {
              "value": 70,
              "code": "mg/dL",
              "system": "http://unitsofmeasure.org"
            }
          },
          {
            "high": {
              "value": 140,
              "code": "mg/dL",
              "system": "http://unitsofmeasure.org"
            }
          }
        ],
        "text": {
          "status": "generated",
          "div": "<div xmlns=\"http://www.w3.org/1999/xhtml\"><table class=\"hl7__eu__lab__report\"><tr><th>Test</th><th>01-Jun-2017</th><th>Reference&#xA0;Range</th><th>Unit</th></tr><tr><td>Glucose [Mass/volume] in Serum or Plasma</td><td>77.5</td><td>70 - 140</td><td></td><td>mg/dL</td></tr></table></div>"
        },
        "status": "final",
        "subject": {
          "reference": "urn:uuid:36ad9e0c-15e7-4fc6-b11e-df2560297fae",
          "display": "Magdolna Balog"
        },
        "effectiveDateTime": "2017-06-01T19:52:39Z",
        "specimen": {
          "reference": "urn:uuid:870baa14-ab1b-4142-930a-5fb27eceece5"
        }
      }
    },
    {
      "fullUrl": "urn:uuid:b2b93ee6-d8d1-4e85-99c0-e1c8d053362c",
      "resource": {
        "resourceType": "Observation",
        "id": "b2b93ee6-d8d1-4e85-99c0-e1c8d053362c",
        "meta": {
          "profile": [
            "http://hl7.eu/fhir/laboratory/StructureDefinition/Observation-resultslab-eu-lab"
          ]
        },
        "performer": [
          {
            "display": "The Central European Lab"
          }
        ],
        "category": [
          {
            "coding": [
              {
                "system": "http://terminology.hl7.org/CodeSystem/observation-category",
                "code": "laboratory"
              }
            ]
          }
        ],
        "code": {
          "coding": [
            {
              "code": "3094-0",
              "system": "http://loinc.org",
              "display": "Urea nitrogen [Mass/volume] in Serum or Plasma"
            }
          ],
          "text": "Urea nitrogen [Mass/volume] in Serum or Plasma"
        },
        "valueQuantity": {
          "system": "http://unitsofmeasure.org",
          "value": 18.3,
          "unit": "mg/dL",
          "code": "mg/dL"
        },
        "referenceRange": [
          {
            "low": {
              "value": 7,
              "code": "mg/dL",
              "system": "http://unitsofmeasure.org"
            }
          },
          {
            "high": {
              "value": 25,
              "code": "mg/dL",
              "system": "http://unitsofmeasure.org"
            }
          }
        ],
        "text": {
          "status": "generated",
          "div": "<div xmlns=\"http://www.w3.org/1999/xhtml\"><table class=\"hl7__eu__lab__report\"><tr><th>Test</th><th>01-Jun-2017</th><th>Reference&#xA0;Range</th><th>Unit</th></tr><tr><td>Urea nitrogen [Mass/volume] in Serum or Plasma</td><td>18.3</td><td>7 - 25</td><td></td><td>mg/dL</td></tr></table></div>"
        },
        "status": "final",
        "subject": {
          "reference": "urn:uuid:36ad9e0c-15e7-4fc6-b11e-df2560297fae",
          "display": "Magdolna Balog"
        },
        "effectiveDateTime": "2017-06-01T19:52:39Z",
        "specimen": {
          "reference": "urn:uuid:870baa14-ab1b-4142-930a-5fb27eceece5"
        }
      }
    },
    {
      "fullUrl": "urn:uuid:0214c0fa-02dd-409f-a4dd-e1c608c6de68",
      "resource": {
        "resourceType": "Observation",
        "id": "0214c0fa-02dd-409f-a4dd-e1c608c6de68",
        "meta": {
          "profile": [
            "http://hl7.eu/fhir/laboratory/StructureDefinition/Observation-resultslab-eu-lab"
          ]
        },
        "performer": [
          {
            "display": "The Central European Lab"
          }
        ],
        "category": [
          {
            "coding": [
              {
                "system": "http://terminology.hl7.org/CodeSystem/observation-category",
                "code": "laboratory"
              }
            ]
          }
        ],
        "code": {
          "coding": [
            {
              "code": "2160-0",
              "system": "http://loinc.org",
              "display": "Creatinine [Mass/volume] in Serum or Plasma"
            }
          ],
          "text": "Creatinine [Mass/volume] in Serum or Plasma"
        },
        "valueQuantity": {
          "system": "http://unitsofmeasure.org",
          "value": 2.6,
          "unit": "mg/dL",
          "code": "mg/dL"
        },
        "referenceRange": [
          {
            "low": {
              "value": 0.6,
              "code": "mg/dL",
              "system": "http://unitsofmeasure.org"
            }
          },
          {
            "high": {
              "value": 1.1,
              "code": "mg/dL",
              "system": "http://unitsofmeasure.org"
            }
          }
        ],
        "interpretation": [
          {
            "coding": [
              {
                "code": "H",
                "system": "http://terminology.hl7.org/CodeSystem/v3-ObservationInterpretation",
                "display": "High"
              }
            ]
          }
        ],
        "text": {
          "status": "generated",
          "div": "<div xmlns=\"http://www.w3.org/1999/xhtml\"><table class=\"hl7__eu__lab__report\"><tr><th>Test</th><th>01-Jun-2017</th><th>Reference&#xA0;Range</th><th>Unit</th></tr><tr><td>Creatinine [Mass/volume] in Serum or Plasma</td><td>2.6</td><td>0.6 - 1.1</td><td>H</td><td>mg/dL</td></tr></table></div>"
        },
        "status": "final",
        "subject": {
          "reference": "urn:uuid:36ad9e0c-15e7-4fc6-b11e-df2560297fae",
          "display": "Magdolna Balog"
        },
        "effectiveDateTime": "2017-06-01T19:52:39Z",
        "specimen": {
          "reference": "urn:uuid:870baa14-ab1b-4142-930a-5fb27eceece5"
        }
      }
    },
    {
      "fullUrl": "urn:uuid:c041e74a-3870-48e5-ab2b-eceb1ac9a40c",
      "resource": {
        "resourceType": "Observation",
        "id": "c041e74a-3870-48e5-ab2b-eceb1ac9a40c",
        "meta": {
          "profile": [
            "http://hl7.eu/fhir/laboratory/StructureDefinition/Observation-resultslab-eu-lab"
          ]
        },
        "performer": [
          {
            "display": "The Central European Lab"
          }
        ],
        "category": [
          {
            "coding": [
              {
                "system": "http://terminology.hl7.org/CodeSystem/observation-category",
                "code": "laboratory"
              }
            ]
          }
        ],
        "code": {
          "coding": [
            {
              "code": "17861-6",
              "system": "http://loinc.org",
              "display": "Calcium [Mass/volume] in Serum or Plasma"
            }
          ],
          "text": "Calcium [Mass/volume] in Serum or Plasma"
        },
        "valueQuantity": {
          "system": "http://unitsofmeasure.org",
          "value": 9.7,
          "unit": "mg/dL",
          "code": "mg/dL"
        },
        "referenceRange": [
          {
            "low": {
              "value": 8.5,
              "code": "mg/dL",
              "system": "http://unitsofmeasure.org"
            }
          },
          {
            "high": {
              "value": 10.4,
              "code": "mg/dL",
              "system": "http://unitsofmeasure.org"
            }
          }
        ],
        "text": {
          "status": "generated",
          "div": "<div xmlns=\"http://www.w3.org/1999/xhtml\"><table class=\"hl7__eu__lab__report\"><tr><th>Test</th><th>01-Jun-2017</th><th>Reference&#xA0;Range</th><th>Unit</th></tr><tr><td>Calcium [Mass/volume] in Serum or Plasma</td><td>9.7</td><td>8.5 - 10.4</td><td></td><td>mg/dL</td></tr></table></div>"
        },
        "status": "final",
        "subject": {
          "reference": "urn:uuid:36ad9e0c-15e7-4fc6-b11e-df2560297fae",
          "display": "Magdolna Balog"
        },
        "effectiveDateTime": "2017-06-01T19:52:39Z",
        "specimen": {
          "reference": "urn:uuid:870baa14-ab1b-4142-930a-5fb27eceece5"
        }
      }
    },
    {
      "fullUrl": "urn:uuid:c038df51-6c7f-4299-bed3-643754a7ee84",
      "resource": {
        "resourceType": "Observation",
        "id": "c038df51-6c7f-4299-bed3-643754a7ee84",
        "meta": {
          "profile": [
            "http://hl7.eu/fhir/laboratory/StructureDefinition/Observation-resultslab-eu-lab"
          ]
        },
        "performer": [
          {
            "display": "The Central European Lab"
          }
        ],
        "category": [
          {
            "coding": [
              {
                "system": "http://terminology.hl7.org/CodeSystem/observation-category",
                "code": "laboratory"
              }
            ]
          }
        ],
        "code": {
          "coding": [
            {
              "code": "2951-2",
              "system": "http://loinc.org",
              "display": "Sodium [Moles/volume] in Serum or Plasma"
            }
          ],
          "text": "Sodium [Moles/volume] in Serum or Plasma"
        },
        "valueQuantity": {
          "system": "http://unitsofmeasure.org",
          "value": 138.8,
          "unit": "mmol/L",
          "code": "mmol/L"
        },
        "referenceRange": [
          {
            "low": {
              "value": 135,
              "code": "mmol/L",
              "system": "http://unitsofmeasure.org"
            }
          },
          {
            "high": {
              "value": 145,
              "code": "mmol/L",
              "system": "http://unitsofmeasure.org"
            }
          }
        ],
        "text": {
          "status": "generated",
          "div": "<div xmlns=\"http://www.w3.org/1999/xhtml\"><table class=\"hl7__eu__lab__report\"><tr><th>Test</th><th>01-Jun-2017</th><th>Reference&#xA0;Range</th><th>Unit</th></tr><tr><td>Sodium [Moles/volume] in Serum or Plasma</td><td>138.8</td><td>135 - 145</td><td></td><td>mmol/L</td></tr></table></div>"
        },
        "status": "final",
        "subject": {
          "reference": "urn:uuid:36ad9e0c-15e7-4fc6-b11e-df2560297fae",
          "display": "Magdolna Balog"
        },
        "effectiveDateTime": "2017-06-01T19:52:39Z",
        "specimen": {
          "reference": "urn:uuid:870baa14-ab1b-4142-930a-5fb27eceece5"
        }
      }
    },
    {
      "fullUrl": "urn:uuid:950a4e70-b6df-4241-8ee2-c8b49b8fbc8e",
      "resource": {
        "resourceType": "Observation",
        "id": "950a4e70-b6df-4241-8ee2-c8b49b8fbc8e",
        "meta": {
          "profile": [
            "http://hl7.eu/fhir/laboratory/StructureDefinition/Observation-resultslab-eu-lab"
          ]
        },
        "performer": [
          {
            "display": "The Central European Lab"
          }
        ],
        "category": [
          {
            "coding": [
              {
                "system": "http://terminology.hl7.org/CodeSystem/observation-category",
                "code": "laboratory"
              }
            ]
          }
        ],
        "code": {
          "coding": [
            {
              "code": "2823-3",
              "system": "http://loinc.org",
              "display": "Potassium [Moles/volume] in Serum or Plasma"
            }
          ],
          "text": "Potassium [Moles/volume] in Serum or Plasma"
        },
        "valueQuantity": {
          "system": "http://unitsofmeasure.org",
          "value": 4.8,
          "unit": "mmol/L",
          "code": "mmol/L"
        },
        "referenceRange": [
          {
            "low": {
              "value": 3.5,
              "code": "mmol/L",
              "system": "http://unitsofmeasure.org"
            }
          },
          {
            "high": {
              "value": 5.3,
              "code": "mmol/L",
              "system": "http://unitsofmeasure.org"
            }
          }
        ],
        "text": {
          "status": "generated",
          "div": "<div xmlns=\"http://www.w3.org/1999/xhtml\"><table class=\"hl7__eu__lab__report\"><tr><th>Test</th><th>01-Jun-2017</th><th>Reference&#xA0;Range</th><th>Unit</th></tr><tr><td>Potassium [Moles/volume] in Serum or Plasma</td><td>4.8</td><td>3.5 - 5.3</td><td></td><td>mmol/L</td></tr></table></div>"
        },
        "status": "final",
        "subject": {
          "reference": "urn:uuid:36ad9e0c-15e7-4fc6-b11e-df2560297fae",
          "display": "Magdolna Balog"
        },
        "effectiveDateTime": "2017-06-01T19:52:39Z",
        "specimen": {
          "reference": "urn:uuid:870baa14-ab1b-4142-930a-5fb27eceece5"
        }
      }
    },
    {
      "fullUrl": "urn:uuid:54e33307-e446-470c-94fa-27f40cd509b2",
      "resource": {
        "resourceType": "Observation",
        "id": "54e33307-e446-470c-94fa-27f40cd509b2",
        "meta": {
          "profile": [
            "http://hl7.eu/fhir/laboratory/StructureDefinition/Observation-resultslab-eu-lab"
          ]
        },
        "performer": [
          {
            "display": "The Central European Lab"
          }
        ],
        "category": [
          {
            "coding": [
              {
                "system": "http://terminology.hl7.org/CodeSystem/observation-category",
                "code": "laboratory"
              }
            ]
          }
        ],
        "code": {
          "coding": [
            {
              "code": "2075-0",
              "system": "http://loinc.org",
              "display": "Chloride [Moles/volume] in Serum or Plasma"
            }
          ],
          "text": "Chloride [Moles/volume] in Serum or Plasma"
        },
        "valueQuantity": {
          "system": "http://unitsofmeasure.org",
          "value": 109.8,
          "unit": "mmol/L",
          "code": "mmol/L"
        },
        "referenceRange": [
          {
            "low": {
              "value": 98,
              "code": "mmol/L",
              "system": "http://unitsofmeasure.org"
            }
          },
          {
            "high": {
              "value": 108,
              "code": "mmol/L",
              "system": "http://unitsofmeasure.org"
            }
          }
        ],
        "interpretation": [
          {
            "coding": [
              {
                "code": "H",
                "system": "http://terminology.hl7.org/CodeSystem/v3-ObservationInterpretation",
                "display": "High"
              }
            ]
          }
        ],
        "text": {
          "status": "generated",
          "div": "<div xmlns=\"http://www.w3.org/1999/xhtml\"><table class=\"hl7__eu__lab__report\"><tr><th>Test</th><th>01-Jun-2017</th><th>Reference&#xA0;Range</th><th>Unit</th></tr><tr><td>Chloride [Moles/volume] in Serum or Plasma</td><td>109.8</td><td>98 - 108</td><td>H</td><td>mmol/L</td></tr></table></div>"
        },
        "status": "final",
        "subject": {
          "reference": "urn:uuid:36ad9e0c-15e7-4fc6-b11e-df2560297fae",
          "display": "Magdolna Balog"
        },
        "effectiveDateTime": "2017-06-01T19:52:39Z",
        "specimen": {
          "reference": "urn:uuid:870baa14-ab1b-4142-930a-5fb27eceece5"
        }
      }
    },
    {
      "fullUrl": "urn:uuid:a7e16a64-f735-4f4b-975e-e830b7c714b2",
      "resource": {
        "resourceType": "Observation",
        "id": "a7e16a64-f735-4f4b-975e-e830b7c714b2",
        "meta": {
          "profile": [
            "http://hl7.eu/fhir/laboratory/StructureDefinition/Observation-resultslab-eu-lab"
          ]
        },
        "performer": [
          {
            "display": "The Central European Lab"
          }
        ],
        "category": [
          {
            "coding": [
              {
                "system": "http://terminology.hl7.org/CodeSystem/observation-category",
                "code": "laboratory"
              }
            ]
          }
        ],
        "code": {
          "coding": [
            {
              "code": "2028-9",
              "system": "http://loinc.org",
              "display": "Carbon dioxide, total [Moles/volume] in Serum or Plasma"
            }
          ],
          "text": "Carbon dioxide, total [Moles/volume] in Serum or Plasma"
        },
        "valueQuantity": {
          "system": "http://unitsofmeasure.org",
          "value": 22.6,
          "unit": "mmol/L",
          "code": "mmol/L"
        },
        "referenceRange": [
          {
            "low": {
              "value": 22,
              "code": "mmol/L",
              "system": "http://unitsofmeasure.org"
            }
          },
          {
            "high": {
              "value": 29,
              "code": "mmol/L",
              "system": "http://unitsofmeasure.org"
            }
          }
        ],
        "text": {
          "status": "generated",
          "div": "<div xmlns=\"http://www.w3.org/1999/xhtml\"><table class=\"hl7__eu__lab__report\"><tr><th>Test</th><th>01-Jun-2017</th><th>Reference&#xA0;Range</th><th>Unit</th></tr><tr><td>Carbon dioxide, total [Moles/volume] in Serum or Plasma</td><td>22.6</td><td>22 - 29</td><td></td><td>mmol/L</td></tr></table></div>"
        },
        "status": "final",
        "subject": {
          "reference": "urn:uuid:36ad9e0c-15e7-4fc6-b11e-df2560297fae",
          "display": "Magdolna Balog"
        },
        "effectiveDateTime": "2017-06-01T19:52:39Z",
        "specimen": {
          "reference": "urn:uuid:870baa14-ab1b-4142-930a-5fb27eceece5"
        }
      }
    },
    {
      "fullUrl": "urn:uuid:584b0991-feb5-4650-8f4f-6cddd8200371",
      "resource": {
        "resourceType": "Observation",
        "id": "584b0991-feb5-4650-8f4f-6cddd8200371",
        "meta": {
          "profile": [
            "http://hl7.eu/fhir/laboratory/StructureDefinition/Observation-resultslab-eu-lab"
          ]
        },
        "performer": [
          {
            "display": "The Central European Lab"
          }
        ],
        "category": [
          {
            "coding": [
              {
                "system": "http://terminology.hl7.org/CodeSystem/observation-category",
                "code": "laboratory"
              }
            ]
          }
        ],
        "code": {
          "coding": [
            {
              "code": "2885-2",
              "system": "http://loinc.org",
              "display": "Protein [Mass/volume] in Serum or Plasma"
            }
          ],
          "text": "Protein [Mass/volume] in Serum or Plasma"
        },
        "valueQuantity": {
          "system": "http://unitsofmeasure.org",
          "value": 6.9,
          "unit": "g/dL",
          "code": "g/dL"
        },
        "referenceRange": [
          {
            "low": {
              "value": 6,
              "code": "g/dL",
              "system": "http://unitsofmeasure.org"
            }
          },
          {
            "high": {
              "value": 8.3,
              "code": "g/dL",
              "system": "http://unitsofmeasure.org"
            }
          }
        ],
        "text": {
          "status": "generated",
          "div": "<div xmlns=\"http://www.w3.org/1999/xhtml\"><table class=\"hl7__eu__lab__report\"><tr><th>Test</th><th>01-Jun-2017</th><th>Reference&#xA0;Range</th><th>Unit</th></tr><tr><td>Protein [Mass/volume] in Serum or Plasma</td><td>6.9</td><td>6 - 8.3</td><td></td><td>g/dL</td></tr></table></div>"
        },
        "status": "final",
        "subject": {
          "reference": "urn:uuid:36ad9e0c-15e7-4fc6-b11e-df2560297fae",
          "display": "Magdolna Balog"
        },
        "effectiveDateTime": "2017-06-01T19:52:39Z",
        "specimen": {
          "reference": "urn:uuid:870baa14-ab1b-4142-930a-5fb27eceece5"
        }
      }
    },
    {
      "fullUrl": "urn:uuid:f9af50fd-4393-4c78-ab52-dc4ed0a56649",
      "resource": {
        "resourceType": "Observation",
        "id": "f9af50fd-4393-4c78-ab52-dc4ed0a56649",
        "meta": {
          "profile": [
            "http://hl7.eu/fhir/laboratory/StructureDefinition/Observation-resultslab-eu-lab"
          ]
        },
        "performer": [
          {
            "display": "The Central European Lab"
          }
        ],
        "category": [
          {
            "coding": [
              {
                "system": "http://terminology.hl7.org/CodeSystem/observation-category",
                "code": "laboratory"
              }
            ]
          }
        ],
        "code": {
          "coding": [
            {
              "code": "1751-7",
              "system": "http://loinc.org",
              "display": "Albumin [Mass/volume] in Serum or Plasma"
            }
          ],
          "text": "Albumin [Mass/volume] in Serum or Plasma"
        },
        "valueQuantity": {
          "system": "http://unitsofmeasure.org",
          "value": 4.6,
          "unit": "g/dL",
          "code": "g/dL"
        },
        "referenceRange": [
          {
            "low": {
              "value": 3.5,
              "code": "g/dL",
              "system": "http://unitsofmeasure.org"
            }
          },
          {
            "high": {
              "value": 5.5,
              "code": "g/dL",
              "system": "http://unitsofmeasure.org"
            }
          }
        ],
        "text": {
          "status": "generated",
          "div": "<div xmlns=\"http://www.w3.org/1999/xhtml\"><table class=\"hl7__eu__lab__report\"><tr><th>Test</th><th>01-Jun-2017</th><th>Reference&#xA0;Range</th><th>Unit</th></tr><tr><td>Albumin [Mass/volume] in Serum or Plasma</td><td>4.6</td><td>3.5 - 5.5</td><td></td><td>g/dL</td></tr></table></div>"
        },
        "status": "final",
        "subject": {
          "reference": "urn:uuid:36ad9e0c-15e7-4fc6-b11e-df2560297fae",
          "display": "Magdolna Balog"
        },
        "effectiveDateTime": "2017-06-01T19:52:39Z",
        "specimen": {
          "reference": "urn:uuid:870baa14-ab1b-4142-930a-5fb27eceece5"
        }
      }
    },
    {
      "fullUrl": "urn:uuid:e7c59bdd-d7a9-4532-99d1-24c7a24fbe84",
      "resource": {
        "resourceType": "Observation",
        "id": "e7c59bdd-d7a9-4532-99d1-24c7a24fbe84",
        "meta": {
          "profile": [
            "http://hl7.eu/fhir/laboratory/StructureDefinition/Observation-resultslab-eu-lab"
          ]
        },
        "performer": [
          {
            "display": "The Central European Lab"
          }
        ],
        "category": [
          {
            "coding": [
              {
                "system": "http://terminology.hl7.org/CodeSystem/observation-category",
                "code": "laboratory"
              }
            ]
          }
        ],
        "code": {
          "coding": [
            {
              "code": "1975-2",
              "system": "http://loinc.org",
              "display": "Bilirubin.total [Mass/volume] in Serum or Plasma"
            }
          ],
          "text": "Bilirubin.total [Mass/volume] in Serum or Plasma"
        },
        "valueQuantity": {
          "system": "http://unitsofmeasure.org",
          "value": 12.9,
          "unit": "mg/dL",
          "code": "mg/dL"
        },
        "referenceRange": [
          {
            "low": {
              "value": 0.3,
              "code": "mg/dL",
              "system": "http://unitsofmeasure.org"
            }
          },
          {
            "high": {
              "value": 1.2,
              "code": "mg/dL",
              "system": "http://unitsofmeasure.org"
            }
          }
        ],
        "interpretation": [
          {
            "coding": [
              {
                "code": "H",
                "system": "http://terminology.hl7.org/CodeSystem/v3-ObservationInterpretation",
                "display": "High"
              }
            ]
          }
        ],
        "text": {
          "status": "generated",
          "div": "<div xmlns=\"http://www.w3.org/1999/xhtml\"><table class=\"hl7__eu__lab__report\"><tr><th>Test</th><th>01-Jun-2017</th><th>Reference&#xA0;Range</th><th>Unit</th></tr><tr><td>Bilirubin.total [Mass/volume] in Serum or Plasma</td><td>12.9</td><td>0.3 - 1.2</td><td>H</td><td>mg/dL</td></tr></table></div>"
        },
        "status": "final",
        "subject": {
          "reference": "urn:uuid:36ad9e0c-15e7-4fc6-b11e-df2560297fae",
          "display": "Magdolna Balog"
        },
        "effectiveDateTime": "2017-06-01T19:52:39Z",
        "specimen": {
          "reference": "urn:uuid:870baa14-ab1b-4142-930a-5fb27eceece5"
        }
      }
    },
    {
      "fullUrl": "urn:uuid:288f18c7-fe08-4f93-9785-27c2b93b0c22",
      "resource": {
        "resourceType": "Observation",
        "id": "288f18c7-fe08-4f93-9785-27c2b93b0c22",
        "meta": {
          "profile": [
            "http://hl7.eu/fhir/laboratory/StructureDefinition/Observation-resultslab-eu-lab"
          ]
        },
        "performer": [
          {
            "display": "The Central European Lab"
          }
        ],
        "category": [
          {
            "coding": [
              {
                "system": "http://terminology.hl7.org/CodeSystem/observation-category",
                "code": "laboratory"
              }
            ]
          }
        ],
        "code": {
          "coding": [
            {
              "code": "6768-6",
              "system": "http://loinc.org",
              "display": "Alkaline phosphatase [Enzymatic activity/volume] in Serum or Plasma"
            }
          ],
          "text": "Alkaline phosphatase [Enzymatic activity/volume] in Serum or Plasma"
        },
        "valueQuantity": {
          "system": "http://unitsofmeasure.org",
          "value": 64.1,
          "unit": "U/L",
          "code": "U/L"
        },
        "referenceRange": [
          {
            "low": {
              "value": 35,
              "code": "U/L",
              "system": "http://unitsofmeasure.org"
            }
          },
          {
            "high": {
              "value": 270,
              "code": "U/L",
              "system": "http://unitsofmeasure.org"
            }
          }
        ],
        "text": {
          "status": "generated",
          "div": "<div xmlns=\"http://www.w3.org/1999/xhtml\"><table class=\"hl7__eu__lab__report\"><tr><th>Test</th><th>01-Jun-2017</th><th>Reference&#xA0;Range</th><th>Unit</th></tr><tr><td>Alkaline phosphatase [Enzymatic activity/volume] in Serum or Plasma</td><td>64.1</td><td>35 - 270</td><td></td><td>U/L</td></tr></table></div>"
        },
        "status": "final",
        "subject": {
          "reference": "urn:uuid:36ad9e0c-15e7-4fc6-b11e-df2560297fae",
          "display": "Magdolna Balog"
        },
        "effectiveDateTime": "2017-06-01T19:52:39Z",
        "specimen": {
          "reference": "urn:uuid:870baa14-ab1b-4142-930a-5fb27eceece5"
        }
      }
    },
    {
      "fullUrl": "urn:uuid:1b7ab8f3-c8ad-46e2-9be2-47b3d9775d63",
      "resource": {
        "resourceType": "Observation",
        "id": "1b7ab8f3-c8ad-46e2-9be2-47b3d9775d63",
        "meta": {
          "profile": [
            "http://hl7.eu/fhir/laboratory/StructureDefinition/Observation-resultslab-eu-lab"
          ]
        },
        "performer": [
          {
            "display": "The Central European Lab"
          }
        ],
        "category": [
          {
            "coding": [
              {
                "system": "http://terminology.hl7.org/CodeSystem/observation-category",
                "code": "laboratory"
              }
            ]
          }
        ],
        "code": {
          "coding": [
            {
              "code": "1742-6",
              "system": "http://loinc.org",
              "display": "Alanine aminotransferase [Enzymatic activity/volume] in Serum or Plasma"
            }
          ],
          "text": "Alanine aminotransferase [Enzymatic activity/volume] in Serum or Plasma"
        },
        "valueQuantity": {
          "system": "http://unitsofmeasure.org",
          "value": 37.4,
          "unit": "U/L",
          "code": "U/L"
        },
        "referenceRange": [
          {
            "low": {
              "value": 7,
              "code": "U/L",
              "system": "http://unitsofmeasure.org"
            }
          },
          {
            "high": {
              "value": 60,
              "code": "U/L",
              "system": "http://unitsofmeasure.org"
            }
          }
        ],
        "text": {
          "status": "generated",
          "div": "<div xmlns=\"http://www.w3.org/1999/xhtml\"><table class=\"hl7__eu__lab__report\"><tr><th>Test</th><th>01-Jun-2017</th><th>Reference&#xA0;Range</th><th>Unit</th></tr><tr><td>Alanine aminotransferase [Enzymatic activity/volume] in Serum or Plasma</td><td>37.4</td><td>7 - 60</td><td></td><td>U/L</td></tr></table></div>"
        },
        "status": "final",
        "subject": {
          "reference": "urn:uuid:36ad9e0c-15e7-4fc6-b11e-df2560297fae",
          "display": "Magdolna Balog"
        },
        "effectiveDateTime": "2017-06-01T19:52:39Z",
        "specimen": {
          "reference": "urn:uuid:870baa14-ab1b-4142-930a-5fb27eceece5"
        }
      }
    },
    {
      "fullUrl": "urn:uuid:1e859db9-fe48-4276-92e2-b70d8c088b3d",
      "resource": {
        "resourceType": "Observation",
        "id": "1e859db9-fe48-4276-92e2-b70d8c088b3d",
        "meta": {
          "profile": [
            "http://hl7.eu/fhir/laboratory/StructureDefinition/Observation-resultslab-eu-lab"
          ]
        },
        "performer": [
          {
            "display": "The Central European Lab"
          }
        ],
        "category": [
          {
            "coding": [
              {
                "system": "http://terminology.hl7.org/CodeSystem/observation-category",
                "code": "laboratory"
              }
            ]
          }
        ],
        "code": {
          "coding": [
            {
              "code": "1920-8",
              "system": "http://loinc.org",
              "display": "Aspartate aminotransferase [Enzymatic activity/volume] in Serum or Plasma"
            }
          ],
          "text": "Aspartate aminotransferase [Enzymatic activity/volume] in Serum or Plasma"
        },
        "valueQuantity": {
          "system": "http://unitsofmeasure.org",
          "value": 39.7,
          "unit": "U/L",
          "code": "U/L"
        },
        "referenceRange": [
          {
            "low": {
              "value": 10,
              "code": "U/L",
              "system": "http://unitsofmeasure.org"
            }
          },
          {
            "high": {
              "value": 40,
              "code": "U/L",
              "system": "http://unitsofmeasure.org"
            }
          }
        ],
        "text": {
          "status": "generated",
          "div": "<div xmlns=\"http://www.w3.org/1999/xhtml\"><table class=\"hl7__eu__lab__report\"><tr><th>Test</th><th>01-Jun-2017</th><th>Reference&#xA0;Range</th><th>Unit</th></tr><tr><td>Aspartate aminotransferase [Enzymatic activity/volume] in Serum or Plasma</td><td>39.7</td><td>10 - 40</td><td></td><td>U/L</td></tr></table></div>"
        },
        "status": "final",
        "subject": {
          "reference": "urn:uuid:36ad9e0c-15e7-4fc6-b11e-df2560297fae",
          "display": "Magdolna Balog"
        },
        "effectiveDateTime": "2017-06-01T19:52:39Z",
        "specimen": {
          "reference": "urn:uuid:870baa14-ab1b-4142-930a-5fb27eceece5"
        }
      }
    },
    {
      "fullUrl": "urn:uuid:593988ff-ad2d-471a-a721-d6bd68bdc31e",
      "resource": {
        "resourceType": "Observation",
        "id": "593988ff-ad2d-471a-a721-d6bd68bdc31e",
        "meta": {
          "profile": [
            "http://hl7.eu/fhir/laboratory/StructureDefinition/Observation-resultslab-eu-lab"
          ]
        },
        "performer": [
          {
            "display": "The Central European Lab"
          }
        ],
        "category": [
          {
            "coding": [
              {
                "system": "http://terminology.hl7.org/CodeSystem/observation-category",
                "code": "laboratory"
              }
            ]
          }
        ],
        "code": {
          "coding": [
            {
              "code": "19123-9",
              "system": "http://loinc.org",
              "display": "Magnesium [Mass/volume] in Serum or Plasma"
            }
          ],
          "text": "Magnesium [Mass/volume] in Serum or Plasma"
        },
        "valueQuantity": {
          "system": "http://unitsofmeasure.org",
          "value": 1.8,
          "unit": "mg/dL",
          "code": "mg/dL"
        },
        "referenceRange": [
          {
            "low": {
              "value": 1.6,
              "code": "mg/dL",
              "system": "http://unitsofmeasure.org"
            }
          },
          {
            "high": {
              "value": 2.3,
              "code": "mg/dL",
              "system": "http://unitsofmeasure.org"
            }
          }
        ],
        "text": {
          "status": "generated",
          "div": "<div xmlns=\"http://www.w3.org/1999/xhtml\"><table class=\"hl7__eu__lab__report\"><tr><th>Test</th><th>01-Jun-2017</th><th>Reference&#xA0;Range</th><th>Unit</th></tr><tr><td>Magnesium [Mass/volume] in Serum or Plasma</td><td>1.8</td><td>1.6 - 2.3</td><td></td><td>mg/dL</td></tr></table></div>"
        },
        "status": "final",
        "subject": {
          "reference": "urn:uuid:36ad9e0c-15e7-4fc6-b11e-df2560297fae",
          "display": "Magdolna Balog"
        },
        "effectiveDateTime": "2017-06-01T19:52:39Z",
        "specimen": {
          "reference": "urn:uuid:870baa14-ab1b-4142-930a-5fb27eceece5"
        }
      }
    },
    {
      "fullUrl": "urn:uuid:456fc603-670a-4f3c-b94c-e9ba0b9fde78",
      "resource": {
        "resourceType": "Observation",
        "id": "456fc603-670a-4f3c-b94c-e9ba0b9fde78",
        "meta": {
          "profile": [
            "http://hl7.eu/fhir/laboratory/StructureDefinition/Observation-resultslab-eu-lab"
          ]
        },
        "performer": [
          {
            "display": "The Central European Lab"
          }
        ],
        "category": [
          {
            "coding": [
              {
                "system": "http://terminology.hl7.org/CodeSystem/observation-category",
                "code": "laboratory"
              }
            ]
          }
        ],
        "code": {
          "coding": [
            {
              "code": "2777-1",
              "system": "http://loinc.org",
              "display": "Phosphate [Mass/volume] in Serum or Plasma"
            }
          ],
          "text": "Phosphate [Mass/volume] in Serum or Plasma"
        },
        "valueQuantity": {
          "system": "http://unitsofmeasure.org",
          "value": 2.8,
          "unit": "mg/dL",
          "code": "mg/dL"
        },
        "referenceRange": [
          {
            "low": {
              "value": 2.5,
              "code": "mg/dL",
              "system": "http://unitsofmeasure.org"
            }
          },
          {
            "high": {
              "value": 4.5,
              "code": "mg/dL",
              "system": "http://unitsofmeasure.org"
            }
          }
        ],
        "text": {
          "status": "generated",
          "div": "<div xmlns=\"http://www.w3.org/1999/xhtml\"><table class=\"hl7__eu__lab__report\"><tr><th>Test</th><th>01-Jun-2017</th><th>Reference&#xA0;Range</th><th>Unit</th></tr><tr><td>Phosphate [Mass/volume] in Serum or Plasma</td><td>2.8</td><td>2.5 - 4.5</td><td></td><td>mg/dL</td></tr></table></div>"
        },
        "status": "final",
        "subject": {
          "reference": "urn:uuid:36ad9e0c-15e7-4fc6-b11e-df2560297fae",
          "display": "Magdolna Balog"
        },
        "effectiveDateTime": "2017-06-01T19:52:39Z",
        "specimen": {
          "reference": "urn:uuid:870baa14-ab1b-4142-930a-5fb27eceece5"
        }
      }
    },
    {
      "fullUrl": "urn:uuid:7a33010e-338c-49b1-93a6-e3a980f32d20",
      "resource": {
        "resourceType": "Observation",
        "id": "7a33010e-338c-49b1-93a6-e3a980f32d20",
        "meta": {
          "profile": [
            "http://hl7.eu/fhir/laboratory/StructureDefinition/Observation-resultslab-eu-lab"
          ]
        },
        "performer": [
          {
            "display": "The Central European Lab"
          }
        ],
        "category": [
          {
            "coding": [
              {
                "system": "http://terminology.hl7.org/CodeSystem/observation-category",
                "code": "laboratory"
              }
            ]
          }
        ],
        "code": {
          "coding": [
            {
              "code": "5902-2",
              "system": "http://loinc.org",
              "display": "Prothrombin time (PT)"
            }
          ],
          "text": "Prothrombin time (PT)"
        },
        "valueQuantity": {
          "system": "http://unitsofmeasure.org",
          "value": 11,
          "unit": "s",
          "code": "s"
        },
        "referenceRange": [
          {
            "low": {
              "value": 11,
              "code": "s",
              "system": "http://unitsofmeasure.org"
            }
          },
          {
            "high": {
              "value": 15,
              "code": "s",
              "system": "http://unitsofmeasure.org"
            }
          }
        ],
        "text": {
          "status": "generated",
          "div": "<div xmlns=\"http://www.w3.org/1999/xhtml\"><table class=\"hl7__eu__lab__report\"><tr><th>Test</th><th>01-Jun-2017</th><th>Reference&#xA0;Range</th><th>Unit</th></tr><tr><td>Prothrombin time (PT)</td><td>11.0</td><td>11 - 15</td><td></td><td>s</td></tr></table></div>"
        },
        "status": "final",
        "subject": {
          "reference": "urn:uuid:36ad9e0c-15e7-4fc6-b11e-df2560297fae",
          "display": "Magdolna Balog"
        },
        "effectiveDateTime": "2017-06-01T19:52:39Z",
        "specimen": {
          "reference": "urn:uuid:65640dc1-51d9-45d7-92ed-1bd0c58e978b"
        }
      }
    },
    {
      "fullUrl": "urn:uuid:89d1932b-2838-4a91-8d9b-eebe8b598abb",
      "resource": {
        "resourceType": "Observation",
        "id": "89d1932b-2838-4a91-8d9b-eebe8b598abb",
        "meta": {
          "profile": [
            "http://hl7.eu/fhir/laboratory/StructureDefinition/Observation-resultslab-eu-lab"
          ]
        },
        "performer": [
          {
            "display": "The Central European Lab"
          }
        ],
        "category": [
          {
            "coding": [
              {
                "system": "http://terminology.hl7.org/CodeSystem/observation-category",
                "code": "laboratory"
              }
            ]
          }
        ],
        "code": {
          "coding": [
            {
              "code": "6301-6",
              "system": "http://loinc.org",
              "display": "INR in Platelet poor plasma by Coagulation assay"
            }
          ],
          "text": "INR in Platelet poor plasma by Coagulation assay"
        },
        "valueQuantity": {
          "system": "http://unitsofmeasure.org",
          "value": 1,
          "unit": "{INR}",
          "code": "{INR}"
        },
        "referenceRange": [
          {
            "low": {
              "value": 0.9,
              "code": "INR",
              "system": "http://unitsofmeasure.org"
            }
          },
          {
            "high": {
              "value": 3,
              "code": "INR",
              "system": "http://unitsofmeasure.org"
            }
          }
        ],
        "text": {
          "status": "generated",
          "div": "<div xmlns=\"http://www.w3.org/1999/xhtml\"><table class=\"hl7__eu__lab__report\"><tr><th>Test</th><th>01-Jun-2017</th><th>Reference&#xA0;Range</th><th>Unit</th></tr><tr><td>INR in Platelet poor plasma by Coagulation assay</td><td>1.0</td><td>0.9 - 3</td><td></td><td>{INR}</td></tr></table></div>"
        },
        "status": "final",
        "subject": {
          "reference": "urn:uuid:36ad9e0c-15e7-4fc6-b11e-df2560297fae",
          "display": "Magdolna Balog"
        },
        "effectiveDateTime": "2017-06-01T19:52:39Z",
        "specimen": {
          "reference": "urn:uuid:65640dc1-51d9-45d7-92ed-1bd0c58e978b"
        }
      }
    },
    {
      "fullUrl": "urn:uuid:372b6e67-2e1c-400a-a7b8-1d4783b9a0af",
      "resource": {
        "resourceType": "Observation",
        "id": "372b6e67-2e1c-400a-a7b8-1d4783b9a0af",
        "meta": {
          "profile": [
            "http://hl7.eu/fhir/laboratory/StructureDefinition/Observation-resultslab-eu-lab"
          ]
        },
        "performer": [
          {
            "display": "The Central European Lab"
          }
        ],
        "category": [
          {
            "coding": [
              {
                "system": "http://terminology.hl7.org/CodeSystem/observation-category",
                "code": "laboratory"
              }
            ]
          }
        ],
        "code": {
          "coding": [
            {
              "code": "3173-2",
              "system": "http://loinc.org",
              "display": "aPTT in Blood by Coagulation assay"
            }
          ],
          "text": "aPTT in Blood by Coagulation assay"
        },
        "valueQuantity": {
          "system": "http://unitsofmeasure.org",
          "value": 33.9,
          "unit": "s",
          "code": "s"
        },
        "referenceRange": [
          {
            "low": {
              "value": 25,
              "code": "seconds",
              "system": "http://unitsofmeasure.org"
            }
          },
          {
            "high": {
              "value": 40,
              "code": "seconds",
              "system": "http://unitsofmeasure.org"
            }
          }
        ],
        "text": {
          "status": "generated",
          "div": "<div xmlns=\"http://www.w3.org/1999/xhtml\"><table class=\"hl7__eu__lab__report\"><tr><th>Test</th><th>01-Jun-2017</th><th>Reference&#xA0;Range</th><th>Unit</th></tr><tr><td>aPTT in Blood by Coagulation assay</td><td>33.9</td><td>25 - 40</td><td></td><td>s</td></tr></table></div>"
        },
        "status": "final",
        "subject": {
          "reference": "urn:uuid:36ad9e0c-15e7-4fc6-b11e-df2560297fae",
          "display": "Magdolna Balog"
        },
        "effectiveDateTime": "2017-06-01T19:52:39Z",
        "specimen": {
          "reference": "urn:uuid:455a89e3-6372-417b-b16c-af9e1c33a43a"
        }
      }
    },
    {
      "fullUrl": "urn:uuid:7d5d507d-aa18-427b-9ec1-5005ac711462",
      "resource": {
        "resourceType": "Observation",
        "id": "7d5d507d-aa18-427b-9ec1-5005ac711462",
        "meta": {
          "profile": [
            "http://hl7.eu/fhir/laboratory/StructureDefinition/Observation-resultslab-eu-lab"
          ]
        },
        "performer": [
          {
            "display": "The Central European Lab"
          }
        ],
        "category": [
          {
            "coding": [
              {
                "system": "http://terminology.hl7.org/CodeSystem/observation-category",
                "code": "laboratory"
              }
            ]
          }
        ],
        "code": {
          "coding": [
            {
              "code": "2744-1",
              "system": "http://loinc.org",
              "display": "pH of Arterial blood"
            }
          ],
          "text": "pH of Arterial blood"
        },
        "valueQuantity": {
          "system": "http://unitsofmeasure.org",
          "value": 7.1,
          "unit": "[pH]",
          "code": "[pH]"
        },
        "referenceRange": [
          {
            "low": {
              "value": 7.35,
              "code": "pH",
              "system": "http://unitsofmeasure.org"
            }
          },
          {
            "high": {
              "value": 7.45,
              "code": "pH",
              "system": "http://unitsofmeasure.org"
            }
          }
        ],
        "interpretation": [
          {
            "coding": [
              {
                "code": "L",
                "system": "http://terminology.hl7.org/CodeSystem/v3-ObservationInterpretation",
                "display": "Low"
              }
            ]
          }
        ],
        "text": {
          "status": "generated",
          "div": "<div xmlns=\"http://www.w3.org/1999/xhtml\"><table class=\"hl7__eu__lab__report\"><tr><th>Test</th><th>01-Jun-2017</th><th>Reference&#xA0;Range</th><th>Unit</th></tr><tr><td>pH of Arterial blood</td><td>7.1</td><td>7.35 - 7.45</td><td>L</td><td>[pH]</td></tr></table></div>"
        },
        "status": "final",
        "subject": {
          "reference": "urn:uuid:36ad9e0c-15e7-4fc6-b11e-df2560297fae",
          "display": "Magdolna Balog"
        },
        "effectiveDateTime": "2017-06-01T19:52:39Z",
        "specimen": {
          "reference": "urn:uuid:14d5e03e-512f-4987-b44c-af3dd531dfde"
        }
      }
    },
    {
      "fullUrl": "urn:uuid:62312f00-62e0-4ea4-905a-e1381cb2b157",
      "resource": {
        "resourceType": "Observation",
        "id": "62312f00-62e0-4ea4-905a-e1381cb2b157",
        "meta": {
          "profile": [
            "http://hl7.eu/fhir/laboratory/StructureDefinition/Observation-resultslab-eu-lab"
          ]
        },
        "performer": [
          {
            "display": "The Central European Lab"
          }
        ],
        "category": [
          {
            "coding": [
              {
                "system": "http://terminology.hl7.org/CodeSystem/observation-category",
                "code": "laboratory"
              }
            ]
          }
        ],
        "code": {
          "coding": [
            {
              "code": "2019-8",
              "system": "http://loinc.org",
              "display": "Carbon dioxide [Partial pressure] in Arterial blood"
            }
          ],
          "text": "Carbon dioxide [Partial pressure] in Arterial blood"
        },
        "valueQuantity": {
          "system": "http://unitsofmeasure.org",
          "value": 42.1,
          "unit": "mm[Hg]",
          "code": "mm[Hg]"
        },
        "referenceRange": [
          {
            "low": {
              "value": 38,
              "code": "mm[Hg]",
              "system": "http://unitsofmeasure.org"
            }
          },
          {
            "high": {
              "value": 48,
              "code": "mm[Hg]",
              "system": "http://unitsofmeasure.org"
            }
          }
        ],
        "text": {
          "status": "generated",
          "div": "<div xmlns=\"http://www.w3.org/1999/xhtml\"><table class=\"hl7__eu__lab__report\"><tr><th>Test</th><th>01-Jun-2017</th><th>Reference&#xA0;Range</th><th>Unit</th></tr><tr><td>Carbon dioxide [Partial pressure] in Arterial blood</td><td>42.1</td><td>38 - 48</td><td></td><td>mm[Hg]</td></tr></table></div>"
        },
        "status": "final",
        "subject": {
          "reference": "urn:uuid:36ad9e0c-15e7-4fc6-b11e-df2560297fae",
          "display": "Magdolna Balog"
        },
        "effectiveDateTime": "2017-06-01T19:52:39Z",
        "specimen": {
          "reference": "urn:uuid:14d5e03e-512f-4987-b44c-af3dd531dfde"
        }
      }
    },
    {
      "fullUrl": "urn:uuid:78c550ff-de07-4230-9458-30c676b0c871",
      "resource": {
        "resourceType": "Observation",
        "id": "78c550ff-de07-4230-9458-30c676b0c871",
        "meta": {
          "profile": [
            "http://hl7.eu/fhir/laboratory/StructureDefinition/Observation-resultslab-eu-lab"
          ]
        },
        "performer": [
          {
            "display": "The Central European Lab"
          }
        ],
        "category": [
          {
            "coding": [
              {
                "system": "http://terminology.hl7.org/CodeSystem/observation-category",
                "code": "laboratory"
              }
            ]
          }
        ],
        "code": {
          "coding": [
            {
              "code": "2703-7",
              "system": "http://loinc.org",
              "display": "Oxygen [Partial pressure] in Arterial blood"
            }
          ],
          "text": "Oxygen [Partial pressure] in Arterial blood"
        },
        "valueQuantity": {
          "system": "http://unitsofmeasure.org",
          "value": 81,
          "unit": "mm[Hg]",
          "code": "mm[Hg]"
        },
        "referenceRange": [
          {
            "low": {
              "value": 75,
              "code": "mm[Hg]",
              "system": "http://unitsofmeasure.org"
            }
          },
          {
            "high": {
              "value": 100,
              "code": "mm[Hg]",
              "system": "http://unitsofmeasure.org"
            }
          }
        ],
        "text": {
          "status": "generated",
          "div": "<div xmlns=\"http://www.w3.org/1999/xhtml\"><table class=\"hl7__eu__lab__report\"><tr><th>Test</th><th>01-Jun-2017</th><th>Reference&#xA0;Range</th><th>Unit</th></tr><tr><td>Oxygen [Partial pressure] in Arterial blood</td><td>81.0</td><td>75 - 100</td><td></td><td>mm[Hg]</td></tr></table></div>"
        },
        "status": "final",
        "subject": {
          "reference": "urn:uuid:36ad9e0c-15e7-4fc6-b11e-df2560297fae",
          "display": "Magdolna Balog"
        },
        "effectiveDateTime": "2017-06-01T19:52:39Z",
        "specimen": {
          "reference": "urn:uuid:14d5e03e-512f-4987-b44c-af3dd531dfde"
        }
      }
    },
    {
      "fullUrl": "urn:uuid:43807536-eef6-40ae-9056-c16acd64ff95",
      "resource": {
        "resourceType": "Observation",
        "id": "43807536-eef6-40ae-9056-c16acd64ff95",
        "meta": {
          "profile": [
            "http://hl7.eu/fhir/laboratory/StructureDefinition/Observation-resultslab-eu-lab"
          ]
        },
        "performer": [
          {
            "display": "The Central European Lab"
          }
        ],
        "category": [
          {
            "coding": [
              {
                "system": "http://terminology.hl7.org/CodeSystem/observation-category",
                "code": "laboratory"
              }
            ]
          }
        ],
        "code": {
          "coding": [
            {
              "code": "1960-4",
              "system": "http://loinc.org",
              "display": "Bicarbonate [Moles/volume] in Arterial blood"
            }
          ],
          "text": "Bicarbonate [Moles/volume] in Arterial blood"
        },
        "valueQuantity": {
          "system": "http://unitsofmeasure.org",
          "value": 24.4,
          "unit": "mmol/L",
          "code": "mmol/L"
        },
        "referenceRange": [
          {
            "low": {
              "value": 22,
              "code": "mmol/L",
              "system": "http://unitsofmeasure.org"
            }
          },
          {
            "high": {
              "value": 31,
              "code": "mmol/L",
              "system": "http://unitsofmeasure.org"
            }
          }
        ],
        "text": {
          "status": "generated",
          "div": "<div xmlns=\"http://www.w3.org/1999/xhtml\"><table class=\"hl7__eu__lab__report\"><tr><th>Test</th><th>01-Jun-2017</th><th>Reference&#xA0;Range</th><th>Unit</th></tr><tr><td>Bicarbonate [Moles/volume] in Arterial blood</td><td>24.4</td><td>22 - 31</td><td></td><td>mmol/L</td></tr></table></div>"
        },
        "status": "final",
        "subject": {
          "reference": "urn:uuid:36ad9e0c-15e7-4fc6-b11e-df2560297fae",
          "display": "Magdolna Balog"
        },
        "effectiveDateTime": "2017-06-01T19:52:39Z",
        "specimen": {
          "reference": "urn:uuid:14d5e03e-512f-4987-b44c-af3dd531dfde"
        }
      }
    },
    {
      "fullUrl": "urn:uuid:a2f3710f-45ad-4f41-9f05-c91b6bf5cd23",
      "resource": {
        "resourceType": "Observation",
        "id": "a2f3710f-45ad-4f41-9f05-c91b6bf5cd23",
        "meta": {
          "profile": [
            "http://hl7.eu/fhir/laboratory/StructureDefinition/Observation-resultslab-eu-lab"
          ]
        },
        "performer": [
          {
            "display": "The Central European Lab"
          }
        ],
        "category": [
          {
            "coding": [
              {
                "system": "http://terminology.hl7.org/CodeSystem/observation-category",
                "code": "laboratory"
              }
            ]
          }
        ],
        "code": {
          "coding": [
            {
              "code": "2708-6",
              "system": "http://loinc.org",
              "display": "Oxygen saturation in Arterial blood"
            }
          ],
          "text": "Oxygen saturation in Arterial blood"
        },
        "valueQuantity": {
          "system": "http://unitsofmeasure.org",
          "value": 98,
          "unit": "%",
          "code": "%"
        },
        "referenceRange": [
          {
            "low": {
              "value": 95,
              "code": "%",
              "system": "http://unitsofmeasure.org"
            }
          },
          {
            "high": {
              "value": 100,
              "code": "%",
              "system": "http://unitsofmeasure.org"
            }
          }
        ],
        "text": {
          "status": "generated",
          "div": "<div xmlns=\"http://www.w3.org/1999/xhtml\"><table class=\"hl7__eu__lab__report\"><tr><th>Test</th><th>01-Jun-2017</th><th>Reference&#xA0;Range</th><th>Unit</th></tr><tr><td>Oxygen saturation in Arterial blood</td><td>98.0</td><td>95 - 100</td><td></td><td>%</td></tr></table></div>"
        },
        "status": "final",
        "subject": {
          "reference": "urn:uuid:36ad9e0c-15e7-4fc6-b11e-df2560297fae",
          "display": "Magdolna Balog"
        },
        "effectiveDateTime": "2017-06-01T19:52:39Z",
        "specimen": {
          "reference": "urn:uuid:14d5e03e-512f-4987-b44c-af3dd531dfde"
        }
      }
    },
    {
      "fullUrl": "urn:uuid:5dd581ae-1dbb-43b6-88e2-4902bd0b919e",
      "resource": {
        "resourceType": "Observation",
        "id": "5dd581ae-1dbb-43b6-88e2-4902bd0b919e",
        "meta": {
          "profile": [
            "http://hl7.eu/fhir/laboratory/StructureDefinition/Observation-resultslab-eu-lab"
          ]
        },
        "performer": [
          {
            "display": "The Central European Lab"
          }
        ],
        "category": [
          {
            "coding": [
              {
                "system": "http://terminology.hl7.org/CodeSystem/observation-category",
                "code": "laboratory"
              }
            ]
          }
        ],
        "code": {
          "coding": [
            {
              "code": "2093-3",
              "system": "http://loinc.org",
              "display": "Cholesterol [Mass/volume] in Serum or Plasma"
            }
          ],
          "text": "Cholesterol [Mass/volume] in Serum or Plasma"
        },
        "valueQuantity": {
          "system": "http://unitsofmeasure.org",
          "value": 179.2,
          "unit": "mg/dL",
          "code": "mg/dL"
        },
        "referenceRange": [
          {
            "low": {
              "value": 125,
              "code": "mg/dL",
              "system": "http://unitsofmeasure.org"
            }
          },
          {
            "high": {
              "value": 200,
              "code": "mg/dL",
              "system": "http://unitsofmeasure.org"
            }
          }
        ],
        "text": {
          "status": "generated",
          "div": "<div xmlns=\"http://www.w3.org/1999/xhtml\"><table class=\"hl7__eu__lab__report\"><tr><th>Test</th><th>01-Jun-2017</th><th>Reference&#xA0;Range</th><th>Unit</th></tr><tr><td>Cholesterol [Mass/volume] in Serum or Plasma</td><td>179.2</td><td>125 - 200</td><td></td><td>mg/dL</td></tr></table></div>"
        },
        "status": "final",
        "subject": {
          "reference": "urn:uuid:36ad9e0c-15e7-4fc6-b11e-df2560297fae",
          "display": "Magdolna Balog"
        },
        "effectiveDateTime": "2017-06-01T19:52:39Z",
        "specimen": {
          "reference": "urn:uuid:870baa14-ab1b-4142-930a-5fb27eceece5"
        }
      }
    },
    {
      "fullUrl": "urn:uuid:e70a4b2c-23e8-4682-90de-3de6f7ac1361",
      "resource": {
        "resourceType": "Observation",
        "id": "e70a4b2c-23e8-4682-90de-3de6f7ac1361",
        "meta": {
          "profile": [
            "http://hl7.eu/fhir/laboratory/StructureDefinition/Observation-resultslab-eu-lab"
          ]
        },
        "performer": [
          {
            "display": "The Central European Lab"
          }
        ],
        "category": [
          {
            "coding": [
              {
                "system": "http://terminology.hl7.org/CodeSystem/observation-category",
                "code": "laboratory"
              }
            ]
          }
        ],
        "code": {
          "coding": [
            {
              "code": "2571-8",
              "system": "http://loinc.org",
              "display": "Triglyceride [Mass/volume] in Serum or Plasma"
            }
          ],
          "text": "Triglyceride [Mass/volume] in Serum or Plasma"
        },
        "valueQuantity": {
          "system": "http://unitsofmeasure.org",
          "value": 104.9,
          "unit": "mg/dL",
          "code": "mg/dL"
        },
        "referenceRange": [
          {
            "low": {
              "value": 0,
              "code": "mg/dL",
              "system": "http://unitsofmeasure.org"
            }
          },
          {
            "high": {
              "value": 150,
              "code": "mg/dL",
              "system": "http://unitsofmeasure.org"
            }
          }
        ],
        "text": {
          "status": "generated",
          "div": "<div xmlns=\"http://www.w3.org/1999/xhtml\"><table class=\"hl7__eu__lab__report\"><tr><th>Test</th><th>01-Jun-2017</th><th>Reference&#xA0;Range</th><th>Unit</th></tr><tr><td>Triglyceride [Mass/volume] in Serum or Plasma</td><td>104.9</td><td>0 - 150</td><td></td><td>mg/dL</td></tr></table></div>"
        },
        "status": "final",
        "subject": {
          "reference": "urn:uuid:36ad9e0c-15e7-4fc6-b11e-df2560297fae",
          "display": "Magdolna Balog"
        },
        "effectiveDateTime": "2017-06-01T19:52:39Z",
        "specimen": {
          "reference": "urn:uuid:870baa14-ab1b-4142-930a-5fb27eceece5"
        }
      }
    },
    {
      "fullUrl": "urn:uuid:66fdc10d-b748-4a56-a738-77b3e45fd731",
      "resource": {
        "resourceType": "Observation",
        "id": "66fdc10d-b748-4a56-a738-77b3e45fd731",
        "meta": {
          "profile": [
            "http://hl7.eu/fhir/laboratory/StructureDefinition/Observation-resultslab-eu-lab"
          ]
        },
        "performer": [
          {
            "display": "The Central European Lab"
          }
        ],
        "category": [
          {
            "coding": [
              {
                "system": "http://terminology.hl7.org/CodeSystem/observation-category",
                "code": "laboratory"
              }
            ]
          }
        ],
        "code": {
          "coding": [
            {
              "code": "18262-6",
              "system": "http://loinc.org",
              "display": "Cholesterol in LDL [Mass/volume] in Serum or Plasma by Direct assay"
            }
          ],
          "text": "Cholesterol in LDL [Mass/volume] in Serum or Plasma by Direct assay"
        },
        "valueQuantity": {
          "system": "http://unitsofmeasure.org",
          "value": 113.2,
          "unit": "mg/dL",
          "code": "mg/dL"
        },
        "referenceRange": [
          {
            "low": {
              "value": 0,
              "code": "mg/dL",
              "system": "http://unitsofmeasure.org"
            }
          },
          {
            "high": {
              "value": 130,
              "code": "mg/dL",
              "system": "http://unitsofmeasure.org"
            }
          }
        ],
        "text": {
          "status": "generated",
          "div": "<div xmlns=\"http://www.w3.org/1999/xhtml\"><table class=\"hl7__eu__lab__report\"><tr><th>Test</th><th>01-Jun-2017</th><th>Reference&#xA0;Range</th><th>Unit</th></tr><tr><td>Cholesterol in LDL [Mass/volume] in Serum or Plasma by Direct assay</td><td>113.2</td><td>0 - 130</td><td></td><td>mg/dL</td></tr></table></div>"
        },
        "status": "final",
        "subject": {
          "reference": "urn:uuid:36ad9e0c-15e7-4fc6-b11e-df2560297fae",
          "display": "Magdolna Balog"
        },
        "effectiveDateTime": "2017-06-01T19:52:39Z",
        "specimen": {
          "reference": "urn:uuid:870baa14-ab1b-4142-930a-5fb27eceece5"
        }
      }
    },
    {
      "fullUrl": "urn:uuid:34b64594-abe5-474f-9b45-6d5ea1bc1f83",
      "resource": {
        "resourceType": "Observation",
        "id": "34b64594-abe5-474f-9b45-6d5ea1bc1f83",
        "meta": {
          "profile": [
            "http://hl7.eu/fhir/laboratory/StructureDefinition/Observation-resultslab-eu-lab"
          ]
        },
        "performer": [
          {
            "display": "The Central European Lab"
          }
        ],
        "category": [
          {
            "coding": [
              {
                "system": "http://terminology.hl7.org/CodeSystem/observation-category",
                "code": "laboratory"
              }
            ]
          }
        ],
        "code": {
          "coding": [
            {
              "code": "2085-9",
              "system": "http://loinc.org",
              "display": "Cholesterol in HDL [Mass/volume] in Serum or Plasma"
            }
          ],
          "text": "Cholesterol in HDL [Mass/volume] in Serum or Plasma"
        },
        "valueQuantity": {
          "system": "http://unitsofmeasure.org",
          "value": 45.1,
          "unit": "mg/dL",
          "code": "mg/dL"
        },
        "referenceRange": [
          {
            "low": {
              "value": 50,
              "code": "mg/dL",
              "system": "http://unitsofmeasure.org"
            }
          },
          {
            "high": {
              "value": 100,
              "code": "mg/dL",
              "system": "http://unitsofmeasure.org"
            }
          }
        ],
        "interpretation": [
          {
            "coding": [
              {
                "code": "L",
                "system": "http://terminology.hl7.org/CodeSystem/v3-ObservationInterpretation",
                "display": "Low"
              }
            ]
          }
        ],
        "text": {
          "status": "generated",
          "div": "<div xmlns=\"http://www.w3.org/1999/xhtml\"><table class=\"hl7__eu__lab__report\"><tr><th>Test</th><th>01-Jun-2017</th><th>Reference&#xA0;Range</th><th>Unit</th></tr><tr><td>Cholesterol in HDL [Mass/volume] in Serum or Plasma</td><td>45.1</td><td>50 - 100</td><td>L</td><td>mg/dL</td></tr></table></div>"
        },
        "status": "final",
        "subject": {
          "reference": "urn:uuid:36ad9e0c-15e7-4fc6-b11e-df2560297fae",
          "display": "Magdolna Balog"
        },
        "effectiveDateTime": "2017-06-01T19:52:39Z",
        "specimen": {
          "reference": "urn:uuid:870baa14-ab1b-4142-930a-5fb27eceece5"
        }
      }
    },
    {
      "fullUrl": "urn:uuid:3d1e286a-e845-4323-81cb-ea26b839f222",
      "resource": {
        "resourceType": "Observation",
        "id": "3d1e286a-e845-4323-81cb-ea26b839f222",
        "meta": {
          "profile": [
            "http://hl7.eu/fhir/laboratory/StructureDefinition/Observation-resultslab-eu-lab"
          ]
        },
        "performer": [
          {
            "display": "The Central European Lab"
          }
        ],
        "category": [
          {
            "coding": [
              {
                "system": "http://terminology.hl7.org/CodeSystem/observation-category",
                "code": "laboratory"
              }
            ]
          }
        ],
        "code": {
          "coding": [
            {
              "code": "89579-7",
              "system": "http://loinc.org",
              "display": "Troponin I.cardiac [Mass/volume] in Serum or Plasma by High sensitivity method"
            }
          ],
          "text": "Troponin I.cardiac [Mass/volume] in Serum or Plasma by High sensitivity method"
        },
        "valueQuantity": {
          "system": "http://unitsofmeasure.org",
          "value": 0,
          "unit": "pg/mL",
          "code": "pg/mL"
        },
        "referenceRange": [
          {
            "low": {
              "value": 0,
              "code": "pg/mL",
              "system": "http://unitsofmeasure.org"
            }
          },
          {
            "high": {
              "value": 19.9,
              "code": "pg/mL",
              "system": "http://unitsofmeasure.org"
            }
          }
        ],
        "text": {
          "status": "generated",
          "div": "<div xmlns=\"http://www.w3.org/1999/xhtml\"><table class=\"hl7__eu__lab__report\"><tr><th>Test</th><th>01-Jun-2017</th><th>Reference&#xA0;Range</th><th>Unit</th></tr><tr><td>Troponin I.cardiac [Mass/volume] in Serum or Plasma by High sensitivity method</td><td>0.0</td><td>0 - 19.9</td><td></td><td>pg/mL</td></tr></table></div>"
        },
        "status": "final",
        "subject": {
          "reference": "urn:uuid:36ad9e0c-15e7-4fc6-b11e-df2560297fae",
          "display": "Magdolna Balog"
        },
        "effectiveDateTime": "2017-06-01T19:52:39Z",
        "specimen": {
          "reference": "urn:uuid:870baa14-ab1b-4142-930a-5fb27eceece5"
        }
      }
    },
    {
      "fullUrl": "urn:uuid:2e5dcc50-12be-4eaf-a6ea-a92787f3fb82",
      "resource": {
        "resourceType": "Observation",
        "id": "2e5dcc50-12be-4eaf-a6ea-a92787f3fb82",
        "meta": {
          "profile": [
            "http://hl7.eu/fhir/laboratory/StructureDefinition/Observation-resultslab-eu-lab"
          ]
        },
        "performer": [
          {
            "display": "The Central European Lab"
          }
        ],
        "category": [
          {
            "coding": [
              {
                "system": "http://terminology.hl7.org/CodeSystem/observation-category",
                "code": "laboratory"
              }
            ]
          }
        ],
        "code": {
          "coding": [
            {
              "code": "3016-3",
              "system": "http://loinc.org",
              "display": "Thyrotropin [Units/volume] in Serum or Plasma"
            }
          ],
          "text": "Thyrotropin [Units/volume] in Serum or Plasma"
        },
        "valueQuantity": {
          "system": "http://unitsofmeasure.org",
          "value": 3.2,
          "unit": "m[IU]/L",
          "code": "m[IU]/L"
        },
        "referenceRange": [
          {
            "low": {
              "value": 0.5,
              "code": "m[IU]/L",
              "system": "http://unitsofmeasure.org"
            }
          },
          {
            "high": {
              "value": 4.2,
              "code": "m[IU]/L",
              "system": "http://unitsofmeasure.org"
            }
          }
        ],
        "text": {
          "status": "generated",
          "div": "<div xmlns=\"http://www.w3.org/1999/xhtml\"><table class=\"hl7__eu__lab__report\"><tr><th>Test</th><th>01-Jun-2017</th><th>Reference&#xA0;Range</th><th>Unit</th></tr><tr><td>Thyrotropin [Units/volume] in Serum or Plasma</td><td>3.2</td><td>0.5 - 4.2</td><td></td><td>m[IU]/L</td></tr></table></div>"
        },
        "status": "final",
        "subject": {
          "reference": "urn:uuid:36ad9e0c-15e7-4fc6-b11e-df2560297fae",
          "display": "Magdolna Balog"
        },
        "effectiveDateTime": "2017-06-01T19:52:39Z",
        "specimen": {
          "reference": "urn:uuid:870baa14-ab1b-4142-930a-5fb27eceece5"
        }
      }
    },
    {
      "fullUrl": "urn:uuid:4fb96161-7001-4689-b222-02e4f1bc091d",
      "resource": {
        "resourceType": "Observation",
        "id": "4fb96161-7001-4689-b222-02e4f1bc091d",
        "meta": {
          "profile": [
            "http://hl7.eu/fhir/laboratory/StructureDefinition/Observation-resultslab-eu-lab"
          ]
        },
        "performer": [
          {
            "display": "The Central European Lab"
          }
        ],
        "category": [
          {
            "coding": [
              {
                "system": "http://terminology.hl7.org/CodeSystem/observation-category",
                "code": "laboratory"
              }
            ]
          }
        ],
        "code": {
          "coding": [
            {
              "code": "4548-4",
              "system": "http://loinc.org",
              "display": "Hemoglobin A1c/Hemoglobin.total in Blood"
            }
          ],
          "text": "Hemoglobin A1c/Hemoglobin.total in Blood"
        },
        "valueQuantity": {
          "system": "http://unitsofmeasure.org",
          "value": 5.9,
          "unit": "%",
          "code": "%"
        },
        "referenceRange": [
          {
            "low": {
              "value": 4.5,
              "code": "%",
              "system": "http://unitsofmeasure.org"
            }
          },
          {
            "high": {
              "value": 6.4,
              "code": "%",
              "system": "http://unitsofmeasure.org"
            }
          }
        ],
        "text": {
          "status": "generated",
          "div": "<div xmlns=\"http://www.w3.org/1999/xhtml\"><table class=\"hl7__eu__lab__report\"><tr><th>Test</th><th>01-Jun-2017</th><th>Reference&#xA0;Range</th><th>Unit</th></tr><tr><td>Hemoglobin A1c/Hemoglobin.total in Blood</td><td>5.9</td><td>4.5 - 6.4</td><td></td><td>%</td></tr></table></div>"
        },
        "status": "final",
        "subject": {
          "reference": "urn:uuid:36ad9e0c-15e7-4fc6-b11e-df2560297fae",
          "display": "Magdolna Balog"
        },
        "effectiveDateTime": "2017-06-01T19:52:39Z",
        "specimen": {
          "reference": "urn:uuid:455a89e3-6372-417b-b16c-af9e1c33a43a"
        }
      }
    },
    {
      "fullUrl": "urn:uuid:5531d77a-0cfc-4693-9983-cbbfd90ff54a",
      "resource": {
        "resourceType": "Observation",
        "id": "5531d77a-0cfc-4693-9983-cbbfd90ff54a",
        "meta": {
          "profile": [
            "http://hl7.eu/fhir/laboratory/StructureDefinition/Observation-resultslab-eu-lab"
          ]
        },
        "performer": [
          {
            "display": "The Central European Lab"
          }
        ],
        "category": [
          {
            "coding": [
              {
                "system": "http://terminology.hl7.org/CodeSystem/observation-category",
                "code": "laboratory"
              }
            ]
          }
        ],
        "code": {
          "coding": [
            {
              "code": "25428-4",
              "system": "http://loinc.org",
              "display": "Glucose [Presence] in Urine by Test strip"
            }
          ],
          "text": "Glucose [Presence] in Urine by Test strip"
        },
        "valueQuantity": {
          "system": "http://unitsofmeasure.org",
          "value": 1,
          "unit": "{presence}",
          "code": "{presence}"
        },
        "referenceRange": [
          {
            "low": {
              "value": 0,
              "code": "mg/dL",
              "system": "http://unitsofmeasure.org"
            }
          },
          {
            "high": {
              "value": 0,
              "code": "mg/dL",
              "system": "http://unitsofmeasure.org"
            }
          }
        ],
        "interpretation": [
          {
            "coding": [
              {
                "code": "H",
                "system": "http://terminology.hl7.org/CodeSystem/v3-ObservationInterpretation",
                "display": "High"
              }
            ]
          }
        ],
        "text": {
          "status": "generated",
          "div": "<div xmlns=\"http://www.w3.org/1999/xhtml\"><table class=\"hl7__eu__lab__report\"><tr><th>Test</th><th>01-Jun-2017</th><th>Reference&#xA0;Range</th><th>Unit</th></tr><tr><td>Glucose [Presence] in Urine by Test strip</td><td>1.0</td><td>0 - 0</td><td>H</td><td>{presence}</td></tr></table></div>"
        },
        "status": "final",
        "subject": {
          "reference": "urn:uuid:36ad9e0c-15e7-4fc6-b11e-df2560297fae",
          "display": "Magdolna Balog"
        },
        "effectiveDateTime": "2017-06-01T19:52:39Z",
        "specimen": {
          "reference": "urn:uuid:5130593a-0631-4952-b8e4-e45cf0b364fb"
        }
      }
    },
    {
      "fullUrl": "urn:uuid:d0ce6ee4-5609-49d4-b626-5f9325c0c2d6",
      "resource": {
        "resourceType": "Observation",
        "id": "d0ce6ee4-5609-49d4-b626-5f9325c0c2d6",
        "meta": {
          "profile": [
            "http://hl7.eu/fhir/laboratory/StructureDefinition/Observation-resultslab-eu-lab"
          ]
        },
        "performer": [
          {
            "display": "The Central European Lab"
          }
        ],
        "category": [
          {
            "coding": [
              {
                "system": "http://terminology.hl7.org/CodeSystem/observation-category",
                "code": "laboratory"
              }
            ]
          }
        ],
        "code": {
          "coding": [
            {
              "code": "5770-3",
              "system": "http://loinc.org",
              "display": "Bilirubin.total [Presence] in Urine by Test strip"
            }
          ],
          "text": "Bilirubin.total [Presence] in Urine by Test strip"
        },
        "valueQuantity": {
          "system": "http://unitsofmeasure.org",
          "value": 1,
          "unit": "{presence}",
          "code": "{presence}"
        },
        "referenceRange": [
          {
            "low": {
              "value": 0,
              "code": "mg/dL",
              "system": "http://unitsofmeasure.org"
            }
          },
          {
            "high": {
              "value": 1,
              "code": "mg/dL",
              "system": "http://unitsofmeasure.org"
            }
          }
        ],
        "text": {
          "status": "generated",
          "div": "<div xmlns=\"http://www.w3.org/1999/xhtml\"><table class=\"hl7__eu__lab__report\"><tr><th>Test</th><th>01-Jun-2017</th><th>Reference&#xA0;Range</th><th>Unit</th></tr><tr><td>Bilirubin.total [Presence] in Urine by Test strip</td><td>1.0</td><td>0 - 1</td><td></td><td>{presence}</td></tr></table></div>"
        },
        "status": "final",
        "subject": {
          "reference": "urn:uuid:36ad9e0c-15e7-4fc6-b11e-df2560297fae",
          "display": "Magdolna Balog"
        },
        "effectiveDateTime": "2017-06-01T19:52:39Z",
        "specimen": {
          "reference": "urn:uuid:5130593a-0631-4952-b8e4-e45cf0b364fb"
        }
      }
    },
    {
      "fullUrl": "urn:uuid:701c09f2-f881-443d-803c-3681d0f28232",
      "resource": {
        "resourceType": "Observation",
        "id": "701c09f2-f881-443d-803c-3681d0f28232",
        "meta": {
          "profile": [
            "http://hl7.eu/fhir/laboratory/StructureDefinition/Observation-resultslab-eu-lab"
          ]
        },
        "performer": [
          {
            "display": "The Central European Lab"
          }
        ],
        "category": [
          {
            "coding": [
              {
                "system": "http://terminology.hl7.org/CodeSystem/observation-category",
                "code": "laboratory"
              }
            ]
          }
        ],
        "code": {
          "coding": [
            {
              "code": "2514-8",
              "system": "http://loinc.org",
              "display": "Ketones [Presence] in Urine by Test strip"
            }
          ],
          "text": "Ketones [Presence] in Urine by Test strip"
        },
        "valueQuantity": {
          "system": "http://unitsofmeasure.org",
          "value": 1,
          "unit": "{presence}",
          "code": "{presence}"
        },
        "referenceRange": [
          {
            "low": {
              "value": 0.5,
              "code": "mg/dL",
              "system": "http://unitsofmeasure.org"
            }
          },
          {
            "high": {
              "value": 4,
              "code": "mg/dL",
              "system": "http://unitsofmeasure.org"
            }
          }
        ],
        "text": {
          "status": "generated",
          "div": "<div xmlns=\"http://www.w3.org/1999/xhtml\"><table class=\"hl7__eu__lab__report\"><tr><th>Test</th><th>01-Jun-2017</th><th>Reference&#xA0;Range</th><th>Unit</th></tr><tr><td>Ketones [Presence] in Urine by Test strip</td><td>1.0</td><td>0.5 - 4</td><td></td><td>{presence}</td></tr></table></div>"
        },
        "status": "final",
        "subject": {
          "reference": "urn:uuid:36ad9e0c-15e7-4fc6-b11e-df2560297fae",
          "display": "Magdolna Balog"
        },
        "effectiveDateTime": "2017-06-01T19:52:39Z",
        "specimen": {
          "reference": "urn:uuid:5130593a-0631-4952-b8e4-e45cf0b364fb"
        }
      }
    },
    {
      "fullUrl": "urn:uuid:a6664cde-2f3e-472e-8159-1dee5feb6414",
      "resource": {
        "resourceType": "Observation",
        "id": "a6664cde-2f3e-472e-8159-1dee5feb6414",
        "meta": {
          "profile": [
            "http://hl7.eu/fhir/laboratory/StructureDefinition/Observation-resultslab-eu-lab"
          ]
        },
        "performer": [
          {
            "display": "The Central European Lab"
          }
        ],
        "category": [
          {
            "coding": [
              {
                "system": "http://terminology.hl7.org/CodeSystem/observation-category",
                "code": "laboratory"
              }
            ]
          }
        ],
        "code": {
          "coding": [
            {
              "code": "5811-5",
              "system": "http://loinc.org",
              "display": "Specific gravity of Urine by Test strip"
            }
          ],
          "text": "Specific gravity of Urine by Test strip"
        },
        "valueQuantity": {
          "system": "http://unitsofmeasure.org",
          "value": 1,
          "unit": "{SG}",
          "code": "{SG}"
        },
        "referenceRange": [
          {
            "low": {
              "value": 1.005,
              "code": "SG",
              "system": "http://unitsofmeasure.org"
            }
          },
          {
            "high": {
              "value": 1.03,
              "code": "SG",
              "system": "http://unitsofmeasure.org"
            }
          }
        ],
        "interpretation": [
          {
            "coding": [
              {
                "code": "L",
                "system": "http://terminology.hl7.org/CodeSystem/v3-ObservationInterpretation",
                "display": "Low"
              }
            ]
          }
        ],
        "text": {
          "status": "generated",
          "div": "<div xmlns=\"http://www.w3.org/1999/xhtml\"><table class=\"hl7__eu__lab__report\"><tr><th>Test</th><th>01-Jun-2017</th><th>Reference&#xA0;Range</th><th>Unit</th></tr><tr><td>Specific gravity of Urine by Test strip</td><td>1.0</td><td>1.005 - 1.03</td><td>L</td><td>{SG}</td></tr></table></div>"
        },
        "status": "final",
        "subject": {
          "reference": "urn:uuid:36ad9e0c-15e7-4fc6-b11e-df2560297fae",
          "display": "Magdolna Balog"
        },
        "effectiveDateTime": "2017-06-01T19:52:39Z",
        "specimen": {
          "reference": "urn:uuid:5130593a-0631-4952-b8e4-e45cf0b364fb"
        }
      }
    },
    {
      "fullUrl": "urn:uuid:ef7c408f-8ae1-4588-a2fe-e33dfb296bb4",
      "resource": {
        "resourceType": "Observation",
        "id": "ef7c408f-8ae1-4588-a2fe-e33dfb296bb4",
        "meta": {
          "profile": [
            "http://hl7.eu/fhir/laboratory/StructureDefinition/Observation-resultslab-eu-lab"
          ]
        },
        "performer": [
          {
            "display": "The Central European Lab"
          }
        ],
        "category": [
          {
            "coding": [
              {
                "system": "http://terminology.hl7.org/CodeSystem/observation-category",
                "code": "laboratory"
              }
            ]
          }
        ],
        "code": {
          "coding": [
            {
              "code": "5803-2",
              "system": "http://loinc.org",
              "display": "pH of Urine by Test strip"
            }
          ],
          "text": "pH of Urine by Test strip"
        },
        "valueQuantity": {
          "system": "http://unitsofmeasure.org",
          "value": 5.7,
          "unit": "[pH]",
          "code": "[pH]"
        },
        "referenceRange": [
          {
            "low": {
              "value": 4.5,
              "code": "pH",
              "system": "http://unitsofmeasure.org"
            }
          },
          {
            "high": {
              "value": 7.5,
              "code": "pH",
              "system": "http://unitsofmeasure.org"
            }
          }
        ],
        "text": {
          "status": "generated",
          "div": "<div xmlns=\"http://www.w3.org/1999/xhtml\"><table class=\"hl7__eu__lab__report\"><tr><th>Test</th><th>01-Jun-2017</th><th>Reference&#xA0;Range</th><th>Unit</th></tr><tr><td>pH of Urine by Test strip</td><td>5.7</td><td>4.5 - 7.5</td><td></td><td>[pH]</td></tr></table></div>"
        },
        "status": "final",
        "subject": {
          "reference": "urn:uuid:36ad9e0c-15e7-4fc6-b11e-df2560297fae",
          "display": "Magdolna Balog"
        },
        "effectiveDateTime": "2017-06-01T19:52:39Z",
        "specimen": {
          "reference": "urn:uuid:5130593a-0631-4952-b8e4-e45cf0b364fb"
        }
      }
    },
    {
      "fullUrl": "urn:uuid:4bfbb0ad-62e2-45a5-85de-1c484a7cdce7",
      "resource": {
        "resourceType": "Observation",
        "id": "4bfbb0ad-62e2-45a5-85de-1c484a7cdce7",
        "meta": {
          "profile": [
            "http://hl7.eu/fhir/laboratory/StructureDefinition/Observation-resultslab-eu-lab"
          ]
        },
        "performer": [
          {
            "display": "The Central European Lab"
          }
        ],
        "category": [
          {
            "coding": [
              {
                "system": "http://terminology.hl7.org/CodeSystem/observation-category",
                "code": "laboratory"
              }
            ]
          }
        ],
        "code": {
          "coding": [
            {
              "code": "20454-5",
              "system": "http://loinc.org",
              "display": "Protein [Presence] in Urine by Test strip"
            }
          ],
          "text": "Protein [Presence] in Urine by Test strip"
        },
        "valueQuantity": {
          "system": "http://unitsofmeasure.org",
          "value": 1,
          "unit": "{presence}",
          "code": "{presence}"
        },
        "referenceRange": [
          {
            "low": {
              "value": 0,
              "code": "mg/dL",
              "system": "http://unitsofmeasure.org"
            }
          },
          {
            "high": {
              "value": 0,
              "code": "mg/dL",
              "system": "http://unitsofmeasure.org"
            }
          }
        ],
        "interpretation": [
          {
            "coding": [
              {
                "code": "H",
                "system": "http://terminology.hl7.org/CodeSystem/v3-ObservationInterpretation",
                "display": "High"
              }
            ]
          }
        ],
        "text": {
          "status": "generated",
          "div": "<div xmlns=\"http://www.w3.org/1999/xhtml\"><table class=\"hl7__eu__lab__report\"><tr><th>Test</th><th>01-Jun-2017</th><th>Reference&#xA0;Range</th><th>Unit</th></tr><tr><td>Protein [Presence] in Urine by Test strip</td><td>1.0</td><td>0 - 0</td><td>H</td><td>{presence}</td></tr></table></div>"
        },
        "status": "final",
        "subject": {
          "reference": "urn:uuid:36ad9e0c-15e7-4fc6-b11e-df2560297fae",
          "display": "Magdolna Balog"
        },
        "effectiveDateTime": "2017-06-01T19:52:39Z",
        "specimen": {
          "reference": "urn:uuid:5130593a-0631-4952-b8e4-e45cf0b364fb"
        }
      }
    },
    {
      "fullUrl": "urn:uuid:47d77316-a673-43fa-86a7-9dd1be970af9",
      "resource": {
        "resourceType": "Observation",
        "id": "47d77316-a673-43fa-86a7-9dd1be970af9",
        "meta": {
          "profile": [
            "http://hl7.eu/fhir/laboratory/StructureDefinition/Observation-resultslab-eu-lab"
          ]
        },
        "performer": [
          {
            "display": "The Central European Lab"
          }
        ],
        "category": [
          {
            "coding": [
              {
                "system": "http://terminology.hl7.org/CodeSystem/observation-category",
                "code": "laboratory"
              }
            ]
          }
        ],
        "code": {
          "coding": [
            {
              "code": "5802-4",
              "system": "http://loinc.org",
              "display": "Nitrite [Presence] in Urine by Test strip"
            }
          ],
          "text": "Nitrite [Presence] in Urine by Test strip"
        },
        "valueQuantity": {
          "system": "http://unitsofmeasure.org",
          "value": 1,
          "unit": "{presence}",
          "code": "{presence}"
        },
        "referenceRange": [
          {
            "low": {
              "value": 0,
              "code": "Presence",
              "system": "http://unitsofmeasure.org"
            }
          },
          {
            "high": {
              "value": 1,
              "code": "Presence",
              "system": "http://unitsofmeasure.org"
            }
          }
        ],
        "text": {
          "status": "generated",
          "div": "<div xmlns=\"http://www.w3.org/1999/xhtml\"><table class=\"hl7__eu__lab__report\"><tr><th>Test</th><th>01-Jun-2017</th><th>Reference&#xA0;Range</th><th>Unit</th></tr><tr><td>Nitrite [Presence] in Urine by Test strip</td><td>1.0</td><td>0 - 1</td><td></td><td>{presence}</td></tr></table></div>"
        },
        "status": "final",
        "subject": {
          "reference": "urn:uuid:36ad9e0c-15e7-4fc6-b11e-df2560297fae",
          "display": "Magdolna Balog"
        },
        "effectiveDateTime": "2017-06-01T19:52:39Z",
        "specimen": {
          "reference": "urn:uuid:5130593a-0631-4952-b8e4-e45cf0b364fb"
        }
      }
    },
    {
      "fullUrl": "urn:uuid:dc508245-6fe9-42b2-8794-8db7843e567c",
      "resource": {
        "resourceType": "Observation",
        "id": "dc508245-6fe9-42b2-8794-8db7843e567c",
        "meta": {
          "profile": [
            "http://hl7.eu/fhir/laboratory/StructureDefinition/Observation-resultslab-eu-lab"
          ]
        },
        "performer": [
          {
            "display": "The Central European Lab"
          }
        ],
        "category": [
          {
            "coding": [
              {
                "system": "http://terminology.hl7.org/CodeSystem/observation-category",
                "code": "laboratory"
              }
            ]
          }
        ],
        "code": {
          "coding": [
            {
              "code": "5794-3",
              "system": "http://loinc.org",
              "display": "Hemoglobin [Presence] in Urine by Test strip"
            }
          ],
          "text": "Hemoglobin [Presence] in Urine by Test strip"
        },
        "valueQuantity": {
          "system": "http://unitsofmeasure.org",
          "value": 0,
          "unit": "{presence}",
          "code": "{presence}"
        },
        "referenceRange": [
          {
            "low": {
              "value": 0,
              "code": "Presence",
              "system": "http://unitsofmeasure.org"
            }
          },
          {
            "high": {
              "value": 0,
              "code": "Presence",
              "system": "http://unitsofmeasure.org"
            }
          }
        ],
        "text": {
          "status": "generated",
          "div": "<div xmlns=\"http://www.w3.org/1999/xhtml\"><table class=\"hl7__eu__lab__report\"><tr><th>Test</th><th>01-Jun-2017</th><th>Reference&#xA0;Range</th><th>Unit</th></tr><tr><td>Hemoglobin [Presence] in Urine by Test strip</td><td>0.0</td><td>0 - 0</td><td></td><td>{presence}</td></tr></table></div>"
        },
        "status": "final",
        "subject": {
          "reference": "urn:uuid:36ad9e0c-15e7-4fc6-b11e-df2560297fae",
          "display": "Magdolna Balog"
        },
        "effectiveDateTime": "2017-06-01T19:52:39Z",
        "specimen": {
          "reference": "urn:uuid:5130593a-0631-4952-b8e4-e45cf0b364fb"
        }
      }
    },
    {
      "fullUrl": "urn:uuid:e139aeca-5716-4cd6-ad3c-c5891707cff4",
      "resource": {
        "resourceType": "Observation",
        "id": "e139aeca-5716-4cd6-ad3c-c5891707cff4",
        "meta": {
          "profile": [
            "http://hl7.eu/fhir/laboratory/StructureDefinition/Observation-resultslab-eu-lab"
          ]
        },
        "performer": [
          {
            "display": "The Central European Lab"
          }
        ],
        "category": [
          {
            "coding": [
              {
                "system": "http://terminology.hl7.org/CodeSystem/observation-category",
                "code": "laboratory"
              }
            ]
          }
        ],
        "code": {
          "coding": [
            {
              "code": "5799-2",
              "system": "http://loinc.org",
              "display": "Leukocyte esterase [Presence] in Urine by Test strip"
            }
          ],
          "text": "Leukocyte esterase [Presence] in Urine by Test strip"
        },
        "valueQuantity": {
          "system": "http://unitsofmeasure.org",
          "value": 0,
          "unit": "{presence}",
          "code": "{presence}"
        },
        "referenceRange": [
          {
            "low": {
              "value": 0,
              "code": "presence",
              "system": "http://unitsofmeasure.org"
            }
          },
          {
            "high": {
              "value": 0,
              "code": "presence",
              "system": "http://unitsofmeasure.org"
            }
          }
        ],
        "text": {
          "status": "generated",
          "div": "<div xmlns=\"http://www.w3.org/1999/xhtml\"><table class=\"hl7__eu__lab__report\"><tr><th>Test</th><th>01-Jun-2017</th><th>Reference&#xA0;Range</th><th>Unit</th></tr><tr><td>Leukocyte esterase [Presence] in Urine by Test strip</td><td>0.0</td><td>0 - 0</td><td></td><td>{presence}</td></tr></table></div>"
        },
        "status": "final",
        "subject": {
          "reference": "urn:uuid:36ad9e0c-15e7-4fc6-b11e-df2560297fae",
          "display": "Magdolna Balog"
        },
        "effectiveDateTime": "2017-06-01T19:52:39Z",
        "specimen": {
          "reference": "urn:uuid:5130593a-0631-4952-b8e4-e45cf0b364fb"
        }
      }
    },
    {
      "fullUrl": "urn:uuid:14a73138-bc2d-4b7a-8d26-991f1bbae607",
      "resource": {
        "resourceType": "Device",
        "id": "14a73138-bc2d-4b7a-8d26-991f1bbae607",
        "deviceName": [
          {
            "name": "SYNDERAI Synthetic Generator",
            "type": "manufacturer-name"
          }
        ],
        "version": [
          {
            "value": "5.0"
          }
        ],
        "text": {
          "status": "generated",
          "div": "<div xmlns=\"http://www.w3.org/1999/xhtml\">SYNDERAI Synthetic Generator v5.0</div>"
        },
        "status": "active\"",
        "distinctIdentifier": "synderai-generator-50",
        "manufacturer": "SYNDERAI Project"
      }
    },
    {
      "fullUrl": "urn:uuid:3f4a84eb-1f29-4748-baa6-30067648850a",
      "resource": {
        "resourceType": "Provenance",
        "id": "3f4a84eb-1f29-4748-baa6-30067648850a",
        "target": [
          {
            "reference": "Patient/36ad9e0c-15e7-4fc6-b11e-df2560297fae"
          },
          {
            "reference": "Bundle/b5bdc465-4185-4cb4-8f73-967b7bf312b2"
          },
          {
            "reference": "Composition/85eba3c0-a653-4d0f-944b-60c2d863846d"
          },
          {
            "reference": "PractitionerRole/24ad1bce-4ec1-426f-b9e4-a94e47305a35"
          },
          {
            "reference": "Practitioner/de3e899f-ad68-4d74-9321-2b0093b57581"
          },
          {
            "reference": "PractitionerRole/4a9d8d6f-f827-45cd-9874-e9981d904211"
          },
          {
            "reference": "Organization/4c192426-79fb-4efb-a071-99aa61fada99"
          }
        ],
        "activity": {
          "text": "Synthetic Example Data Generation"
        },
        "policy": [
          "https://synderai.net/synderai-synthetic-data-policy"
        ],
        "agent": [
          {
            "type": {
              "text": "author"
            },
            "who": {
              "reference": "Device/14a73138-bc2d-4b7a-8d26-991f1bbae607"
            }
          }
        ],
        "reason": [
          {
            "text": "Interoperability Testing and Training (non-clinical use)"
          }
        ],
        "text": {
          "status": "generated",
          "div": "<div xmlns=\"http://www.w3.org/1999/xhtml\">Provenance for SYNDERAI Synthetic Example Data Resource</div>"
        },
        "recorded": "2017-06-01T21:52:39Z"
      }
    },
    {
      "fullUrl": "urn:uuid:24ad1bce-4ec1-426f-b9e4-a94e47305a35",
      "resource": {
        "resourceType": "PractitionerRole",
        "id": "24ad1bce-4ec1-426f-b9e4-a94e47305a35",
        "meta": {
          "profile": [
            "http://hl7.eu/fhir/base/StructureDefinition/practitionerRole-eu"
          ]
        },
        "text": {
          "status": "generated",
          "div": "<div xmlns=\"http://www.w3.org/1999/xhtml\">Laboratory Role Id: 24ad1bce-4ec1-426f-b9e4-a94e47305a35</div>"
        },
        "practitioner": {
          "reference": "urn:uuid:de3e899f-ad68-4d74-9321-2b0093b57581"
        }
      }
    },
    {
      "fullUrl": "urn:uuid:de3e899f-ad68-4d74-9321-2b0093b57581",
      "resource": {
        "resourceType": "Practitioner",
        "id": "de3e899f-ad68-4d74-9321-2b0093b57581",
        "meta": {
          "profile": [
            "http://hl7.eu/fhir/base/StructureDefinition/practitioner-eu"
          ]
        },
        "identifier": [
          {
            "assigner": {
              "display": "HL7 Europe"
            },
            "system": "urn:oid:2.16.840.1.113883.2.51.999",
            "value": "b9bf71ab-39f6-4ec3-96bc-ff9fac0dbcdf"
          }
        ],
        "name": [
          {
            "prefix": [
              "dr"
            ],
            "given": [
              "Ex"
            ],
            "family": "Ample"
          }
        ],
        "address": [
          {
            "line": [
              "Laboratoire Central Européenne",
              "Boulevard du Jardin Botanique 32"
            ],
            "postalCode": "1000",
            "city": "Brussels",
            "country": "Belgium"
          }
        ],
        "text": {
          "status": "generated",
          "div": "<div xmlns=\"http://www.w3.org/1999/xhtml\">Laboratory: Laboratoire Central Européenne, 1000 Brussels, Belgium</div>"
        }
      }
    }
  ],
  "type": "document",
  "timestamp": "2017-06-01T21:52:39Z"
}
