{
  "resourceType": "Bundle",
  "id": "86a6dee7-b225-4c0f-91b3-a1473ff6ad76",
  "meta": {
    "profile": [
      "http://hl7.eu/fhir/laboratory/StructureDefinition/Bundle-eu-lab"
    ]
  },
  "identifier": {
    "assigner": {
      "display": "HL7 Europe"
    },
    "system": "urn:oid:2.16.840.1.113883.2.51.999",
    "value": "0853a0f5-90fe-42a9-b302-8f6d8591ec7d"
  },
  "entry": [
    {
      "fullUrl": "urn:uuid:f442738b-2bb7-4925-9a28-5052f7840d48",
      "resource": {
        "resourceType": "Composition",
        "id": "f442738b-2bb7-4925-9a28-5052f7840d48",
        "meta": {
          "profile": [
            "http://hl7.eu/fhir/laboratory/StructureDefinition/Composition-eu-lab"
          ]
        },
        "identifier": {
          "assigner": {
            "display": "HL7 Europe"
          },
          "system": "urn:oid:2.16.840.1.113883.2.51.999",
          "value": "2c81ef9c-8c2c-4e1a-88f5-db8306b489c9"
        },
        "author": [
          {
            "reference": "urn:uuid:61b1ab5e-274e-42ed-bc80-09bdf3d967cd"
          }
        ],
        "category": [
          {
            "coding": [
              {
                "code": "26436-6",
                "system": "http://loinc.org",
                "display": "Laboratory studies (set)"
              }
            ]
          }
        ],
        "type": {
          "coding": [
            {
              "code": "11502-2",
              "system": "http://loinc.org",
              "display": "Laboratory report"
            }
          ],
          "text": "Laboratory Report"
        },
        "section": [
          {
            "code": {
              "coding": [
                {
                  "code": "26436-6",
                  "system": "http://loinc.org",
                  "display": "Laboratory studies (set)"
                }
              ],
              "text": "Laboratory studies"
            },
            "section": [
              {
                "code": {
                  "coding": [
                    {
                      "code": "$18723-7",
                      "system": "http://loinc.org",
                      "display": "Hematology studies (set)"
                    }
                  ],
                  "text": "Hematology"
                },
                "entry": [
                  {
                    "reference": "urn:uuid:3017b82a-9cf5-4462-a17a-5d7ec68b2d20"
                  },
                  {
                    "reference": "urn:uuid:04791a94-28e1-4166-ab72-6371147df272"
                  },
                  {
                    "reference": "urn:uuid:36f16cbe-ef16-4c3c-a26c-83ed45a38370"
                  },
                  {
                    "reference": "urn:uuid:cdae46df-771c-4733-a6ac-5e696fb4c49d"
                  },
                  {
                    "reference": "urn:uuid:f43c64a4-57cb-4c02-b8cb-1968a5d87926"
                  },
                  {
                    "reference": "urn:uuid:464f7a44-2054-4018-a425-6e722021bfed"
                  },
                  {
                    "reference": "urn:uuid:7fb53ef7-59a2-4b43-a972-8f54c171ba23"
                  },
                  {
                    "reference": "urn:uuid:61b2e340-7fdc-4a09-9606-fae97b67c9ad"
                  },
                  {
                    "reference": "urn:uuid:d2cf0341-621c-409a-b963-767a5be4e094"
                  },
                  {
                    "reference": "urn:uuid:2e8b12d8-e618-47c1-b0dd-c207b993eeb0"
                  },
                  {
                    "reference": "urn:uuid:7f57dbaa-6dd0-4303-aaa0-8d5c056e0bd9"
                  }
                ],
                "text": {
                  "status": "generated",
                  "div": "<div xmlns=\"http://www.w3.org/1999/xhtml\"><h3>Hematology</h3><table class=\"hl7__eu__lab__report\"><thead><tr><th>Test</th><th>08-SEP-2020</th><th>Reference&#xA0;Range</th><th>Unit</th></tr></thead><tbody><tr><td>Leukocytes [#/volume] in Blood by Automated count</td><td>7.2</td><td>3.5 - 10.5</td><td>10*3/uL</td></tr><tr><td>Erythrocytes [#/volume] in Blood by Automated count</td><td>4.4</td><td>4.2 - 6.2</td><td>10*6/uL</td></tr><tr><td>Hemoglobin [Mass/volume] in Blood</td><td><strong>12.9 L</strong></td><td>13.5 - 17.5</td><td>g/dL</td></tr><tr><td>Hematocrit [Volume Fraction] of Blood by Automated count</td><td>44.6</td><td>37 - 52</td><td>%</td></tr><tr><td>MCV [Entitic volume] by Automated count</td><td>88.8</td><td>80 - 105</td><td>fL</td></tr><tr><td>MCH [Entitic mass] by Automated count</td><td>28.5</td><td>27 - 33</td><td>pg</td></tr><tr><td>MCHC [Mass/volume] by Automated count</td><td>35.0</td><td>31 - 36</td><td>g/dL</td></tr><tr><td>Erythrocyte distribution width [Entitic volume] by Automated count</td><td>40.9</td><td>36 - 55</td><td>fL</td></tr><tr><td>Platelets [#/volume] in Blood by Automated count</td><td>183.4</td><td>150 - 350</td><td>10*3/uL</td></tr><tr><td>Platelet distribution width [Entitic volume] in Blood by Automated count</td><td>214.3</td><td>144 - 366</td><td>fL</td></tr><tr><td>Platelet mean volume [Entitic volume] in Blood by Automated count</td><td>10.1</td><td>7.2 - 13.5</td><td>fL</td></tr></tbody></table></div>"
                },
                "title": "Hematology"
              },
              {
                "code": {
                  "coding": [
                    {
                      "code": "$18719-5",
                      "system": "http://loinc.org",
                      "display": "Chemistry studies (set)"
                    }
                  ],
                  "text": "Chemistry"
                },
                "entry": [
                  {
                    "reference": "urn:uuid:589f035c-cf9a-460c-837b-7aa34a7b9e59"
                  },
                  {
                    "reference": "urn:uuid:e3232ce2-fc25-46d8-b66b-00efac28e349"
                  },
                  {
                    "reference": "urn:uuid:0e67cef4-1a74-41a0-8af0-098e4038468b"
                  },
                  {
                    "reference": "urn:uuid:a11aeb15-88e6-4ab8-a2ff-bf9e3c945626"
                  },
                  {
                    "reference": "urn:uuid:1f13282f-ee07-4970-a208-5495198fe467"
                  },
                  {
                    "reference": "urn:uuid:b27886dd-f310-4870-b6bc-401d05e1b9e4"
                  },
                  {
                    "reference": "urn:uuid:90d867a4-2148-4ea4-b0ba-68a4032e04b6"
                  },
                  {
                    "reference": "urn:uuid:15112a8d-c07d-4ab0-95e9-7d3f89be6341"
                  },
                  {
                    "reference": "urn:uuid:ee292693-83fd-4bae-a17f-958456e9495f"
                  }
                ],
                "text": {
                  "status": "generated",
                  "div": "<div xmlns=\"http://www.w3.org/1999/xhtml\"><h3>Chemistry</h3><table class=\"hl7__eu__lab__report\"><thead><tr><th>Test</th><th>08-SEP-2020</th><th>Reference&#xA0;Range</th><th>Unit</th></tr></thead><tbody><tr><td>Hemoglobin A1c/Hemoglobin.total in Blood</td><td>6.2</td><td>4.5 - 6.4</td><td>%</td></tr><tr><td>Glucose [Mass/volume] in Blood</td><td>81.0</td><td>70 - 99</td><td>mg/dL</td></tr><tr><td>Urea nitrogen [Mass/volume] in Blood</td><td>17.2</td><td>7 - 20</td><td>mg/dL</td></tr><tr><td>Creatinine [Mass/volume] in Blood</td><td>1.0</td><td>0.9 - 1.3</td><td>mg/dL</td></tr><tr><td>Calcium [Mass/volume] in Blood</td><td>9.5</td><td>8.6 - 10.2</td><td>mg/dL</td></tr><tr><td>Sodium [Moles/volume] in Blood</td><td>140.5</td><td>135 - 145</td><td>mmol/L</td></tr><tr><td>Potassium [Moles/volume] in Blood</td><td>4.9</td><td>3.5 - 5.1</td><td>mmol/L</td></tr><tr><td>Chloride [Moles/volume] in Blood</td><td><strong>110.6 H</strong></td><td>98 - 108</td><td>mmol/L</td></tr><tr><td>Carbon dioxide, total [Moles/volume] in Blood</td><td>25.2</td><td>22 - 29</td><td>mmol/L</td></tr></tbody></table></div>"
                },
                "title": "Chemistry"
              }
            ],
            "title": "Laboratory Report"
          },
          {
            "text": {
              "status": "generated",
              "div": "<div xmlns=\"http://www.w3.org/1999/xhtml\"><h3>Annotation</h3><table class=\"hl7__eu__lab__report\"><tr><th>Conclusion and Recommendations based on this report and previous findings known to us</th></tr><tr><td>Laboratory results are largely within normal limits. Mild anemia is present (hemoglobin slightly below normal), and chloride is mildly elevated; these findings may warrant clinical correlation but are not acutely alarming. Glucose control (HbA1c) is at the upper end of normal. Renal function, electrolytes, and blood counts are otherwise unremarkable. No urgent laboratory concerns identified.</td></tr></table></div>"
            },
            "code": {
              "coding": [
                {
                  "system": "http://loinc.org",
                  "code": "48767-8",
                  "display": "Annotation comment"
                }
              ]
            },
            "title": "Annotation comment"
          }
        ],
        "status": "final",
        "subject": {
          "reference": "urn:uuid:a6de3b77-3a91-4b25-a5e6-507dbcbc3268",
          "display": "Khalid Nilsson"
        },
        "date": "2020-09-08T01:04:23Z",
        "title": "Laboratory Report",
        "confidentiality": "N"
      }
    },
    {
      "fullUrl": "urn:uuid:53cf9785-f9ab-4399-8675-b66248e89598",
      "resource": {
        "resourceType": "DiagnosticReport",
        "id": "53cf9785-f9ab-4399-8675-b66248e89598",
        "meta": {
          "profile": [
            "http://hl7.eu/fhir/laboratory/StructureDefinition/DiagnosticReport-eu-lab"
          ]
        },
        "identifier": [
          {
            "assigner": {
              "display": "HL7 Europe"
            },
            "system": "urn:oid:2.16.840.1.113883.2.51.999",
            "value": "9395ff13-a56e-446b-a3f2-74b9e1fcd935"
          }
        ],
        "extension": [
          {
            "url": "http://hl7.org/fhir/5.0/StructureDefinition/extension-DiagnosticReport.composition",
            "valueReference": {
              "reference": "urn:uuid:2c81ef9c-8c2c-4e1a-88f5-db8306b489c9"
            }
          }
        ],
        "category": [
          {
            "coding": [
              {
                "code": "26436-6",
                "system": "http://loinc.org",
                "display": "Laboratory studies (set)"
              }
            ]
          }
        ],
        "specimen": [
          {
            "reference": "urn:uuid:da7012e3-d124-45fc-987d-8b9cbef18881"
          },
          {
            "reference": "urn:uuid:da7012e3-d124-45fc-987d-8b9cbef18881"
          }
        ],
        "result": [
          {
            "reference": "urn:uuid:589f035c-cf9a-460c-837b-7aa34a7b9e59"
          },
          {
            "reference": "urn:uuid:e3232ce2-fc25-46d8-b66b-00efac28e349"
          },
          {
            "reference": "urn:uuid:0e67cef4-1a74-41a0-8af0-098e4038468b"
          },
          {
            "reference": "urn:uuid:a11aeb15-88e6-4ab8-a2ff-bf9e3c945626"
          },
          {
            "reference": "urn:uuid:1f13282f-ee07-4970-a208-5495198fe467"
          },
          {
            "reference": "urn:uuid:b27886dd-f310-4870-b6bc-401d05e1b9e4"
          },
          {
            "reference": "urn:uuid:90d867a4-2148-4ea4-b0ba-68a4032e04b6"
          },
          {
            "reference": "urn:uuid:15112a8d-c07d-4ab0-95e9-7d3f89be6341"
          },
          {
            "reference": "urn:uuid:ee292693-83fd-4bae-a17f-958456e9495f"
          },
          {
            "reference": "urn:uuid:3017b82a-9cf5-4462-a17a-5d7ec68b2d20"
          },
          {
            "reference": "urn:uuid:04791a94-28e1-4166-ab72-6371147df272"
          },
          {
            "reference": "urn:uuid:36f16cbe-ef16-4c3c-a26c-83ed45a38370"
          },
          {
            "reference": "urn:uuid:cdae46df-771c-4733-a6ac-5e696fb4c49d"
          },
          {
            "reference": "urn:uuid:f43c64a4-57cb-4c02-b8cb-1968a5d87926"
          },
          {
            "reference": "urn:uuid:464f7a44-2054-4018-a425-6e722021bfed"
          },
          {
            "reference": "urn:uuid:7fb53ef7-59a2-4b43-a972-8f54c171ba23"
          },
          {
            "reference": "urn:uuid:61b2e340-7fdc-4a09-9606-fae97b67c9ad"
          },
          {
            "reference": "urn:uuid:d2cf0341-621c-409a-b963-767a5be4e094"
          },
          {
            "reference": "urn:uuid:2e8b12d8-e618-47c1-b0dd-c207b993eeb0"
          },
          {
            "reference": "urn:uuid:7f57dbaa-6dd0-4303-aaa0-8d5c056e0bd9"
          }
        ],
        "status": "registered",
        "code": {
          "coding": [
            {
              "code": "11502-2",
              "system": "http://loinc.org",
              "display": "Laboratory report"
            }
          ]
        },
        "subject": {
          "reference": "urn:uuid:a6de3b77-3a91-4b25-a5e6-507dbcbc3268",
          "display": "Khalid Nilsson"
        }
      }
    },
    {
      "fullUrl": "urn:uuid:a6de3b77-3a91-4b25-a5e6-507dbcbc3268",
      "resource": {
        "resourceType": "Patient",
        "id": "a6de3b77-3a91-4b25-a5e6-507dbcbc3268",
        "meta": {
          "security": [
            {
              "system": "http://terminology.hl7.org/CodeSystem/v3-ActReason",
              "code": "HTEST"
            },
            {
              "system": "http://terminology.hl7.org/CodeSystem/v3-ActReason",
              "code": "TRAIN"
            }
          ],
          "tag": [
            {
              "system": "https://synderai.net/fhir/CodeSystem/tags",
              "code": "synthetic",
              "display": "SYNDERAI Synthetic data"
            }
          ],
          "profile": [
            "http://hl7.eu/fhir/base/StructureDefinition/patient-eu-core"
          ]
        },
        "identifier": [
          {
            "type": {
              "coding": [
                {
                  "code": "PT",
                  "system": "http://terminology.hl7.org/CodeSystem/v2-0203"
                }
              ]
            },
            "system": "http://ec.europa.eu/identifier/eci",
            "value": "8339-594203-6"
          },
          {
            "type": {
              "coding": [
                {
                  "code": "MR",
                  "system": "http://terminology.hl7.org/CodeSystem/v2-0203"
                }
              ]
            },
            "system": "http://local.setting.eu/identifier",
            "value": "db9680f4-3d2c-0551-cb1c-61573f88f405"
          }
        ],
        "name": [
          {
            "family": "Nilsson"
          },
          {
            "given": [
              "Khalid"
            ]
          },
          {
            "text": "Khalid Nilsson"
          }
        ],
        "address": [
          {
            "line": [
              "Gengränd 482"
            ],
            "use": "home",
            "type": "physical",
            "postalCode": "691 31",
            "city": "Karlskoga",
            "country": "Sweden"
          }
        ],
        "telecom": [
          {
            "system": "phone",
            "value": "+46 (0)8 888 657 95"
          }
        ],
        "extension": [
          {
            "url": "http://hl7.org/fhir/StructureDefinition/patient-nationality",
            "valueCodeableConcept": {
              "coding": [
                {
                  "code": "SE",
                  "system": "http://hl7.org/fhir/ValueSet/country"
                }
              ]
            }
          }
        ],
        "text": {
          "status": "generated",
          "div": "<div xmlns=\"http://www.w3.org/1999/xhtml\"><table class=\"hl7__ips\"><tr><td>Khalid Nilsson</td><td>male</td><td>10-Apr-1952</td></tr></table></div>"
        },
        "gender": "male",
        "birthDate": "1952-04-10"
      }
    },
    {
      "fullUrl": "urn:uuid:9bb4cb7a-e087-49fa-8cad-4880b8523463",
      "resource": {
        "resourceType": "ServiceRequest",
        "id": "9bb4cb7a-e087-49fa-8cad-4880b8523463",
        "meta": {
          "profile": [
            "http://hl7.eu/fhir/laboratory/StructureDefinition/ServiceRequest-eu-lab"
          ]
        },
        "identifier": [
          {
            "system": "http://example.org",
            "value": "b532553e-95d0-44e4-a1ae-e87bdef2973b"
          }
        ],
        "specimen": [
          {
            "reference": "urn:uuid:da7012e3-d124-45fc-987d-8b9cbef18881"
          }
        ],
        "reasonCode": [
          {
            "coding": [
              {
                "code": "64859006",
                "system": "http://snomed.info/sct",
                "display": "Osteoporosis"
              }
            ]
          },
          {
            "coding": [
              {
                "code": "196416002",
                "system": "http://snomed.info/sct",
                "display": "Impacted molars"
              }
            ]
          },
          {
            "coding": [
              {
                "code": "414545008",
                "system": "http://snomed.info/sct",
                "display": "Ischemic heart disease"
              }
            ]
          },
          {
            "coding": [
              {
                "code": "40055000",
                "system": "http://snomed.info/sct",
                "display": "Chronic sinusitis"
              }
            ]
          },
          {
            "coding": [
              {
                "code": "197927001",
                "system": "http://snomed.info/sct",
                "display": "Recurrent urinary tract infection"
              }
            ]
          },
          {
            "coding": [
              {
                "code": "15777000",
                "system": "http://snomed.info/sct",
                "display": "Prediabetes"
              }
            ]
          },
          {
            "coding": [
              {
                "code": "271737000",
                "system": "http://snomed.info/sct",
                "display": "Anemia"
              }
            ]
          }
        ],
        "status": "active",
        "intent": "order",
        "code": {
          "coding": [
            {
              "code": "108252007",
              "system": "http://snomed.info/sct",
              "display": "Laboratory procedure"
            }
          ]
        },
        "subject": {
          "reference": "urn:uuid:a6de3b77-3a91-4b25-a5e6-507dbcbc3268",
          "display": "Khalid Nilsson"
        },
        "requester": {
          "reference": "urn:uuid:458859b1-7168-49f2-9c19-c3766c8f6d25"
        }
      }
    },
    {
      "fullUrl": "urn:uuid:458859b1-7168-49f2-9c19-c3766c8f6d25",
      "resource": {
        "resourceType": "PractitionerRole",
        "id": "458859b1-7168-49f2-9c19-c3766c8f6d25",
        "meta": {
          "profile": [
            "http://hl7.eu/fhir/base/StructureDefinition/practitionerRole-eu"
          ]
        },
        "text": {
          "status": "generated",
          "div": "<div xmlns=\"http://www.w3.org/1999/xhtml\">Provider Role Id: 458859b1-7168-49f2-9c19-c3766c8f6d25</div>"
        },
        "organization": {
          "reference": "urn:uuid:89eb4435-1b0b-418f-b08c-b5711576309a"
        }
      }
    },
    {
      "fullUrl": "urn:uuid:89eb4435-1b0b-418f-b08c-b5711576309a",
      "resource": {
        "resourceType": "Organization",
        "id": "89eb4435-1b0b-418f-b08c-b5711576309a",
        "meta": {
          "profile": [
            "http://hl7.eu/fhir/base/StructureDefinition/organization-eu"
          ]
        },
        "identifier": [
          {
            "assigner": {
              "display": "HL7 Europe"
            },
            "system": "urn:oid:2.16.840.1.113883.2.51.999",
            "value": "a88ecbd5-8b9a-42ad-9f04-06f8ec65ab83"
          }
        ],
        "address": [
          {
            "city": "Karlskoga",
            "postalCode": "691 31",
            "country": "Sweden"
          }
        ],
        "text": {
          "status": "generated",
          "div": "<div xmlns=\"http://www.w3.org/1999/xhtml\">Provider Organization: Karlskoga Lasarett</div>"
        },
        "name": "Karlskoga Lasarett"
      }
    },
    {
      "fullUrl": "urn:uuid:da7012e3-d124-45fc-987d-8b9cbef18881",
      "resource": {
        "resourceType": "Specimen",
        "id": "da7012e3-d124-45fc-987d-8b9cbef18881",
        "meta": {
          "profile": [
            "http://hl7.eu/fhir/laboratory/StructureDefinition/Specimen-eu-lab"
          ]
        },
        "collection": {
          "collectedDateTime": "2020-09-07"
        },
        "text": {
          "status": "generated",
          "div": "<div xmlns=\"http://www.w3.org/1999/xhtml\"><table class=\"hl7__eu__lab__report\"><tr><th>Specimen</th><th>Collection Date</th></tr><tr><td>Whole blood specimen (specimen)</td><td><span class=\"nb\">07-Sep-2020</span></td></tr></table></div>"
        },
        "type": {
          "coding": [
            {
              "code": "258580003",
              "system": "http://snomed.info/sct",
              "display": "Whole blood specimen (specimen)"
            }
          ]
        }
      }
    },
    {
      "fullUrl": "urn:uuid:da7012e3-d124-45fc-987d-8b9cbef18881",
      "resource": {
        "resourceType": "Specimen",
        "id": "da7012e3-d124-45fc-987d-8b9cbef18881",
        "meta": {
          "profile": [
            "http://hl7.eu/fhir/laboratory/StructureDefinition/Specimen-eu-lab"
          ]
        },
        "collection": {
          "collectedDateTime": "2020-09-07"
        },
        "text": {
          "status": "generated",
          "div": "<div xmlns=\"http://www.w3.org/1999/xhtml\"><table class=\"hl7__eu__lab__report\"><tr><th>Specimen</th><th>Collection Date</th></tr><tr><td>Whole blood specimen (specimen)</td><td><span class=\"nb\">07-Sep-2020</span></td></tr></table></div>"
        },
        "type": {
          "coding": [
            {
              "code": "258580003",
              "system": "http://snomed.info/sct",
              "display": "Whole blood specimen (specimen)"
            }
          ]
        }
      }
    },
    {
      "fullUrl": "urn:uuid:589f035c-cf9a-460c-837b-7aa34a7b9e59",
      "resource": {
        "resourceType": "Observation",
        "id": "589f035c-cf9a-460c-837b-7aa34a7b9e59",
        "meta": {
          "profile": [
            "http://hl7.eu/fhir/laboratory/StructureDefinition/Observation-resultslab-eu-lab"
          ]
        },
        "performer": [
          {
            "display": "The Central European Lab"
          }
        ],
        "category": [
          {
            "coding": [
              {
                "system": "http://terminology.hl7.org/CodeSystem/observation-category",
                "code": "laboratory"
              }
            ]
          }
        ],
        "code": {
          "coding": [
            {
              "code": "4548-4",
              "system": "http://loinc.org",
              "display": "Hemoglobin A1c/Hemoglobin.total in Blood"
            }
          ],
          "text": "Hemoglobin A1c/Hemoglobin.total in Blood"
        },
        "valueQuantity": {
          "system": "http://unitsofmeasure.org",
          "value": 6.2,
          "unit": "%",
          "code": "%"
        },
        "referenceRange": [
          {
            "low": {
              "value": 4.5,
              "code": "%",
              "system": "http://unitsofmeasure.org"
            }
          },
          {
            "high": {
              "value": 6.4,
              "code": "%",
              "system": "http://unitsofmeasure.org"
            }
          }
        ],
        "text": {
          "status": "generated",
          "div": "<div xmlns=\"http://www.w3.org/1999/xhtml\"><table class=\"hl7__eu__lab__report\"><tr><th>Test</th><th>08-Sep-2020</th><th>Reference&#xA0;Range</th><th>Unit</th></tr><tr><td>Hemoglobin A1c/Hemoglobin.total in Blood</td><td>6.2</td><td>4.5 - 6.4</td><td></td><td>%</td></tr></table></div>"
        },
        "status": "final",
        "subject": {
          "reference": "urn:uuid:a6de3b77-3a91-4b25-a5e6-507dbcbc3268",
          "display": "Khalid Nilsson"
        },
        "effectiveDateTime": "2020-09-07T23:04:23Z",
        "specimen": {
          "reference": "urn:uuid:da7012e3-d124-45fc-987d-8b9cbef18881"
        }
      }
    },
    {
      "fullUrl": "urn:uuid:e3232ce2-fc25-46d8-b66b-00efac28e349",
      "resource": {
        "resourceType": "Observation",
        "id": "e3232ce2-fc25-46d8-b66b-00efac28e349",
        "meta": {
          "profile": [
            "http://hl7.eu/fhir/laboratory/StructureDefinition/Observation-resultslab-eu-lab"
          ]
        },
        "performer": [
          {
            "display": "The Central European Lab"
          }
        ],
        "category": [
          {
            "coding": [
              {
                "system": "http://terminology.hl7.org/CodeSystem/observation-category",
                "code": "laboratory"
              }
            ]
          }
        ],
        "code": {
          "coding": [
            {
              "code": "2339-0",
              "system": "http://loinc.org",
              "display": "Glucose [Mass/volume] in Blood"
            }
          ],
          "text": "Glucose [Mass/volume] in Blood"
        },
        "valueQuantity": {
          "system": "http://unitsofmeasure.org",
          "value": 81,
          "unit": "mg/dL",
          "code": "mg/dL"
        },
        "referenceRange": [
          {
            "low": {
              "value": 70,
              "code": "mg/dL",
              "system": "http://unitsofmeasure.org"
            }
          },
          {
            "high": {
              "value": 99,
              "code": "mg/dL",
              "system": "http://unitsofmeasure.org"
            }
          }
        ],
        "text": {
          "status": "generated",
          "div": "<div xmlns=\"http://www.w3.org/1999/xhtml\"><table class=\"hl7__eu__lab__report\"><tr><th>Test</th><th>08-Sep-2020</th><th>Reference&#xA0;Range</th><th>Unit</th></tr><tr><td>Glucose [Mass/volume] in Blood</td><td>81.0</td><td>70 - 99</td><td></td><td>mg/dL</td></tr></table></div>"
        },
        "status": "final",
        "subject": {
          "reference": "urn:uuid:a6de3b77-3a91-4b25-a5e6-507dbcbc3268",
          "display": "Khalid Nilsson"
        },
        "effectiveDateTime": "2020-09-07T23:04:23Z",
        "specimen": {
          "reference": "urn:uuid:da7012e3-d124-45fc-987d-8b9cbef18881"
        }
      }
    },
    {
      "fullUrl": "urn:uuid:0e67cef4-1a74-41a0-8af0-098e4038468b",
      "resource": {
        "resourceType": "Observation",
        "id": "0e67cef4-1a74-41a0-8af0-098e4038468b",
        "meta": {
          "profile": [
            "http://hl7.eu/fhir/laboratory/StructureDefinition/Observation-resultslab-eu-lab"
          ]
        },
        "performer": [
          {
            "display": "The Central European Lab"
          }
        ],
        "category": [
          {
            "coding": [
              {
                "system": "http://terminology.hl7.org/CodeSystem/observation-category",
                "code": "laboratory"
              }
            ]
          }
        ],
        "code": {
          "coding": [
            {
              "code": "6299-2",
              "system": "http://loinc.org",
              "display": "Urea nitrogen [Mass/volume] in Blood"
            }
          ],
          "text": "Urea nitrogen [Mass/volume] in Blood"
        },
        "valueQuantity": {
          "system": "http://unitsofmeasure.org",
          "value": 17.2,
          "unit": "mg/dL",
          "code": "mg/dL"
        },
        "referenceRange": [
          {
            "low": {
              "value": 7,
              "code": "mg/dL",
              "system": "http://unitsofmeasure.org"
            }
          },
          {
            "high": {
              "value": 20,
              "code": "mg/dL",
              "system": "http://unitsofmeasure.org"
            }
          }
        ],
        "text": {
          "status": "generated",
          "div": "<div xmlns=\"http://www.w3.org/1999/xhtml\"><table class=\"hl7__eu__lab__report\"><tr><th>Test</th><th>08-Sep-2020</th><th>Reference&#xA0;Range</th><th>Unit</th></tr><tr><td>Urea nitrogen [Mass/volume] in Blood</td><td>17.2</td><td>7 - 20</td><td></td><td>mg/dL</td></tr></table></div>"
        },
        "status": "final",
        "subject": {
          "reference": "urn:uuid:a6de3b77-3a91-4b25-a5e6-507dbcbc3268",
          "display": "Khalid Nilsson"
        },
        "effectiveDateTime": "2020-09-07T23:04:23Z",
        "specimen": {
          "reference": "urn:uuid:da7012e3-d124-45fc-987d-8b9cbef18881"
        }
      }
    },
    {
      "fullUrl": "urn:uuid:a11aeb15-88e6-4ab8-a2ff-bf9e3c945626",
      "resource": {
        "resourceType": "Observation",
        "id": "a11aeb15-88e6-4ab8-a2ff-bf9e3c945626",
        "meta": {
          "profile": [
            "http://hl7.eu/fhir/laboratory/StructureDefinition/Observation-resultslab-eu-lab"
          ]
        },
        "performer": [
          {
            "display": "The Central European Lab"
          }
        ],
        "category": [
          {
            "coding": [
              {
                "system": "http://terminology.hl7.org/CodeSystem/observation-category",
                "code": "laboratory"
              }
            ]
          }
        ],
        "code": {
          "coding": [
            {
              "code": "38483-4",
              "system": "http://loinc.org",
              "display": "Creatinine [Mass/volume] in Blood"
            }
          ],
          "text": "Creatinine [Mass/volume] in Blood"
        },
        "valueQuantity": {
          "system": "http://unitsofmeasure.org",
          "value": 1,
          "unit": "mg/dL",
          "code": "mg/dL"
        },
        "referenceRange": [
          {
            "low": {
              "value": 0.9,
              "code": "mg/dL",
              "system": "http://unitsofmeasure.org"
            }
          },
          {
            "high": {
              "value": 1.3,
              "code": "mg/dL",
              "system": "http://unitsofmeasure.org"
            }
          }
        ],
        "text": {
          "status": "generated",
          "div": "<div xmlns=\"http://www.w3.org/1999/xhtml\"><table class=\"hl7__eu__lab__report\"><tr><th>Test</th><th>08-Sep-2020</th><th>Reference&#xA0;Range</th><th>Unit</th></tr><tr><td>Creatinine [Mass/volume] in Blood</td><td>1.0</td><td>0.9 - 1.3</td><td></td><td>mg/dL</td></tr></table></div>"
        },
        "status": "final",
        "subject": {
          "reference": "urn:uuid:a6de3b77-3a91-4b25-a5e6-507dbcbc3268",
          "display": "Khalid Nilsson"
        },
        "effectiveDateTime": "2020-09-07T23:04:23Z",
        "specimen": {
          "reference": "urn:uuid:da7012e3-d124-45fc-987d-8b9cbef18881"
        }
      }
    },
    {
      "fullUrl": "urn:uuid:1f13282f-ee07-4970-a208-5495198fe467",
      "resource": {
        "resourceType": "Observation",
        "id": "1f13282f-ee07-4970-a208-5495198fe467",
        "meta": {
          "profile": [
            "http://hl7.eu/fhir/laboratory/StructureDefinition/Observation-resultslab-eu-lab"
          ]
        },
        "performer": [
          {
            "display": "The Central European Lab"
          }
        ],
        "category": [
          {
            "coding": [
              {
                "system": "http://terminology.hl7.org/CodeSystem/observation-category",
                "code": "laboratory"
              }
            ]
          }
        ],
        "code": {
          "coding": [
            {
              "code": "49765-1",
              "system": "http://loinc.org",
              "display": "Calcium [Mass/volume] in Blood"
            }
          ],
          "text": "Calcium [Mass/volume] in Blood"
        },
        "valueQuantity": {
          "system": "http://unitsofmeasure.org",
          "value": 9.5,
          "unit": "mg/dL",
          "code": "mg/dL"
        },
        "referenceRange": [
          {
            "low": {
              "value": 8.6,
              "code": "mg/dL",
              "system": "http://unitsofmeasure.org"
            }
          },
          {
            "high": {
              "value": 10.2,
              "code": "mg/dL",
              "system": "http://unitsofmeasure.org"
            }
          }
        ],
        "text": {
          "status": "generated",
          "div": "<div xmlns=\"http://www.w3.org/1999/xhtml\"><table class=\"hl7__eu__lab__report\"><tr><th>Test</th><th>08-Sep-2020</th><th>Reference&#xA0;Range</th><th>Unit</th></tr><tr><td>Calcium [Mass/volume] in Blood</td><td>9.5</td><td>8.6 - 10.2</td><td></td><td>mg/dL</td></tr></table></div>"
        },
        "status": "final",
        "subject": {
          "reference": "urn:uuid:a6de3b77-3a91-4b25-a5e6-507dbcbc3268",
          "display": "Khalid Nilsson"
        },
        "effectiveDateTime": "2020-09-07T23:04:23Z",
        "specimen": {
          "reference": "urn:uuid:da7012e3-d124-45fc-987d-8b9cbef18881"
        }
      }
    },
    {
      "fullUrl": "urn:uuid:b27886dd-f310-4870-b6bc-401d05e1b9e4",
      "resource": {
        "resourceType": "Observation",
        "id": "b27886dd-f310-4870-b6bc-401d05e1b9e4",
        "meta": {
          "profile": [
            "http://hl7.eu/fhir/laboratory/StructureDefinition/Observation-resultslab-eu-lab"
          ]
        },
        "performer": [
          {
            "display": "The Central European Lab"
          }
        ],
        "category": [
          {
            "coding": [
              {
                "system": "http://terminology.hl7.org/CodeSystem/observation-category",
                "code": "laboratory"
              }
            ]
          }
        ],
        "code": {
          "coding": [
            {
              "code": "2947-0",
              "system": "http://loinc.org",
              "display": "Sodium [Moles/volume] in Blood"
            }
          ],
          "text": "Sodium [Moles/volume] in Blood"
        },
        "valueQuantity": {
          "system": "http://unitsofmeasure.org",
          "value": 140.5,
          "unit": "mmol/L",
          "code": "mmol/L"
        },
        "referenceRange": [
          {
            "low": {
              "value": 135,
              "code": "mmol/L",
              "system": "http://unitsofmeasure.org"
            }
          },
          {
            "high": {
              "value": 145,
              "code": "mmol/L",
              "system": "http://unitsofmeasure.org"
            }
          }
        ],
        "text": {
          "status": "generated",
          "div": "<div xmlns=\"http://www.w3.org/1999/xhtml\"><table class=\"hl7__eu__lab__report\"><tr><th>Test</th><th>08-Sep-2020</th><th>Reference&#xA0;Range</th><th>Unit</th></tr><tr><td>Sodium [Moles/volume] in Blood</td><td>140.5</td><td>135 - 145</td><td></td><td>mmol/L</td></tr></table></div>"
        },
        "status": "final",
        "subject": {
          "reference": "urn:uuid:a6de3b77-3a91-4b25-a5e6-507dbcbc3268",
          "display": "Khalid Nilsson"
        },
        "effectiveDateTime": "2020-09-07T23:04:23Z",
        "specimen": {
          "reference": "urn:uuid:da7012e3-d124-45fc-987d-8b9cbef18881"
        }
      }
    },
    {
      "fullUrl": "urn:uuid:90d867a4-2148-4ea4-b0ba-68a4032e04b6",
      "resource": {
        "resourceType": "Observation",
        "id": "90d867a4-2148-4ea4-b0ba-68a4032e04b6",
        "meta": {
          "profile": [
            "http://hl7.eu/fhir/laboratory/StructureDefinition/Observation-resultslab-eu-lab"
          ]
        },
        "performer": [
          {
            "display": "The Central European Lab"
          }
        ],
        "category": [
          {
            "coding": [
              {
                "system": "http://terminology.hl7.org/CodeSystem/observation-category",
                "code": "laboratory"
              }
            ]
          }
        ],
        "code": {
          "coding": [
            {
              "code": "6298-4",
              "system": "http://loinc.org",
              "display": "Potassium [Moles/volume] in Blood"
            }
          ],
          "text": "Potassium [Moles/volume] in Blood"
        },
        "valueQuantity": {
          "system": "http://unitsofmeasure.org",
          "value": 4.9,
          "unit": "mmol/L",
          "code": "mmol/L"
        },
        "referenceRange": [
          {
            "low": {
              "value": 3.5,
              "code": "mmol/L",
              "system": "http://unitsofmeasure.org"
            }
          },
          {
            "high": {
              "value": 5.1,
              "code": "mmol/L",
              "system": "http://unitsofmeasure.org"
            }
          }
        ],
        "text": {
          "status": "generated",
          "div": "<div xmlns=\"http://www.w3.org/1999/xhtml\"><table class=\"hl7__eu__lab__report\"><tr><th>Test</th><th>08-Sep-2020</th><th>Reference&#xA0;Range</th><th>Unit</th></tr><tr><td>Potassium [Moles/volume] in Blood</td><td>4.9</td><td>3.5 - 5.1</td><td></td><td>mmol/L</td></tr></table></div>"
        },
        "status": "final",
        "subject": {
          "reference": "urn:uuid:a6de3b77-3a91-4b25-a5e6-507dbcbc3268",
          "display": "Khalid Nilsson"
        },
        "effectiveDateTime": "2020-09-07T23:04:23Z",
        "specimen": {
          "reference": "urn:uuid:da7012e3-d124-45fc-987d-8b9cbef18881"
        }
      }
    },
    {
      "fullUrl": "urn:uuid:15112a8d-c07d-4ab0-95e9-7d3f89be6341",
      "resource": {
        "resourceType": "Observation",
        "id": "15112a8d-c07d-4ab0-95e9-7d3f89be6341",
        "meta": {
          "profile": [
            "http://hl7.eu/fhir/laboratory/StructureDefinition/Observation-resultslab-eu-lab"
          ]
        },
        "performer": [
          {
            "display": "The Central European Lab"
          }
        ],
        "category": [
          {
            "coding": [
              {
                "system": "http://terminology.hl7.org/CodeSystem/observation-category",
                "code": "laboratory"
              }
            ]
          }
        ],
        "code": {
          "coding": [
            {
              "code": "2069-3",
              "system": "http://loinc.org",
              "display": "Chloride [Moles/volume] in Blood"
            }
          ],
          "text": "Chloride [Moles/volume] in Blood"
        },
        "valueQuantity": {
          "system": "http://unitsofmeasure.org",
          "value": 110.6,
          "unit": "mmol/L",
          "code": "mmol/L"
        },
        "referenceRange": [
          {
            "low": {
              "value": 98,
              "code": "mmol/L",
              "system": "http://unitsofmeasure.org"
            }
          },
          {
            "high": {
              "value": 108,
              "code": "mmol/L",
              "system": "http://unitsofmeasure.org"
            }
          }
        ],
        "interpretation": [
          {
            "coding": [
              {
                "code": "H",
                "system": "http://terminology.hl7.org/CodeSystem/v3-ObservationInterpretation",
                "display": "High"
              }
            ]
          }
        ],
        "text": {
          "status": "generated",
          "div": "<div xmlns=\"http://www.w3.org/1999/xhtml\"><table class=\"hl7__eu__lab__report\"><tr><th>Test</th><th>08-Sep-2020</th><th>Reference&#xA0;Range</th><th>Unit</th></tr><tr><td>Chloride [Moles/volume] in Blood</td><td>110.6</td><td>98 - 108</td><td>H</td><td>mmol/L</td></tr></table></div>"
        },
        "status": "final",
        "subject": {
          "reference": "urn:uuid:a6de3b77-3a91-4b25-a5e6-507dbcbc3268",
          "display": "Khalid Nilsson"
        },
        "effectiveDateTime": "2020-09-07T23:04:23Z",
        "specimen": {
          "reference": "urn:uuid:da7012e3-d124-45fc-987d-8b9cbef18881"
        }
      }
    },
    {
      "fullUrl": "urn:uuid:ee292693-83fd-4bae-a17f-958456e9495f",
      "resource": {
        "resourceType": "Observation",
        "id": "ee292693-83fd-4bae-a17f-958456e9495f",
        "meta": {
          "profile": [
            "http://hl7.eu/fhir/laboratory/StructureDefinition/Observation-resultslab-eu-lab"
          ]
        },
        "performer": [
          {
            "display": "The Central European Lab"
          }
        ],
        "category": [
          {
            "coding": [
              {
                "system": "http://terminology.hl7.org/CodeSystem/observation-category",
                "code": "laboratory"
              }
            ]
          }
        ],
        "code": {
          "coding": [
            {
              "code": "20565-8",
              "system": "http://loinc.org",
              "display": "Carbon dioxide, total [Moles/volume] in Blood"
            }
          ],
          "text": "Carbon dioxide, total [Moles/volume] in Blood"
        },
        "valueQuantity": {
          "system": "http://unitsofmeasure.org",
          "value": 25.2,
          "unit": "mmol/L",
          "code": "mmol/L"
        },
        "referenceRange": [
          {
            "low": {
              "value": 22,
              "code": "mmol/L",
              "system": "http://unitsofmeasure.org"
            }
          },
          {
            "high": {
              "value": 29,
              "code": "mmol/L",
              "system": "http://unitsofmeasure.org"
            }
          }
        ],
        "text": {
          "status": "generated",
          "div": "<div xmlns=\"http://www.w3.org/1999/xhtml\"><table class=\"hl7__eu__lab__report\"><tr><th>Test</th><th>08-Sep-2020</th><th>Reference&#xA0;Range</th><th>Unit</th></tr><tr><td>Carbon dioxide, total [Moles/volume] in Blood</td><td>25.2</td><td>22 - 29</td><td></td><td>mmol/L</td></tr></table></div>"
        },
        "status": "final",
        "subject": {
          "reference": "urn:uuid:a6de3b77-3a91-4b25-a5e6-507dbcbc3268",
          "display": "Khalid Nilsson"
        },
        "effectiveDateTime": "2020-09-07T23:04:23Z",
        "specimen": {
          "reference": "urn:uuid:da7012e3-d124-45fc-987d-8b9cbef18881"
        }
      }
    },
    {
      "fullUrl": "urn:uuid:3017b82a-9cf5-4462-a17a-5d7ec68b2d20",
      "resource": {
        "resourceType": "Observation",
        "id": "3017b82a-9cf5-4462-a17a-5d7ec68b2d20",
        "meta": {
          "profile": [
            "http://hl7.eu/fhir/laboratory/StructureDefinition/Observation-resultslab-eu-lab"
          ]
        },
        "performer": [
          {
            "display": "The Central European Lab"
          }
        ],
        "category": [
          {
            "coding": [
              {
                "system": "http://terminology.hl7.org/CodeSystem/observation-category",
                "code": "laboratory"
              }
            ]
          }
        ],
        "code": {
          "coding": [
            {
              "code": "6690-2",
              "system": "http://loinc.org",
              "display": "Leukocytes [#/volume] in Blood by Automated count"
            }
          ],
          "text": "Leukocytes [#/volume] in Blood by Automated count"
        },
        "valueQuantity": {
          "system": "http://unitsofmeasure.org",
          "value": 7.2,
          "unit": "10*3/uL",
          "code": "10*3/uL"
        },
        "referenceRange": [
          {
            "low": {
              "value": 3.5,
              "code": "10*3/uL",
              "system": "http://unitsofmeasure.org"
            }
          },
          {
            "high": {
              "value": 10.5,
              "code": "10*3/uL",
              "system": "http://unitsofmeasure.org"
            }
          }
        ],
        "text": {
          "status": "generated",
          "div": "<div xmlns=\"http://www.w3.org/1999/xhtml\"><table class=\"hl7__eu__lab__report\"><tr><th>Test</th><th>08-Sep-2020</th><th>Reference&#xA0;Range</th><th>Unit</th></tr><tr><td>Leukocytes [#/volume] in Blood by Automated count</td><td>7.2</td><td>3.5 - 10.5</td><td></td><td>10*3/uL</td></tr></table></div>"
        },
        "status": "final",
        "subject": {
          "reference": "urn:uuid:a6de3b77-3a91-4b25-a5e6-507dbcbc3268",
          "display": "Khalid Nilsson"
        },
        "effectiveDateTime": "2020-09-07T23:04:23Z",
        "specimen": {
          "reference": "urn:uuid:da7012e3-d124-45fc-987d-8b9cbef18881"
        }
      }
    },
    {
      "fullUrl": "urn:uuid:04791a94-28e1-4166-ab72-6371147df272",
      "resource": {
        "resourceType": "Observation",
        "id": "04791a94-28e1-4166-ab72-6371147df272",
        "meta": {
          "profile": [
            "http://hl7.eu/fhir/laboratory/StructureDefinition/Observation-resultslab-eu-lab"
          ]
        },
        "performer": [
          {
            "display": "The Central European Lab"
          }
        ],
        "category": [
          {
            "coding": [
              {
                "system": "http://terminology.hl7.org/CodeSystem/observation-category",
                "code": "laboratory"
              }
            ]
          }
        ],
        "code": {
          "coding": [
            {
              "code": "789-8",
              "system": "http://loinc.org",
              "display": "Erythrocytes [#/volume] in Blood by Automated count"
            }
          ],
          "text": "Erythrocytes [#/volume] in Blood by Automated count"
        },
        "valueQuantity": {
          "system": "http://unitsofmeasure.org",
          "value": 4.4,
          "unit": "10*6/uL",
          "code": "10*6/uL"
        },
        "referenceRange": [
          {
            "low": {
              "value": 4.2,
              "code": "10*6/uL",
              "system": "http://unitsofmeasure.org"
            }
          },
          {
            "high": {
              "value": 6.2,
              "code": "10*6/uL",
              "system": "http://unitsofmeasure.org"
            }
          }
        ],
        "text": {
          "status": "generated",
          "div": "<div xmlns=\"http://www.w3.org/1999/xhtml\"><table class=\"hl7__eu__lab__report\"><tr><th>Test</th><th>08-Sep-2020</th><th>Reference&#xA0;Range</th><th>Unit</th></tr><tr><td>Erythrocytes [#/volume] in Blood by Automated count</td><td>4.4</td><td>4.2 - 6.2</td><td></td><td>10*6/uL</td></tr></table></div>"
        },
        "status": "final",
        "subject": {
          "reference": "urn:uuid:a6de3b77-3a91-4b25-a5e6-507dbcbc3268",
          "display": "Khalid Nilsson"
        },
        "effectiveDateTime": "2020-09-07T23:04:23Z",
        "specimen": {
          "reference": "urn:uuid:da7012e3-d124-45fc-987d-8b9cbef18881"
        }
      }
    },
    {
      "fullUrl": "urn:uuid:36f16cbe-ef16-4c3c-a26c-83ed45a38370",
      "resource": {
        "resourceType": "Observation",
        "id": "36f16cbe-ef16-4c3c-a26c-83ed45a38370",
        "meta": {
          "profile": [
            "http://hl7.eu/fhir/laboratory/StructureDefinition/Observation-resultslab-eu-lab"
          ]
        },
        "performer": [
          {
            "display": "The Central European Lab"
          }
        ],
        "category": [
          {
            "coding": [
              {
                "system": "http://terminology.hl7.org/CodeSystem/observation-category",
                "code": "laboratory"
              }
            ]
          }
        ],
        "code": {
          "coding": [
            {
              "code": "718-7",
              "system": "http://loinc.org",
              "display": "Hemoglobin [Mass/volume] in Blood"
            }
          ],
          "text": "Hemoglobin [Mass/volume] in Blood"
        },
        "valueQuantity": {
          "system": "http://unitsofmeasure.org",
          "value": 12.9,
          "unit": "g/dL",
          "code": "g/dL"
        },
        "referenceRange": [
          {
            "low": {
              "value": 13.5,
              "code": "g/dL",
              "system": "http://unitsofmeasure.org"
            }
          },
          {
            "high": {
              "value": 17.5,
              "code": "g/dL",
              "system": "http://unitsofmeasure.org"
            }
          }
        ],
        "interpretation": [
          {
            "coding": [
              {
                "code": "L",
                "system": "http://terminology.hl7.org/CodeSystem/v3-ObservationInterpretation",
                "display": "Low"
              }
            ]
          }
        ],
        "text": {
          "status": "generated",
          "div": "<div xmlns=\"http://www.w3.org/1999/xhtml\"><table class=\"hl7__eu__lab__report\"><tr><th>Test</th><th>08-Sep-2020</th><th>Reference&#xA0;Range</th><th>Unit</th></tr><tr><td>Hemoglobin [Mass/volume] in Blood</td><td>12.9</td><td>13.5 - 17.5</td><td>L</td><td>g/dL</td></tr></table></div>"
        },
        "status": "final",
        "subject": {
          "reference": "urn:uuid:a6de3b77-3a91-4b25-a5e6-507dbcbc3268",
          "display": "Khalid Nilsson"
        },
        "effectiveDateTime": "2020-09-07T23:04:23Z",
        "specimen": {
          "reference": "urn:uuid:da7012e3-d124-45fc-987d-8b9cbef18881"
        }
      }
    },
    {
      "fullUrl": "urn:uuid:cdae46df-771c-4733-a6ac-5e696fb4c49d",
      "resource": {
        "resourceType": "Observation",
        "id": "cdae46df-771c-4733-a6ac-5e696fb4c49d",
        "meta": {
          "profile": [
            "http://hl7.eu/fhir/laboratory/StructureDefinition/Observation-resultslab-eu-lab"
          ]
        },
        "performer": [
          {
            "display": "The Central European Lab"
          }
        ],
        "category": [
          {
            "coding": [
              {
                "system": "http://terminology.hl7.org/CodeSystem/observation-category",
                "code": "laboratory"
              }
            ]
          }
        ],
        "code": {
          "coding": [
            {
              "code": "4544-3",
              "system": "http://loinc.org",
              "display": "Hematocrit [Volume Fraction] of Blood by Automated count"
            }
          ],
          "text": "Hematocrit [Volume Fraction] of Blood by Automated count"
        },
        "valueQuantity": {
          "system": "http://unitsofmeasure.org",
          "value": 44.6,
          "unit": "%",
          "code": "%"
        },
        "referenceRange": [
          {
            "low": {
              "value": 37,
              "code": "%",
              "system": "http://unitsofmeasure.org"
            }
          },
          {
            "high": {
              "value": 52,
              "code": "%",
              "system": "http://unitsofmeasure.org"
            }
          }
        ],
        "text": {
          "status": "generated",
          "div": "<div xmlns=\"http://www.w3.org/1999/xhtml\"><table class=\"hl7__eu__lab__report\"><tr><th>Test</th><th>08-Sep-2020</th><th>Reference&#xA0;Range</th><th>Unit</th></tr><tr><td>Hematocrit [Volume Fraction] of Blood by Automated count</td><td>44.6</td><td>37 - 52</td><td></td><td>%</td></tr></table></div>"
        },
        "status": "final",
        "subject": {
          "reference": "urn:uuid:a6de3b77-3a91-4b25-a5e6-507dbcbc3268",
          "display": "Khalid Nilsson"
        },
        "effectiveDateTime": "2020-09-07T23:04:23Z",
        "specimen": {
          "reference": "urn:uuid:da7012e3-d124-45fc-987d-8b9cbef18881"
        }
      }
    },
    {
      "fullUrl": "urn:uuid:f43c64a4-57cb-4c02-b8cb-1968a5d87926",
      "resource": {
        "resourceType": "Observation",
        "id": "f43c64a4-57cb-4c02-b8cb-1968a5d87926",
        "meta": {
          "profile": [
            "http://hl7.eu/fhir/laboratory/StructureDefinition/Observation-resultslab-eu-lab"
          ]
        },
        "performer": [
          {
            "display": "The Central European Lab"
          }
        ],
        "category": [
          {
            "coding": [
              {
                "system": "http://terminology.hl7.org/CodeSystem/observation-category",
                "code": "laboratory"
              }
            ]
          }
        ],
        "code": {
          "coding": [
            {
              "code": "787-2",
              "system": "http://loinc.org",
              "display": "MCV [Entitic volume] by Automated count"
            }
          ],
          "text": "MCV [Entitic volume] by Automated count"
        },
        "valueQuantity": {
          "system": "http://unitsofmeasure.org",
          "value": 88.8,
          "unit": "fL",
          "code": "fL"
        },
        "referenceRange": [
          {
            "low": {
              "value": 80,
              "code": "fL",
              "system": "http://unitsofmeasure.org"
            }
          },
          {
            "high": {
              "value": 105,
              "code": "fL",
              "system": "http://unitsofmeasure.org"
            }
          }
        ],
        "text": {
          "status": "generated",
          "div": "<div xmlns=\"http://www.w3.org/1999/xhtml\"><table class=\"hl7__eu__lab__report\"><tr><th>Test</th><th>08-Sep-2020</th><th>Reference&#xA0;Range</th><th>Unit</th></tr><tr><td>MCV [Entitic volume] by Automated count</td><td>88.8</td><td>80 - 105</td><td></td><td>fL</td></tr></table></div>"
        },
        "status": "final",
        "subject": {
          "reference": "urn:uuid:a6de3b77-3a91-4b25-a5e6-507dbcbc3268",
          "display": "Khalid Nilsson"
        },
        "effectiveDateTime": "2020-09-07T23:04:23Z",
        "specimen": {
          "reference": "urn:uuid:da7012e3-d124-45fc-987d-8b9cbef18881"
        }
      }
    },
    {
      "fullUrl": "urn:uuid:464f7a44-2054-4018-a425-6e722021bfed",
      "resource": {
        "resourceType": "Observation",
        "id": "464f7a44-2054-4018-a425-6e722021bfed",
        "meta": {
          "profile": [
            "http://hl7.eu/fhir/laboratory/StructureDefinition/Observation-resultslab-eu-lab"
          ]
        },
        "performer": [
          {
            "display": "The Central European Lab"
          }
        ],
        "category": [
          {
            "coding": [
              {
                "system": "http://terminology.hl7.org/CodeSystem/observation-category",
                "code": "laboratory"
              }
            ]
          }
        ],
        "code": {
          "coding": [
            {
              "code": "785-6",
              "system": "http://loinc.org",
              "display": "MCH [Entitic mass] by Automated count"
            }
          ],
          "text": "MCH [Entitic mass] by Automated count"
        },
        "valueQuantity": {
          "system": "http://unitsofmeasure.org",
          "value": 28.5,
          "unit": "pg",
          "code": "pg"
        },
        "referenceRange": [
          {
            "low": {
              "value": 27,
              "code": "pg",
              "system": "http://unitsofmeasure.org"
            }
          },
          {
            "high": {
              "value": 33,
              "code": "pg",
              "system": "http://unitsofmeasure.org"
            }
          }
        ],
        "text": {
          "status": "generated",
          "div": "<div xmlns=\"http://www.w3.org/1999/xhtml\"><table class=\"hl7__eu__lab__report\"><tr><th>Test</th><th>08-Sep-2020</th><th>Reference&#xA0;Range</th><th>Unit</th></tr><tr><td>MCH [Entitic mass] by Automated count</td><td>28.5</td><td>27 - 33</td><td></td><td>pg</td></tr></table></div>"
        },
        "status": "final",
        "subject": {
          "reference": "urn:uuid:a6de3b77-3a91-4b25-a5e6-507dbcbc3268",
          "display": "Khalid Nilsson"
        },
        "effectiveDateTime": "2020-09-07T23:04:23Z",
        "specimen": {
          "reference": "urn:uuid:da7012e3-d124-45fc-987d-8b9cbef18881"
        }
      }
    },
    {
      "fullUrl": "urn:uuid:7fb53ef7-59a2-4b43-a972-8f54c171ba23",
      "resource": {
        "resourceType": "Observation",
        "id": "7fb53ef7-59a2-4b43-a972-8f54c171ba23",
        "meta": {
          "profile": [
            "http://hl7.eu/fhir/laboratory/StructureDefinition/Observation-resultslab-eu-lab"
          ]
        },
        "performer": [
          {
            "display": "The Central European Lab"
          }
        ],
        "category": [
          {
            "coding": [
              {
                "system": "http://terminology.hl7.org/CodeSystem/observation-category",
                "code": "laboratory"
              }
            ]
          }
        ],
        "code": {
          "coding": [
            {
              "code": "786-4",
              "system": "http://loinc.org",
              "display": "MCHC [Mass/volume] by Automated count"
            }
          ],
          "text": "MCHC [Mass/volume] by Automated count"
        },
        "valueQuantity": {
          "system": "http://unitsofmeasure.org",
          "value": 35,
          "unit": "g/dL",
          "code": "g/dL"
        },
        "referenceRange": [
          {
            "low": {
              "value": 31,
              "code": "g/dL",
              "system": "http://unitsofmeasure.org"
            }
          },
          {
            "high": {
              "value": 36,
              "code": "g/dL",
              "system": "http://unitsofmeasure.org"
            }
          }
        ],
        "text": {
          "status": "generated",
          "div": "<div xmlns=\"http://www.w3.org/1999/xhtml\"><table class=\"hl7__eu__lab__report\"><tr><th>Test</th><th>08-Sep-2020</th><th>Reference&#xA0;Range</th><th>Unit</th></tr><tr><td>MCHC [Mass/volume] by Automated count</td><td>35.0</td><td>31 - 36</td><td></td><td>g/dL</td></tr></table></div>"
        },
        "status": "final",
        "subject": {
          "reference": "urn:uuid:a6de3b77-3a91-4b25-a5e6-507dbcbc3268",
          "display": "Khalid Nilsson"
        },
        "effectiveDateTime": "2020-09-07T23:04:23Z",
        "specimen": {
          "reference": "urn:uuid:da7012e3-d124-45fc-987d-8b9cbef18881"
        }
      }
    },
    {
      "fullUrl": "urn:uuid:61b2e340-7fdc-4a09-9606-fae97b67c9ad",
      "resource": {
        "resourceType": "Observation",
        "id": "61b2e340-7fdc-4a09-9606-fae97b67c9ad",
        "meta": {
          "profile": [
            "http://hl7.eu/fhir/laboratory/StructureDefinition/Observation-resultslab-eu-lab"
          ]
        },
        "performer": [
          {
            "display": "The Central European Lab"
          }
        ],
        "category": [
          {
            "coding": [
              {
                "system": "http://terminology.hl7.org/CodeSystem/observation-category",
                "code": "laboratory"
              }
            ]
          }
        ],
        "code": {
          "coding": [
            {
              "code": "21000-5",
              "system": "http://loinc.org",
              "display": "Erythrocyte distribution width [Entitic volume] by Automated count"
            }
          ],
          "text": "Erythrocyte distribution width [Entitic volume] by Automated count"
        },
        "valueQuantity": {
          "system": "http://unitsofmeasure.org",
          "value": 40.9,
          "unit": "fL",
          "code": "fL"
        },
        "referenceRange": [
          {
            "low": {
              "value": 36,
              "code": "fL",
              "system": "http://unitsofmeasure.org"
            }
          },
          {
            "high": {
              "value": 55,
              "code": "fL",
              "system": "http://unitsofmeasure.org"
            }
          }
        ],
        "text": {
          "status": "generated",
          "div": "<div xmlns=\"http://www.w3.org/1999/xhtml\"><table class=\"hl7__eu__lab__report\"><tr><th>Test</th><th>08-Sep-2020</th><th>Reference&#xA0;Range</th><th>Unit</th></tr><tr><td>Erythrocyte distribution width [Entitic volume] by Automated count</td><td>40.9</td><td>36 - 55</td><td></td><td>fL</td></tr></table></div>"
        },
        "status": "final",
        "subject": {
          "reference": "urn:uuid:a6de3b77-3a91-4b25-a5e6-507dbcbc3268",
          "display": "Khalid Nilsson"
        },
        "effectiveDateTime": "2020-09-07T23:04:23Z",
        "specimen": {
          "reference": "urn:uuid:da7012e3-d124-45fc-987d-8b9cbef18881"
        }
      }
    },
    {
      "fullUrl": "urn:uuid:d2cf0341-621c-409a-b963-767a5be4e094",
      "resource": {
        "resourceType": "Observation",
        "id": "d2cf0341-621c-409a-b963-767a5be4e094",
        "meta": {
          "profile": [
            "http://hl7.eu/fhir/laboratory/StructureDefinition/Observation-resultslab-eu-lab"
          ]
        },
        "performer": [
          {
            "display": "The Central European Lab"
          }
        ],
        "category": [
          {
            "coding": [
              {
                "system": "http://terminology.hl7.org/CodeSystem/observation-category",
                "code": "laboratory"
              }
            ]
          }
        ],
        "code": {
          "coding": [
            {
              "code": "777-3",
              "system": "http://loinc.org",
              "display": "Platelets [#/volume] in Blood by Automated count"
            }
          ],
          "text": "Platelets [#/volume] in Blood by Automated count"
        },
        "valueQuantity": {
          "system": "http://unitsofmeasure.org",
          "value": 183.4,
          "unit": "10*3/uL",
          "code": "10*3/uL"
        },
        "referenceRange": [
          {
            "low": {
              "value": 150,
              "code": "10*3/uL",
              "system": "http://unitsofmeasure.org"
            }
          },
          {
            "high": {
              "value": 350,
              "code": "10*3/uL",
              "system": "http://unitsofmeasure.org"
            }
          }
        ],
        "text": {
          "status": "generated",
          "div": "<div xmlns=\"http://www.w3.org/1999/xhtml\"><table class=\"hl7__eu__lab__report\"><tr><th>Test</th><th>08-Sep-2020</th><th>Reference&#xA0;Range</th><th>Unit</th></tr><tr><td>Platelets [#/volume] in Blood by Automated count</td><td>183.4</td><td>150 - 350</td><td></td><td>10*3/uL</td></tr></table></div>"
        },
        "status": "final",
        "subject": {
          "reference": "urn:uuid:a6de3b77-3a91-4b25-a5e6-507dbcbc3268",
          "display": "Khalid Nilsson"
        },
        "effectiveDateTime": "2020-09-07T23:04:23Z",
        "specimen": {
          "reference": "urn:uuid:da7012e3-d124-45fc-987d-8b9cbef18881"
        }
      }
    },
    {
      "fullUrl": "urn:uuid:2e8b12d8-e618-47c1-b0dd-c207b993eeb0",
      "resource": {
        "resourceType": "Observation",
        "id": "2e8b12d8-e618-47c1-b0dd-c207b993eeb0",
        "meta": {
          "profile": [
            "http://hl7.eu/fhir/laboratory/StructureDefinition/Observation-resultslab-eu-lab"
          ]
        },
        "performer": [
          {
            "display": "The Central European Lab"
          }
        ],
        "category": [
          {
            "coding": [
              {
                "system": "http://terminology.hl7.org/CodeSystem/observation-category",
                "code": "laboratory"
              }
            ]
          }
        ],
        "code": {
          "coding": [
            {
              "code": "32207-3",
              "system": "http://loinc.org",
              "display": "Platelet distribution width [Entitic volume] in Blood by Automated count"
            }
          ],
          "text": "Platelet distribution width [Entitic volume] in Blood by Automated count"
        },
        "valueQuantity": {
          "system": "http://unitsofmeasure.org",
          "value": 214.3,
          "unit": "fL",
          "code": "fL"
        },
        "referenceRange": [
          {
            "low": {
              "value": 144,
              "code": "fL",
              "system": "http://unitsofmeasure.org"
            }
          },
          {
            "high": {
              "value": 366,
              "code": "fL",
              "system": "http://unitsofmeasure.org"
            }
          }
        ],
        "text": {
          "status": "generated",
          "div": "<div xmlns=\"http://www.w3.org/1999/xhtml\"><table class=\"hl7__eu__lab__report\"><tr><th>Test</th><th>08-Sep-2020</th><th>Reference&#xA0;Range</th><th>Unit</th></tr><tr><td>Platelet distribution width [Entitic volume] in Blood by Automated count</td><td>214.3</td><td>144 - 366</td><td></td><td>fL</td></tr></table></div>"
        },
        "status": "final",
        "subject": {
          "reference": "urn:uuid:a6de3b77-3a91-4b25-a5e6-507dbcbc3268",
          "display": "Khalid Nilsson"
        },
        "effectiveDateTime": "2020-09-07T23:04:23Z",
        "specimen": {
          "reference": "urn:uuid:da7012e3-d124-45fc-987d-8b9cbef18881"
        }
      }
    },
    {
      "fullUrl": "urn:uuid:7f57dbaa-6dd0-4303-aaa0-8d5c056e0bd9",
      "resource": {
        "resourceType": "Observation",
        "id": "7f57dbaa-6dd0-4303-aaa0-8d5c056e0bd9",
        "meta": {
          "profile": [
            "http://hl7.eu/fhir/laboratory/StructureDefinition/Observation-resultslab-eu-lab"
          ]
        },
        "performer": [
          {
            "display": "The Central European Lab"
          }
        ],
        "category": [
          {
            "coding": [
              {
                "system": "http://terminology.hl7.org/CodeSystem/observation-category",
                "code": "laboratory"
              }
            ]
          }
        ],
        "code": {
          "coding": [
            {
              "code": "32623-1",
              "system": "http://loinc.org",
              "display": "Platelet mean volume [Entitic volume] in Blood by Automated count"
            }
          ],
          "text": "Platelet mean volume [Entitic volume] in Blood by Automated count"
        },
        "valueQuantity": {
          "system": "http://unitsofmeasure.org",
          "value": 10.1,
          "unit": "fL",
          "code": "fL"
        },
        "referenceRange": [
          {
            "low": {
              "value": 7.2,
              "code": "fL",
              "system": "http://unitsofmeasure.org"
            }
          },
          {
            "high": {
              "value": 13.5,
              "code": "fL",
              "system": "http://unitsofmeasure.org"
            }
          }
        ],
        "text": {
          "status": "generated",
          "div": "<div xmlns=\"http://www.w3.org/1999/xhtml\"><table class=\"hl7__eu__lab__report\"><tr><th>Test</th><th>08-Sep-2020</th><th>Reference&#xA0;Range</th><th>Unit</th></tr><tr><td>Platelet mean volume [Entitic volume] in Blood by Automated count</td><td>10.1</td><td>7.2 - 13.5</td><td></td><td>fL</td></tr></table></div>"
        },
        "status": "final",
        "subject": {
          "reference": "urn:uuid:a6de3b77-3a91-4b25-a5e6-507dbcbc3268",
          "display": "Khalid Nilsson"
        },
        "effectiveDateTime": "2020-09-07T23:04:23Z",
        "specimen": {
          "reference": "urn:uuid:da7012e3-d124-45fc-987d-8b9cbef18881"
        }
      }
    },
    {
      "fullUrl": "urn:uuid:a1b15823-ef98-44c9-9221-141de99a0c31",
      "resource": {
        "resourceType": "Device",
        "id": "a1b15823-ef98-44c9-9221-141de99a0c31",
        "deviceName": [
          {
            "name": "SYNDERAI Synthetic Generator",
            "type": "manufacturer-name"
          }
        ],
        "version": [
          {
            "value": "5.0"
          }
        ],
        "text": {
          "status": "generated",
          "div": "<div xmlns=\"http://www.w3.org/1999/xhtml\">SYNDERAI Synthetic Generator v5.0</div>"
        },
        "status": "active\"",
        "distinctIdentifier": "synderai-generator-50",
        "manufacturer": "SYNDERAI Project"
      }
    },
    {
      "fullUrl": "urn:uuid:12644374-b526-4050-85af-dcf47596f2fc",
      "resource": {
        "resourceType": "Provenance",
        "id": "12644374-b526-4050-85af-dcf47596f2fc",
        "target": [
          {
            "reference": "Patient/a6de3b77-3a91-4b25-a5e6-507dbcbc3268"
          },
          {
            "reference": "Bundle/86a6dee7-b225-4c0f-91b3-a1473ff6ad76"
          },
          {
            "reference": "Composition/f442738b-2bb7-4925-9a28-5052f7840d48"
          },
          {
            "reference": "PractitionerRole/61b1ab5e-274e-42ed-bc80-09bdf3d967cd"
          },
          {
            "reference": "Practitioner/7ee29dfa-e4f9-4b16-a8ba-21cc9d9d4a98"
          },
          {
            "reference": "PractitionerRole/458859b1-7168-49f2-9c19-c3766c8f6d25"
          },
          {
            "reference": "Organization/89eb4435-1b0b-418f-b08c-b5711576309a"
          }
        ],
        "activity": {
          "text": "Synthetic Example Data Generation"
        },
        "policy": [
          "https://synderai.net/synderai-synthetic-data-policy"
        ],
        "agent": [
          {
            "type": {
              "text": "author"
            },
            "who": {
              "reference": "Device/a1b15823-ef98-44c9-9221-141de99a0c31"
            }
          }
        ],
        "reason": [
          {
            "text": "Interoperability Testing and Training (non-clinical use)"
          }
        ],
        "text": {
          "status": "generated",
          "div": "<div xmlns=\"http://www.w3.org/1999/xhtml\">Provenance for SYNDERAI Synthetic Example Data Resource</div>"
        },
        "recorded": "2020-09-08T01:04:23Z"
      }
    },
    {
      "fullUrl": "urn:uuid:61b1ab5e-274e-42ed-bc80-09bdf3d967cd",
      "resource": {
        "resourceType": "PractitionerRole",
        "id": "61b1ab5e-274e-42ed-bc80-09bdf3d967cd",
        "meta": {
          "profile": [
            "http://hl7.eu/fhir/base/StructureDefinition/practitionerRole-eu"
          ]
        },
        "text": {
          "status": "generated",
          "div": "<div xmlns=\"http://www.w3.org/1999/xhtml\">Laboratory Role Id: 61b1ab5e-274e-42ed-bc80-09bdf3d967cd</div>"
        },
        "practitioner": {
          "reference": "urn:uuid:7ee29dfa-e4f9-4b16-a8ba-21cc9d9d4a98"
        }
      }
    },
    {
      "fullUrl": "urn:uuid:7ee29dfa-e4f9-4b16-a8ba-21cc9d9d4a98",
      "resource": {
        "resourceType": "Practitioner",
        "id": "7ee29dfa-e4f9-4b16-a8ba-21cc9d9d4a98",
        "meta": {
          "profile": [
            "http://hl7.eu/fhir/base/StructureDefinition/practitioner-eu"
          ]
        },
        "identifier": [
          {
            "assigner": {
              "display": "HL7 Europe"
            },
            "system": "urn:oid:2.16.840.1.113883.2.51.999",
            "value": "098fd881-3baa-4b6a-82fa-4efda37f8711"
          }
        ],
        "name": [
          {
            "prefix": [
              "dr"
            ],
            "given": [
              "Ex"
            ],
            "family": "Ample"
          }
        ],
        "address": [
          {
            "line": [
              "Laboratoire Central Européenne",
              "Boulevard du Jardin Botanique 32"
            ],
            "postalCode": "1000",
            "city": "Brussels",
            "country": "Belgium"
          }
        ],
        "text": {
          "status": "generated",
          "div": "<div xmlns=\"http://www.w3.org/1999/xhtml\">Laboratory: Laboratoire Central Européenne, 1000 Brussels, Belgium</div>"
        }
      }
    }
  ],
  "type": "document",
  "timestamp": "2020-09-08T01:04:23Z"
}
