{
  "resourceType": "Bundle",
  "id": "8a7ea674-6933-4d7a-b5e2-2f3d0f187dc8",
  "meta": {
    "profile": [
      "http://hl7.eu/fhir/laboratory/StructureDefinition/Bundle-eu-lab"
    ]
  },
  "identifier": {
    "assigner": {
      "display": "HL7 Europe"
    },
    "system": "urn:oid:2.16.840.1.113883.2.51.999",
    "value": "c9b21501-c177-49c1-9fa2-7319fd216309"
  },
  "entry": [
    {
      "fullUrl": "urn:uuid:d741c5d3-f770-4967-a95d-91ef98a613fa",
      "resource": {
        "resourceType": "Composition",
        "id": "d741c5d3-f770-4967-a95d-91ef98a613fa",
        "meta": {
          "profile": [
            "http://hl7.eu/fhir/laboratory/StructureDefinition/Composition-eu-lab"
          ]
        },
        "identifier": {
          "assigner": {
            "display": "HL7 Europe"
          },
          "system": "urn:oid:2.16.840.1.113883.2.51.999",
          "value": "18899a6b-51c8-4207-abf7-dea1c31939eb"
        },
        "author": [
          {
            "reference": "urn:uuid:2e89b106-076b-43ca-a17c-96d1dbf90750"
          }
        ],
        "category": [
          {
            "coding": [
              {
                "code": "26436-6",
                "system": "http://loinc.org",
                "display": "Laboratory studies (set)"
              }
            ]
          }
        ],
        "type": {
          "coding": [
            {
              "code": "11502-2",
              "system": "http://loinc.org",
              "display": "Laboratory report"
            }
          ],
          "text": "Laboratory Report"
        },
        "section": [
          {
            "code": {
              "coding": [
                {
                  "code": "26436-6",
                  "system": "http://loinc.org",
                  "display": "Laboratory studies (set)"
                }
              ],
              "text": "Laboratory studies"
            },
            "section": [
              {
                "code": {
                  "coding": [
                    {
                      "code": "$18719-5",
                      "system": "http://loinc.org",
                      "display": "Chemistry studies (set)"
                    }
                  ],
                  "text": "Chemistry"
                },
                "entry": [
                  {
                    "reference": "urn:uuid:f68765af-b341-4b9b-b27c-50b7de378b57"
                  }
                ],
                "text": {
                  "status": "generated",
                  "div": "<div xmlns=\"http://www.w3.org/1999/xhtml\"><h3>Chemistry</h3><table class=\"hl7__eu__lab__report\"><thead><tr><th>Test</th><th>05-FEB-2021</th><th>Reference&#xA0;Range</th><th>Unit</th></tr></thead><tbody><tr><td>Hemoglobin.gastrointestinal.lower [Presence] in Stool by Immunoassay --1st specimen</td><td><strong>452.6 H</strong></td><td>0 - 0</td><td>ng/mL</td></tr></tbody></table></div>"
                },
                "title": "Chemistry"
              },
              {
                "code": {
                  "coding": [
                    {
                      "code": "$LP207911-1",
                      "system": "http://loinc.org",
                      "display": "Cancer pathology panel"
                    }
                  ],
                  "text": "Cancer pathology panel"
                },
                "entry": [
                  {
                    "reference": "urn:uuid:4a972ce5-8a3c-4f1c-8dba-5d7d2cf0eb0b"
                  }
                ],
                "text": {
                  "status": "generated",
                  "div": "<div xmlns=\"http://www.w3.org/1999/xhtml\"><h3>Cancer pathology panel</h3><table class=\"hl7__eu__lab__report\"><thead><tr><th>Test</th><th>05-FEB-2021</th><th>Reference&#xA0;Range</th><th>Unit</th></tr></thead><tbody><tr><td>Polyp size greatest dimension</td><td><strong>11.1 H</strong></td><td>0 - 10</td><td>mm</td></tr></tbody></table></div>"
                },
                "title": "Cancer pathology panel"
              }
            ],
            "title": "Laboratory Report"
          },
          {
            "text": {
              "status": "generated",
              "div": "<div xmlns=\"http://www.w3.org/1999/xhtml\"><h3>Annotation</h3><table class=\"hl7__eu__lab__report\"><tr><th>Conclusion and Recommendations based on this report and previous findings known to us</th></tr><tr><td>The patient shows a colonic polyp larger than the normal upper limit and a positive fecal immunochemical test (FIT) with significantly elevated hemoglobin in stool, indicating gastrointestinal bleeding. These findings are suggestive of a high risk for colorectal neoplasia and warrant prompt gastroenterological evaluation, including colonoscopy and possible biopsy.</td></tr></table></div>"
            },
            "code": {
              "coding": [
                {
                  "system": "http://loinc.org",
                  "code": "48767-8",
                  "display": "Annotation comment"
                }
              ]
            },
            "title": "Annotation comment"
          }
        ],
        "status": "final",
        "subject": {
          "reference": "urn:uuid:d977b369-6b28-46b5-ae79-12a385ff17f1",
          "display": "Maria Nohlmans"
        },
        "date": "2021-02-05T16:47:43Z",
        "title": "Laboratory Report",
        "confidentiality": "N"
      }
    },
    {
      "fullUrl": "urn:uuid:c47cfe12-9d93-433f-818f-8b2b3a00923b",
      "resource": {
        "resourceType": "DiagnosticReport",
        "id": "c47cfe12-9d93-433f-818f-8b2b3a00923b",
        "meta": {
          "profile": [
            "http://hl7.eu/fhir/laboratory/StructureDefinition/DiagnosticReport-eu-lab"
          ]
        },
        "identifier": [
          {
            "assigner": {
              "display": "HL7 Europe"
            },
            "system": "urn:oid:2.16.840.1.113883.2.51.999",
            "value": "81ef9661-bcfa-4932-9cc6-10d5a75149e9"
          }
        ],
        "extension": [
          {
            "url": "http://hl7.org/fhir/5.0/StructureDefinition/extension-DiagnosticReport.composition",
            "valueReference": {
              "reference": "urn:uuid:18899a6b-51c8-4207-abf7-dea1c31939eb"
            }
          }
        ],
        "category": [
          {
            "coding": [
              {
                "code": "26436-6",
                "system": "http://loinc.org",
                "display": "Laboratory studies (set)"
              }
            ]
          }
        ],
        "specimen": [
          {
            "reference": "urn:uuid:0ca8dc03-8afe-42ff-8712-9ac3b28e1eeb"
          },
          {
            "reference": "urn:uuid:3894d96a-4792-4845-a1f1-b93b72692e05"
          }
        ],
        "result": [
          {
            "reference": "urn:uuid:4a972ce5-8a3c-4f1c-8dba-5d7d2cf0eb0b"
          },
          {
            "reference": "urn:uuid:f68765af-b341-4b9b-b27c-50b7de378b57"
          }
        ],
        "status": "registered",
        "code": {
          "coding": [
            {
              "code": "11502-2",
              "system": "http://loinc.org",
              "display": "Laboratory report"
            }
          ]
        },
        "subject": {
          "reference": "urn:uuid:d977b369-6b28-46b5-ae79-12a385ff17f1",
          "display": "Maria Nohlmans"
        }
      }
    },
    {
      "fullUrl": "urn:uuid:d977b369-6b28-46b5-ae79-12a385ff17f1",
      "resource": {
        "resourceType": "Patient",
        "id": "d977b369-6b28-46b5-ae79-12a385ff17f1",
        "meta": {
          "security": [
            {
              "system": "http://terminology.hl7.org/CodeSystem/v3-ActReason",
              "code": "HTEST"
            },
            {
              "system": "http://terminology.hl7.org/CodeSystem/v3-ActReason",
              "code": "TRAIN"
            }
          ],
          "tag": [
            {
              "system": "https://synderai.net/fhir/CodeSystem/tags",
              "code": "synthetic",
              "display": "SYNDERAI Synthetic data"
            }
          ],
          "profile": [
            "http://hl7.eu/fhir/base/StructureDefinition/patient-eu-core"
          ]
        },
        "identifier": [
          {
            "type": {
              "coding": [
                {
                  "code": "PT",
                  "system": "http://terminology.hl7.org/CodeSystem/v2-0203"
                }
              ]
            },
            "system": "http://ec.europa.eu/identifier/eci",
            "value": "6886-506417-1"
          },
          {
            "type": {
              "coding": [
                {
                  "code": "MR",
                  "system": "http://terminology.hl7.org/CodeSystem/v2-0203"
                }
              ]
            },
            "system": "http://local.setting.eu/identifier",
            "value": "2cb21ed6-b617-b1f3-2290-589a710de5ee"
          }
        ],
        "name": [
          {
            "family": "Nohlmans"
          },
          {
            "given": [
              "Maria"
            ]
          },
          {
            "text": "Maria Nohlmans"
          }
        ],
        "address": [
          {
            "line": [
              "Alfons-Wulff-Weg 1"
            ],
            "use": "home",
            "type": "physical",
            "postalCode": "25813",
            "city": "Husum",
            "country": "Germany"
          }
        ],
        "telecom": [
          {
            "system": "phone",
            "value": "+49(0)1911 105501"
          }
        ],
        "extension": [
          {
            "url": "http://hl7.org/fhir/StructureDefinition/patient-nationality",
            "valueCodeableConcept": {
              "coding": [
                {
                  "code": "DE",
                  "system": "http://hl7.org/fhir/ValueSet/country"
                }
              ]
            }
          }
        ],
        "text": {
          "status": "generated",
          "div": "<div xmlns=\"http://www.w3.org/1999/xhtml\"><table class=\"hl7__ips\"><tr><td>Maria Nohlmans</td><td>female</td><td>11-Jun-1947</td></tr></table></div>"
        },
        "gender": "female",
        "birthDate": "1947-06-11"
      }
    },
    {
      "fullUrl": "urn:uuid:ff6976fa-965f-46a0-a63b-5728a7981035",
      "resource": {
        "resourceType": "ServiceRequest",
        "id": "ff6976fa-965f-46a0-a63b-5728a7981035",
        "meta": {
          "profile": [
            "http://hl7.eu/fhir/laboratory/StructureDefinition/ServiceRequest-eu-lab"
          ]
        },
        "identifier": [
          {
            "system": "http://example.org",
            "value": "c0f91150-22e4-425b-90cc-6d215ee5fa21"
          }
        ],
        "specimen": [
          {
            "reference": "urn:uuid:0ca8dc03-8afe-42ff-8712-9ac3b28e1eeb"
          },
          {
            "reference": "urn:uuid:3894d96a-4792-4845-a1f1-b93b72692e05"
          }
        ],
        "reasonCode": [
          {
            "coding": [
              {
                "code": "401314000",
                "system": "http://snomed.info/sct",
                "display": "Acute non-ST segment elevation myocardial infarction"
              }
            ]
          },
          {
            "coding": [
              {
                "code": "157141000119108",
                "system": "http://snomed.info/sct",
                "display": "Proteinuria due to type 2 diabetes mellitus"
              }
            ]
          },
          {
            "coding": [
              {
                "code": "237602007",
                "system": "http://snomed.info/sct",
                "display": "Metabolic syndrome X"
              }
            ]
          },
          {
            "coding": [
              {
                "code": "90781000119102",
                "system": "http://snomed.info/sct",
                "display": "Microalbuminuria due to type 2 diabetes mellitus"
              }
            ]
          },
          {
            "coding": [
              {
                "code": "127013003",
                "system": "http://snomed.info/sct",
                "display": "Disorder of kidney due to diabetes mellitus"
              }
            ]
          },
          {
            "coding": [
              {
                "code": "59621000",
                "system": "http://snomed.info/sct",
                "display": "Essential hypertension"
              }
            ]
          },
          {
            "coding": [
              {
                "code": "271737000",
                "system": "http://snomed.info/sct",
                "display": "Anemia"
              }
            ]
          },
          {
            "coding": [
              {
                "code": "15777000",
                "system": "http://snomed.info/sct",
                "display": "Prediabetes"
              }
            ]
          }
        ],
        "status": "active",
        "intent": "order",
        "code": {
          "coding": [
            {
              "code": "108252007",
              "system": "http://snomed.info/sct",
              "display": "Laboratory procedure"
            }
          ]
        },
        "subject": {
          "reference": "urn:uuid:d977b369-6b28-46b5-ae79-12a385ff17f1",
          "display": "Maria Nohlmans"
        },
        "requester": {
          "reference": "urn:uuid:5d901278-d766-4ad7-8273-a48a24bc5563"
        }
      }
    },
    {
      "fullUrl": "urn:uuid:5d901278-d766-4ad7-8273-a48a24bc5563",
      "resource": {
        "resourceType": "PractitionerRole",
        "id": "5d901278-d766-4ad7-8273-a48a24bc5563",
        "meta": {
          "profile": [
            "http://hl7.eu/fhir/base/StructureDefinition/practitionerRole-eu"
          ]
        },
        "text": {
          "status": "generated",
          "div": "<div xmlns=\"http://www.w3.org/1999/xhtml\">Provider Role Id: 5d901278-d766-4ad7-8273-a48a24bc5563</div>"
        },
        "organization": {
          "reference": "urn:uuid:83f41482-d22c-47fc-afaf-b80a8740c72a"
        }
      }
    },
    {
      "fullUrl": "urn:uuid:83f41482-d22c-47fc-afaf-b80a8740c72a",
      "resource": {
        "resourceType": "Organization",
        "id": "83f41482-d22c-47fc-afaf-b80a8740c72a",
        "meta": {
          "profile": [
            "http://hl7.eu/fhir/base/StructureDefinition/organization-eu"
          ]
        },
        "identifier": [
          {
            "assigner": {
              "display": "HL7 Europe"
            },
            "system": "urn:oid:2.16.840.1.113883.2.51.999",
            "value": "a3dcd73a-b7a1-4180-9641-c68e8b696dd3"
          }
        ],
        "address": [
          {
            "line": [
              "Brinckmannstraße 35"
            ],
            "city": "Husum",
            "postalCode": "25813",
            "country": "Germany"
          }
        ],
        "text": {
          "status": "generated",
          "div": "<div xmlns=\"http://www.w3.org/1999/xhtml\">Provider Organization: Dr. Wolfram Hussels Kieferorthopäde</div>"
        },
        "name": "Dr. Wolfram Hussels Kieferorthopäde"
      }
    },
    {
      "fullUrl": "urn:uuid:0ca8dc03-8afe-42ff-8712-9ac3b28e1eeb",
      "resource": {
        "resourceType": "Specimen",
        "id": "0ca8dc03-8afe-42ff-8712-9ac3b28e1eeb",
        "meta": {
          "profile": [
            "http://hl7.eu/fhir/laboratory/StructureDefinition/Specimen-eu-lab"
          ]
        },
        "collection": {
          "collectedDateTime": "2021-02-05"
        },
        "text": {
          "status": "generated",
          "div": "<div xmlns=\"http://www.w3.org/1999/xhtml\"><table class=\"hl7__eu__lab__report\"><tr><th>Specimen</th><th>Collection Date</th></tr><tr><td>Specimen (specimen)</td><td><span class=\"nb\">05-Feb-2021</span></td></tr></table></div>"
        },
        "type": {
          "coding": [
            {
              "code": "123038009",
              "system": "http://snomed.info/sct",
              "display": "Specimen (specimen)"
            }
          ]
        }
      }
    },
    {
      "fullUrl": "urn:uuid:3894d96a-4792-4845-a1f1-b93b72692e05",
      "resource": {
        "resourceType": "Specimen",
        "id": "3894d96a-4792-4845-a1f1-b93b72692e05",
        "meta": {
          "profile": [
            "http://hl7.eu/fhir/laboratory/StructureDefinition/Specimen-eu-lab"
          ]
        },
        "collection": {
          "collectedDateTime": "2021-02-05"
        },
        "text": {
          "status": "generated",
          "div": "<div xmlns=\"http://www.w3.org/1999/xhtml\"><table class=\"hl7__eu__lab__report\"><tr><th>Specimen</th><th>Collection Date</th></tr><tr><td>Feces specimen</td><td><span class=\"nb\">05-Feb-2021</span></td></tr></table></div>"
        },
        "type": {
          "coding": [
            {
              "code": "119339001",
              "system": "http://snomed.info/sct",
              "display": "Feces specimen"
            }
          ]
        }
      }
    },
    {
      "fullUrl": "urn:uuid:4a972ce5-8a3c-4f1c-8dba-5d7d2cf0eb0b",
      "resource": {
        "resourceType": "Observation",
        "id": "4a972ce5-8a3c-4f1c-8dba-5d7d2cf0eb0b",
        "meta": {
          "profile": [
            "http://hl7.eu/fhir/laboratory/StructureDefinition/Observation-resultslab-eu-lab"
          ]
        },
        "performer": [
          {
            "display": "The Central European Lab"
          }
        ],
        "category": [
          {
            "coding": [
              {
                "system": "http://terminology.hl7.org/CodeSystem/observation-category",
                "code": "laboratory"
              }
            ]
          }
        ],
        "code": {
          "coding": [
            {
              "code": "33756-8",
              "system": "http://loinc.org",
              "display": "Polyp size greatest dimension"
            }
          ],
          "text": "Polyp size greatest dimension"
        },
        "valueQuantity": {
          "system": "http://unitsofmeasure.org",
          "value": 11.1,
          "unit": "mm",
          "code": "mm"
        },
        "referenceRange": [
          {
            "low": {
              "value": 0,
              "code": "mm",
              "system": "http://unitsofmeasure.org"
            }
          },
          {
            "high": {
              "value": 10,
              "code": "mm",
              "system": "http://unitsofmeasure.org"
            }
          }
        ],
        "interpretation": [
          {
            "coding": [
              {
                "code": "H",
                "system": "http://terminology.hl7.org/CodeSystem/v3-ObservationInterpretation",
                "display": "High"
              }
            ]
          }
        ],
        "text": {
          "status": "generated",
          "div": "<div xmlns=\"http://www.w3.org/1999/xhtml\"><table class=\"hl7__eu__lab__report\"><tr><th>Test</th><th>05-Feb-2021</th><th>Reference&#xA0;Range</th><th>Unit</th></tr><tr><td>Polyp size greatest dimension</td><td>11.1</td><td>0 - 10</td><td>H</td><td>mm</td></tr></table></div>"
        },
        "status": "final",
        "subject": {
          "reference": "urn:uuid:d977b369-6b28-46b5-ae79-12a385ff17f1",
          "display": "Maria Nohlmans"
        },
        "effectiveDateTime": "2021-02-05T15:47:43Z",
        "specimen": {
          "reference": "urn:uuid:0ca8dc03-8afe-42ff-8712-9ac3b28e1eeb"
        }
      }
    },
    {
      "fullUrl": "urn:uuid:f68765af-b341-4b9b-b27c-50b7de378b57",
      "resource": {
        "resourceType": "Observation",
        "id": "f68765af-b341-4b9b-b27c-50b7de378b57",
        "meta": {
          "profile": [
            "http://hl7.eu/fhir/laboratory/StructureDefinition/Observation-resultslab-eu-lab"
          ]
        },
        "performer": [
          {
            "display": "The Central European Lab"
          }
        ],
        "category": [
          {
            "coding": [
              {
                "system": "http://terminology.hl7.org/CodeSystem/observation-category",
                "code": "laboratory"
              }
            ]
          }
        ],
        "code": {
          "coding": [
            {
              "code": "57905-2",
              "system": "http://loinc.org",
              "display": "Hemoglobin.gastrointestinal.lower [Presence] in Stool by Immunoassay --1st specimen"
            }
          ],
          "text": "Hemoglobin.gastrointestinal.lower [Presence] in Stool by Immunoassay --1st specimen"
        },
        "valueQuantity": {
          "system": "http://unitsofmeasure.org",
          "value": 452.6,
          "unit": "ng/mL",
          "code": "ng/mL"
        },
        "referenceRange": [
          {
            "low": {
              "value": 0,
              "code": "ng/mL",
              "system": "http://unitsofmeasure.org"
            }
          },
          {
            "high": {
              "value": 0,
              "code": "ng/mL",
              "system": "http://unitsofmeasure.org"
            }
          }
        ],
        "interpretation": [
          {
            "coding": [
              {
                "code": "H",
                "system": "http://terminology.hl7.org/CodeSystem/v3-ObservationInterpretation",
                "display": "High"
              }
            ]
          }
        ],
        "text": {
          "status": "generated",
          "div": "<div xmlns=\"http://www.w3.org/1999/xhtml\"><table class=\"hl7__eu__lab__report\"><tr><th>Test</th><th>05-Feb-2021</th><th>Reference&#xA0;Range</th><th>Unit</th></tr><tr><td>Hemoglobin.gastrointestinal.lower [Presence] in Stool by Immunoassay --1st specimen</td><td>452.6</td><td>0 - 0</td><td>H</td><td>ng/mL</td></tr></table></div>"
        },
        "status": "final",
        "subject": {
          "reference": "urn:uuid:d977b369-6b28-46b5-ae79-12a385ff17f1",
          "display": "Maria Nohlmans"
        },
        "effectiveDateTime": "2021-02-05T15:47:43Z",
        "specimen": {
          "reference": "urn:uuid:3894d96a-4792-4845-a1f1-b93b72692e05"
        }
      }
    },
    {
      "fullUrl": "urn:uuid:b75cbc2a-ae01-4a0b-a3d1-5ab2e8969d39",
      "resource": {
        "resourceType": "Device",
        "id": "b75cbc2a-ae01-4a0b-a3d1-5ab2e8969d39",
        "deviceName": [
          {
            "name": "SYNDERAI Synthetic Generator",
            "type": "manufacturer-name"
          }
        ],
        "version": [
          {
            "value": "5.0"
          }
        ],
        "text": {
          "status": "generated",
          "div": "<div xmlns=\"http://www.w3.org/1999/xhtml\">SYNDERAI Synthetic Generator v5.0</div>"
        },
        "status": "active\"",
        "distinctIdentifier": "synderai-generator-50",
        "manufacturer": "SYNDERAI Project"
      }
    },
    {
      "fullUrl": "urn:uuid:dcf47211-8580-439e-856a-6b6af03027e3",
      "resource": {
        "resourceType": "Provenance",
        "id": "dcf47211-8580-439e-856a-6b6af03027e3",
        "target": [
          {
            "reference": "Patient/d977b369-6b28-46b5-ae79-12a385ff17f1"
          },
          {
            "reference": "Bundle/8a7ea674-6933-4d7a-b5e2-2f3d0f187dc8"
          },
          {
            "reference": "Composition/d741c5d3-f770-4967-a95d-91ef98a613fa"
          },
          {
            "reference": "PractitionerRole/2e89b106-076b-43ca-a17c-96d1dbf90750"
          },
          {
            "reference": "Practitioner/a3ba8902-f6e7-46bd-a70e-33943146843b"
          },
          {
            "reference": "PractitionerRole/5d901278-d766-4ad7-8273-a48a24bc5563"
          },
          {
            "reference": "Organization/83f41482-d22c-47fc-afaf-b80a8740c72a"
          }
        ],
        "activity": {
          "text": "Synthetic Example Data Generation"
        },
        "policy": [
          "https://synderai.net/synderai-synthetic-data-policy"
        ],
        "agent": [
          {
            "type": {
              "text": "author"
            },
            "who": {
              "reference": "Device/b75cbc2a-ae01-4a0b-a3d1-5ab2e8969d39"
            }
          }
        ],
        "reason": [
          {
            "text": "Interoperability Testing and Training (non-clinical use)"
          }
        ],
        "text": {
          "status": "generated",
          "div": "<div xmlns=\"http://www.w3.org/1999/xhtml\">Provenance for SYNDERAI Synthetic Example Data Resource</div>"
        },
        "recorded": "2021-02-05T16:47:43Z"
      }
    },
    {
      "fullUrl": "urn:uuid:2e89b106-076b-43ca-a17c-96d1dbf90750",
      "resource": {
        "resourceType": "PractitionerRole",
        "id": "2e89b106-076b-43ca-a17c-96d1dbf90750",
        "meta": {
          "profile": [
            "http://hl7.eu/fhir/base/StructureDefinition/practitionerRole-eu"
          ]
        },
        "text": {
          "status": "generated",
          "div": "<div xmlns=\"http://www.w3.org/1999/xhtml\">Laboratory Role Id: 2e89b106-076b-43ca-a17c-96d1dbf90750</div>"
        },
        "practitioner": {
          "reference": "urn:uuid:a3ba8902-f6e7-46bd-a70e-33943146843b"
        }
      }
    },
    {
      "fullUrl": "urn:uuid:a3ba8902-f6e7-46bd-a70e-33943146843b",
      "resource": {
        "resourceType": "Practitioner",
        "id": "a3ba8902-f6e7-46bd-a70e-33943146843b",
        "meta": {
          "profile": [
            "http://hl7.eu/fhir/base/StructureDefinition/practitioner-eu"
          ]
        },
        "identifier": [
          {
            "assigner": {
              "display": "HL7 Europe"
            },
            "system": "urn:oid:2.16.840.1.113883.2.51.999",
            "value": "f32a6d4b-0c15-49e5-b316-2a9ed96a5266"
          }
        ],
        "name": [
          {
            "prefix": [
              "dr"
            ],
            "given": [
              "Ex"
            ],
            "family": "Ample"
          }
        ],
        "address": [
          {
            "line": [
              "Laboratoire Central Européenne",
              "Boulevard du Jardin Botanique 32"
            ],
            "postalCode": "1000",
            "city": "Brussels",
            "country": "Belgium"
          }
        ],
        "text": {
          "status": "generated",
          "div": "<div xmlns=\"http://www.w3.org/1999/xhtml\">Laboratory: Laboratoire Central Européenne, 1000 Brussels, Belgium</div>"
        }
      }
    }
  ],
  "type": "document",
  "timestamp": "2021-02-05T16:47:43Z"
}
