{
  "resourceType": "Bundle",
  "id": "1bfa63d7-a977-4e80-86ff-32a5bdbb858f",
  "meta": {
    "profile": [
      "http://hl7.eu/fhir/laboratory/StructureDefinition/Bundle-eu-lab"
    ]
  },
  "identifier": {
    "assigner": {
      "display": "HL7 Europe"
    },
    "system": "urn:oid:2.16.840.1.113883.2.51.999",
    "value": "9798f4b0-a28f-43a0-b4ec-4a4e622e10bf"
  },
  "entry": [
    {
      "fullUrl": "urn:uuid:360950b6-02ed-4923-8508-97296ff6fa95",
      "resource": {
        "resourceType": "Composition",
        "id": "360950b6-02ed-4923-8508-97296ff6fa95",
        "meta": {
          "profile": [
            "http://hl7.eu/fhir/laboratory/StructureDefinition/Composition-eu-lab"
          ]
        },
        "identifier": {
          "assigner": {
            "display": "HL7 Europe"
          },
          "system": "urn:oid:2.16.840.1.113883.2.51.999",
          "value": "9b714387-2cfe-4653-9818-b3db1993a376"
        },
        "author": [
          {
            "reference": "urn:uuid:44d248a7-52d9-4a25-943f-efda582dad3e"
          }
        ],
        "category": [
          {
            "coding": [
              {
                "code": "26436-6",
                "system": "http://loinc.org",
                "display": "Laboratory studies (set)"
              }
            ]
          }
        ],
        "type": {
          "coding": [
            {
              "code": "11502-2",
              "system": "http://loinc.org",
              "display": "Laboratory report"
            }
          ],
          "text": "Laboratory Report"
        },
        "section": [
          {
            "code": {
              "coding": [
                {
                  "code": "26436-6",
                  "system": "http://loinc.org",
                  "display": "Laboratory studies (set)"
                }
              ],
              "text": "Laboratory studies"
            },
            "section": [
              {
                "code": {
                  "coding": [
                    {
                      "code": "$18719-5",
                      "system": "http://loinc.org",
                      "display": "Chemistry studies (set)"
                    }
                  ],
                  "text": "Chemistry"
                },
                "entry": [
                  {
                    "reference": "urn:uuid:24d33157-e93b-44ee-9887-42d871481e12"
                  },
                  {
                    "reference": "urn:uuid:3347fca5-338c-485c-b532-8bd711e14aca"
                  },
                  {
                    "reference": "urn:uuid:f6fa5404-cbad-4f59-93e0-67f26167e8ca"
                  },
                  {
                    "reference": "urn:uuid:7437aad0-07be-44c6-b67d-c637e66d32b0"
                  },
                  {
                    "reference": "urn:uuid:7484d3fc-7d09-4ac8-b911-66937af832e1"
                  },
                  {
                    "reference": "urn:uuid:04574992-8265-4166-934e-34561f175ddf"
                  },
                  {
                    "reference": "urn:uuid:8f554bb3-e6f4-4c50-a24c-3e7a29e1cebf"
                  },
                  {
                    "reference": "urn:uuid:9e5a71d8-f3e8-4752-b053-0b7d99df5dce"
                  },
                  {
                    "reference": "urn:uuid:b8cecba4-fc9b-4f85-b6ad-c3edfa1c7de8"
                  },
                  {
                    "reference": "urn:uuid:701f603d-de82-4f7d-952b-fc8d30cfd083"
                  },
                  {
                    "reference": "urn:uuid:9fbfffba-1c8f-448a-8c6c-f431018745c6"
                  },
                  {
                    "reference": "urn:uuid:c0f38a51-eb13-4af5-81bd-5cfca2c75fb2"
                  },
                  {
                    "reference": "urn:uuid:3312172a-8e2f-4473-9851-6f0fc815ae2d"
                  },
                  {
                    "reference": "urn:uuid:b877e3aa-66b8-4599-8f6d-a08ce7c7fde2"
                  },
                  {
                    "reference": "urn:uuid:56b1cfa2-8192-4762-868e-fb34c11f3473"
                  },
                  {
                    "reference": "urn:uuid:c897e2be-842e-4cda-8f99-a61fe00a6419"
                  },
                  {
                    "reference": "urn:uuid:d1a8f2fd-b079-4e63-b37e-6b159541edde"
                  },
                  {
                    "reference": "urn:uuid:c541d1c9-d6b0-4267-a924-b584102bdfd7"
                  },
                  {
                    "reference": "urn:uuid:98e8ba80-df85-42ae-8534-a66f432554d8"
                  }
                ],
                "text": {
                  "status": "generated",
                  "div": "<div xmlns=\"http://www.w3.org/1999/xhtml\"><h3>Chemistry</h3><table class=\"hl7__eu__lab__report\"><thead><tr><th>Test</th><th>16-JUL-2025</th><th>Reference&#xA0;Range</th><th>Unit</th></tr></thead><tbody><tr><td>Glucose [Mass/volume] in Blood</td><td>75.1</td><td>70 - 100</td><td>mg/dL</td></tr><tr><td>Urea nitrogen [Mass/volume] in Blood</td><td>18.0</td><td>7 - 43</td><td>mg/dL</td></tr><tr><td>Creatinine [Mass/volume] in Blood</td><td><strong>2.9 H</strong></td><td>0.6 - 1.1</td><td>mg/dL</td></tr><tr><td>Calcium [Mass/volume] in Blood</td><td>9.8</td><td>8.5 - 10.5</td><td>mg/dL</td></tr><tr><td>Sodium [Moles/volume] in Blood</td><td>137.5</td><td>135 - 145</td><td>mmol/L</td></tr><tr><td>Potassium [Moles/volume] in Blood</td><td>4.6</td><td>3.5 - 5.1</td><td>mmol/L</td></tr><tr><td>Chloride [Moles/volume] in Blood</td><td>105.3</td><td>98 - 108</td><td>mmol/L</td></tr><tr><td>Carbon dioxide, total [Moles/volume] in Blood</td><td>25.3</td><td>22 - 29</td><td>mmol/L</td></tr><tr><td>Protein [Mass/volume] in Serum or Plasma</td><td>6.7</td><td>6 - 8.3</td><td>g/dL</td></tr><tr><td>Albumin [Mass/volume] in Serum or Plasma</td><td>5.2</td><td>3.5 - 5.5</td><td>g/dL</td></tr><tr><td>Globulin [Mass/volume] in Serum by calculation</td><td>3.2</td><td>2 - 3.5</td><td>g/L</td></tr><tr><td>Bilirubin.total [Mass/volume] in Serum or Plasma</td><td><strong>0.1 L</strong></td><td>0.3 - 1.2</td><td>mg/dL</td></tr><tr><td>Alkaline phosphatase [Enzymatic activity/volume] in Serum or Plasma</td><td>80.2</td><td>44 - 130</td><td>U/L</td></tr><tr><td>Alanine aminotransferase [Enzymatic activity/volume] in Serum or Plasma</td><td>53.4</td><td>0 - 55</td><td>U/L</td></tr><tr><td>Aspartate aminotransferase [Enzymatic activity/volume] in Serum or Plasma</td><td>10.6</td><td>10 - 40</td><td>U/L</td></tr><tr><td>Cholesterol [Mass/volume] in Serum or Plasma</td><td>199.1</td><td>125 - 239</td><td>mg/dL</td></tr><tr><td>Triglyceride [Mass/volume] in Serum or Plasma</td><td>113.4</td><td></td><td>mg/dL</td></tr><tr><td>Cholesterol in LDL [Mass/volume] in Serum or Plasma by Direct assay</td><td><strong>142.4 H</strong></td><td>0 - 130</td><td>mg/dL</td></tr><tr><td>Cholesterol in HDL [Mass/volume] in Serum or Plasma</td><td>74.2</td><td>50 - 100</td><td>mg/dL</td></tr></tbody></table></div>"
                },
                "title": "Chemistry"
              }
            ],
            "title": "Laboratory Report"
          },
          {
            "text": {
              "status": "generated",
              "div": "<div xmlns=\"http://www.w3.org/1999/xhtml\"><h3>Annotation</h3><table class=\"hl7__eu__lab__report\"><tr><th>Conclusion and Recommendations based on this report and previous findings known to us</th></tr><tr><td>The patient shows significantly elevated creatinine, indicating impaired renal function, and elevated LDL cholesterol, which increases cardiovascular risk. Total bilirubin is slightly below normal but not clinically concerning. All other parameters, including liver enzymes, electrolytes, glucose, and protein levels, are within normal limits. Renal function and lipid profile require further clinical evaluation and management.</td></tr></table></div>"
            },
            "code": {
              "coding": [
                {
                  "system": "http://loinc.org",
                  "code": "48767-8",
                  "display": "Annotation comment"
                }
              ]
            },
            "title": "Annotation comment"
          }
        ],
        "status": "final",
        "subject": {
          "reference": "urn:uuid:60cbf859-e2f0-4db1-953a-4f3c7b40e4f3",
          "display": "Meaghan Neary"
        },
        "date": "2025-07-16T00:11:04Z",
        "title": "Laboratory Report",
        "confidentiality": "N"
      }
    },
    {
      "fullUrl": "urn:uuid:268e452a-08df-482e-9d33-0fc7fac1ba22",
      "resource": {
        "resourceType": "DiagnosticReport",
        "id": "268e452a-08df-482e-9d33-0fc7fac1ba22",
        "meta": {
          "profile": [
            "http://hl7.eu/fhir/laboratory/StructureDefinition/DiagnosticReport-eu-lab"
          ]
        },
        "identifier": [
          {
            "assigner": {
              "display": "HL7 Europe"
            },
            "system": "urn:oid:2.16.840.1.113883.2.51.999",
            "value": "e465c819-3eaf-4743-a832-40be8f05214b"
          }
        ],
        "extension": [
          {
            "url": "http://hl7.org/fhir/5.0/StructureDefinition/extension-DiagnosticReport.composition",
            "valueReference": {
              "reference": "urn:uuid:9b714387-2cfe-4653-9818-b3db1993a376"
            }
          }
        ],
        "category": [
          {
            "coding": [
              {
                "code": "26436-6",
                "system": "http://loinc.org",
                "display": "Laboratory studies (set)"
              }
            ]
          }
        ],
        "specimen": [
          {
            "reference": "urn:uuid:aa91627d-38bf-4d74-b495-158be5e4b780"
          },
          {
            "reference": "urn:uuid:dc49133b-667e-4428-a4f7-1d3f64f653c8"
          },
          {
            "reference": "urn:uuid:ea2ffe8f-a43a-4bb1-8210-2fce3dfbefee"
          }
        ],
        "result": [
          {
            "reference": "urn:uuid:24d33157-e93b-44ee-9887-42d871481e12"
          },
          {
            "reference": "urn:uuid:3347fca5-338c-485c-b532-8bd711e14aca"
          },
          {
            "reference": "urn:uuid:f6fa5404-cbad-4f59-93e0-67f26167e8ca"
          },
          {
            "reference": "urn:uuid:7437aad0-07be-44c6-b67d-c637e66d32b0"
          },
          {
            "reference": "urn:uuid:7484d3fc-7d09-4ac8-b911-66937af832e1"
          },
          {
            "reference": "urn:uuid:04574992-8265-4166-934e-34561f175ddf"
          },
          {
            "reference": "urn:uuid:8f554bb3-e6f4-4c50-a24c-3e7a29e1cebf"
          },
          {
            "reference": "urn:uuid:9e5a71d8-f3e8-4752-b053-0b7d99df5dce"
          },
          {
            "reference": "urn:uuid:b8cecba4-fc9b-4f85-b6ad-c3edfa1c7de8"
          },
          {
            "reference": "urn:uuid:701f603d-de82-4f7d-952b-fc8d30cfd083"
          },
          {
            "reference": "urn:uuid:9fbfffba-1c8f-448a-8c6c-f431018745c6"
          },
          {
            "reference": "urn:uuid:c0f38a51-eb13-4af5-81bd-5cfca2c75fb2"
          },
          {
            "reference": "urn:uuid:3312172a-8e2f-4473-9851-6f0fc815ae2d"
          },
          {
            "reference": "urn:uuid:b877e3aa-66b8-4599-8f6d-a08ce7c7fde2"
          },
          {
            "reference": "urn:uuid:56b1cfa2-8192-4762-868e-fb34c11f3473"
          },
          {
            "reference": "urn:uuid:c897e2be-842e-4cda-8f99-a61fe00a6419"
          },
          {
            "reference": "urn:uuid:d1a8f2fd-b079-4e63-b37e-6b159541edde"
          },
          {
            "reference": "urn:uuid:c541d1c9-d6b0-4267-a924-b584102bdfd7"
          },
          {
            "reference": "urn:uuid:98e8ba80-df85-42ae-8534-a66f432554d8"
          }
        ],
        "status": "registered",
        "code": {
          "coding": [
            {
              "code": "11502-2",
              "system": "http://loinc.org",
              "display": "Laboratory report"
            }
          ]
        },
        "subject": {
          "reference": "urn:uuid:60cbf859-e2f0-4db1-953a-4f3c7b40e4f3",
          "display": "Meaghan Neary"
        }
      }
    },
    {
      "fullUrl": "urn:uuid:60cbf859-e2f0-4db1-953a-4f3c7b40e4f3",
      "resource": {
        "resourceType": "Patient",
        "id": "60cbf859-e2f0-4db1-953a-4f3c7b40e4f3",
        "meta": {
          "security": [
            {
              "system": "http://terminology.hl7.org/CodeSystem/v3-ActReason",
              "code": "HTEST"
            },
            {
              "system": "http://terminology.hl7.org/CodeSystem/v3-ActReason",
              "code": "TRAIN"
            }
          ],
          "tag": [
            {
              "system": "https://synderai.net/fhir/CodeSystem/tags",
              "code": "synthetic",
              "display": "SYNDERAI Synthetic data"
            }
          ],
          "profile": [
            "http://hl7.eu/fhir/base/StructureDefinition/patient-eu-core"
          ]
        },
        "identifier": [
          {
            "type": {
              "coding": [
                {
                  "code": "PT",
                  "system": "http://terminology.hl7.org/CodeSystem/v2-0203"
                }
              ]
            },
            "system": "http://ec.europa.eu/identifier/eci",
            "value": "1586-567257-8"
          },
          {
            "type": {
              "coding": [
                {
                  "code": "MR",
                  "system": "http://terminology.hl7.org/CodeSystem/v2-0203"
                }
              ]
            },
            "system": "http://local.setting.eu/identifier",
            "value": "443e6379-f231-b364-3ccb-644740a1aa2a"
          }
        ],
        "name": [
          {
            "family": "Neary"
          },
          {
            "given": [
              "Meaghan"
            ]
          },
          {
            "text": "Meaghan Neary"
          }
        ],
        "address": [
          {
            "line": [
              "64 Linskey Street"
            ],
            "use": "home",
            "type": "physical",
            "postalCode": "D02",
            "city": "Dublin",
            "country": "Ireland"
          }
        ],
        "telecom": [
          {
            "system": "phone",
            "value": "001-967-573-0911x465"
          }
        ],
        "extension": [
          {
            "url": "http://hl7.org/fhir/StructureDefinition/patient-nationality",
            "valueCodeableConcept": {
              "coding": [
                {
                  "code": "IE",
                  "system": "http://hl7.org/fhir/ValueSet/country"
                }
              ]
            }
          }
        ],
        "text": {
          "status": "generated",
          "div": "<div xmlns=\"http://www.w3.org/1999/xhtml\"><table class=\"hl7__ips\"><tr><td>Meaghan Neary</td><td>female</td><td>19-Dec-1960</td></tr></table></div>"
        },
        "gender": "female",
        "birthDate": "1960-12-19"
      }
    },
    {
      "fullUrl": "urn:uuid:f0d1ee9f-7dda-4dea-9976-7087e4ab676d",
      "resource": {
        "resourceType": "ServiceRequest",
        "id": "f0d1ee9f-7dda-4dea-9976-7087e4ab676d",
        "meta": {
          "profile": [
            "http://hl7.eu/fhir/laboratory/StructureDefinition/ServiceRequest-eu-lab"
          ]
        },
        "identifier": [
          {
            "system": "http://example.org",
            "value": "79001d3b-a10d-4fb3-9f2a-bc47520aaa9c"
          }
        ],
        "specimen": [
          {
            "reference": "urn:uuid:aa91627d-38bf-4d74-b495-158be5e4b780"
          },
          {
            "reference": "urn:uuid:dc49133b-667e-4428-a4f7-1d3f64f653c8"
          },
          {
            "reference": "urn:uuid:ea2ffe8f-a43a-4bb1-8210-2fce3dfbefee"
          }
        ],
        "reasonCode": [
          {
            "coding": [
              {
                "code": "55822004",
                "system": "http://snomed.info/sct",
                "display": "Hyperlipidemia"
              }
            ]
          },
          {
            "coding": [
              {
                "code": "433144002",
                "system": "http://snomed.info/sct",
                "display": "Chronic kidney disease stage 3"
              }
            ]
          },
          {
            "coding": [
              {
                "code": "157141000119108",
                "system": "http://snomed.info/sct",
                "display": "Proteinuria due to type 2 diabetes mellitus"
              }
            ]
          },
          {
            "coding": [
              {
                "code": "431856006",
                "system": "http://snomed.info/sct",
                "display": "Chronic kidney disease stage 2"
              }
            ]
          },
          {
            "coding": [
              {
                "code": "90781000119102",
                "system": "http://snomed.info/sct",
                "display": "Microalbuminuria due to type 2 diabetes mellitus"
              }
            ]
          },
          {
            "coding": [
              {
                "code": "127013003",
                "system": "http://snomed.info/sct",
                "display": "Disorder of kidney due to diabetes mellitus"
              }
            ]
          },
          {
            "coding": [
              {
                "code": "431855005",
                "system": "http://snomed.info/sct",
                "display": "Chronic kidney disease stage 1"
              }
            ]
          },
          {
            "coding": [
              {
                "code": "237602007",
                "system": "http://snomed.info/sct",
                "display": "Metabolic syndrome X"
              }
            ]
          },
          {
            "coding": [
              {
                "code": "271737000",
                "system": "http://snomed.info/sct",
                "display": "Anemia"
              }
            ]
          },
          {
            "coding": [
              {
                "code": "15777000",
                "system": "http://snomed.info/sct",
                "display": "Prediabetes"
              }
            ]
          },
          {
            "coding": [
              {
                "code": "59621000",
                "system": "http://snomed.info/sct",
                "display": "Essential hypertension"
              }
            ]
          }
        ],
        "status": "active",
        "intent": "order",
        "code": {
          "coding": [
            {
              "code": "108252007",
              "system": "http://snomed.info/sct",
              "display": "Laboratory procedure"
            }
          ]
        },
        "subject": {
          "reference": "urn:uuid:60cbf859-e2f0-4db1-953a-4f3c7b40e4f3",
          "display": "Meaghan Neary"
        },
        "requester": {
          "reference": "urn:uuid:b2d52359-4c98-4809-9d85-09fca4bf4d18"
        }
      }
    },
    {
      "fullUrl": "urn:uuid:b2d52359-4c98-4809-9d85-09fca4bf4d18",
      "resource": {
        "resourceType": "PractitionerRole",
        "id": "b2d52359-4c98-4809-9d85-09fca4bf4d18",
        "meta": {
          "profile": [
            "http://hl7.eu/fhir/base/StructureDefinition/practitionerRole-eu"
          ]
        },
        "text": {
          "status": "generated",
          "div": "<div xmlns=\"http://www.w3.org/1999/xhtml\">Provider Role Id: b2d52359-4c98-4809-9d85-09fca4bf4d18</div>"
        },
        "organization": {
          "reference": "urn:uuid:f89ec84d-1ed8-4a7a-87ec-31f31965f838"
        }
      }
    },
    {
      "fullUrl": "urn:uuid:f89ec84d-1ed8-4a7a-87ec-31f31965f838",
      "resource": {
        "resourceType": "Organization",
        "id": "f89ec84d-1ed8-4a7a-87ec-31f31965f838",
        "meta": {
          "profile": [
            "http://hl7.eu/fhir/base/StructureDefinition/organization-eu"
          ]
        },
        "identifier": [
          {
            "assigner": {
              "display": "HL7 Europe"
            },
            "system": "urn:oid:2.16.840.1.113883.2.51.999",
            "value": "2ab2f5a4-fe04-49b2-b42e-03b41194700c"
          }
        ],
        "address": [
          {
            "line": [
              "Parnell Square West nan"
            ],
            "city": "Dublin",
            "postalCode": "D01",
            "country": "Ireland"
          }
        ],
        "text": {
          "status": "generated",
          "div": "<div xmlns=\"http://www.w3.org/1999/xhtml\">Provider Organization: Rotunda Hospital</div>"
        },
        "name": "Rotunda Hospital"
      }
    },
    {
      "fullUrl": "urn:uuid:aa91627d-38bf-4d74-b495-158be5e4b780",
      "resource": {
        "resourceType": "Specimen",
        "id": "aa91627d-38bf-4d74-b495-158be5e4b780",
        "meta": {
          "profile": [
            "http://hl7.eu/fhir/laboratory/StructureDefinition/Specimen-eu-lab"
          ]
        },
        "collection": {
          "collectedDateTime": "2025-07-15"
        },
        "text": {
          "status": "generated",
          "div": "<div xmlns=\"http://www.w3.org/1999/xhtml\"><table class=\"hl7__eu__lab__report\"><tr><th>Specimen</th><th>Collection Date</th></tr><tr><td>Whole blood specimen (specimen)</td><td><span class=\"nb\">15-Jul-2025</span></td></tr></table></div>"
        },
        "type": {
          "coding": [
            {
              "code": "258580003",
              "system": "http://snomed.info/sct",
              "display": "Whole blood specimen (specimen)"
            }
          ]
        }
      }
    },
    {
      "fullUrl": "urn:uuid:dc49133b-667e-4428-a4f7-1d3f64f653c8",
      "resource": {
        "resourceType": "Specimen",
        "id": "dc49133b-667e-4428-a4f7-1d3f64f653c8",
        "meta": {
          "profile": [
            "http://hl7.eu/fhir/laboratory/StructureDefinition/Specimen-eu-lab"
          ]
        },
        "collection": {
          "collectedDateTime": "2025-07-15"
        },
        "text": {
          "status": "generated",
          "div": "<div xmlns=\"http://www.w3.org/1999/xhtml\"><table class=\"hl7__eu__lab__report\"><tr><th>Specimen</th><th>Collection Date</th></tr><tr><td>Acellular blood (serum or plasma) specimen</td><td><span class=\"nb\">15-Jul-2025</span></td></tr></table></div>"
        },
        "type": {
          "coding": [
            {
              "code": "122592007",
              "system": "http://snomed.info/sct",
              "display": "Acellular blood (serum or plasma) specimen"
            }
          ]
        }
      }
    },
    {
      "fullUrl": "urn:uuid:ea2ffe8f-a43a-4bb1-8210-2fce3dfbefee",
      "resource": {
        "resourceType": "Specimen",
        "id": "ea2ffe8f-a43a-4bb1-8210-2fce3dfbefee",
        "meta": {
          "profile": [
            "http://hl7.eu/fhir/laboratory/StructureDefinition/Specimen-eu-lab"
          ]
        },
        "collection": {
          "collectedDateTime": "2025-07-15"
        },
        "text": {
          "status": "generated",
          "div": "<div xmlns=\"http://www.w3.org/1999/xhtml\"><table class=\"hl7__eu__lab__report\"><tr><th>Specimen</th><th>Collection Date</th></tr><tr><td>Serum specimen</td><td><span class=\"nb\">15-Jul-2025</span></td></tr></table></div>"
        },
        "type": {
          "coding": [
            {
              "code": "119364003",
              "system": "http://snomed.info/sct",
              "display": "Serum specimen"
            }
          ]
        }
      }
    },
    {
      "fullUrl": "urn:uuid:24d33157-e93b-44ee-9887-42d871481e12",
      "resource": {
        "resourceType": "Observation",
        "id": "24d33157-e93b-44ee-9887-42d871481e12",
        "meta": {
          "profile": [
            "http://hl7.eu/fhir/laboratory/StructureDefinition/Observation-resultslab-eu-lab"
          ]
        },
        "performer": [
          {
            "display": "The Central European Lab"
          }
        ],
        "category": [
          {
            "coding": [
              {
                "system": "http://terminology.hl7.org/CodeSystem/observation-category",
                "code": "laboratory"
              }
            ]
          }
        ],
        "code": {
          "coding": [
            {
              "code": "2339-0",
              "system": "http://loinc.org",
              "display": "Glucose [Mass/volume] in Blood"
            }
          ],
          "text": "Glucose [Mass/volume] in Blood"
        },
        "valueQuantity": {
          "system": "http://unitsofmeasure.org",
          "value": 75.1,
          "unit": "mg/dL",
          "code": "mg/dL"
        },
        "referenceRange": [
          {
            "low": {
              "value": 70,
              "code": "mg/dL",
              "system": "http://unitsofmeasure.org"
            }
          },
          {
            "high": {
              "value": 100,
              "code": "mg/dL",
              "system": "http://unitsofmeasure.org"
            }
          }
        ],
        "text": {
          "status": "generated",
          "div": "<div xmlns=\"http://www.w3.org/1999/xhtml\"><table class=\"hl7__eu__lab__report\"><tr><th>Test</th><th>16-Jul-2025</th><th>Reference&#xA0;Range</th><th>Unit</th></tr><tr><td>Glucose [Mass/volume] in Blood</td><td>75.1</td><td>70 - 100</td><td></td><td>mg/dL</td></tr></table></div>"
        },
        "status": "final",
        "subject": {
          "reference": "urn:uuid:60cbf859-e2f0-4db1-953a-4f3c7b40e4f3",
          "display": "Meaghan Neary"
        },
        "effectiveDateTime": "2025-07-15T22:11:04Z",
        "specimen": {
          "reference": "urn:uuid:aa91627d-38bf-4d74-b495-158be5e4b780"
        }
      }
    },
    {
      "fullUrl": "urn:uuid:3347fca5-338c-485c-b532-8bd711e14aca",
      "resource": {
        "resourceType": "Observation",
        "id": "3347fca5-338c-485c-b532-8bd711e14aca",
        "meta": {
          "profile": [
            "http://hl7.eu/fhir/laboratory/StructureDefinition/Observation-resultslab-eu-lab"
          ]
        },
        "performer": [
          {
            "display": "The Central European Lab"
          }
        ],
        "category": [
          {
            "coding": [
              {
                "system": "http://terminology.hl7.org/CodeSystem/observation-category",
                "code": "laboratory"
              }
            ]
          }
        ],
        "code": {
          "coding": [
            {
              "code": "6299-2",
              "system": "http://loinc.org",
              "display": "Urea nitrogen [Mass/volume] in Blood"
            }
          ],
          "text": "Urea nitrogen [Mass/volume] in Blood"
        },
        "valueQuantity": {
          "system": "http://unitsofmeasure.org",
          "value": 18,
          "unit": "mg/dL",
          "code": "mg/dL"
        },
        "referenceRange": [
          {
            "low": {
              "value": 7,
              "code": "mg/dL",
              "system": "http://unitsofmeasure.org"
            }
          },
          {
            "high": {
              "value": 43,
              "code": "mg/dL",
              "system": "http://unitsofmeasure.org"
            }
          }
        ],
        "text": {
          "status": "generated",
          "div": "<div xmlns=\"http://www.w3.org/1999/xhtml\"><table class=\"hl7__eu__lab__report\"><tr><th>Test</th><th>16-Jul-2025</th><th>Reference&#xA0;Range</th><th>Unit</th></tr><tr><td>Urea nitrogen [Mass/volume] in Blood</td><td>18.0</td><td>7 - 43</td><td></td><td>mg/dL</td></tr></table></div>"
        },
        "status": "final",
        "subject": {
          "reference": "urn:uuid:60cbf859-e2f0-4db1-953a-4f3c7b40e4f3",
          "display": "Meaghan Neary"
        },
        "effectiveDateTime": "2025-07-15T22:11:04Z",
        "specimen": {
          "reference": "urn:uuid:aa91627d-38bf-4d74-b495-158be5e4b780"
        }
      }
    },
    {
      "fullUrl": "urn:uuid:f6fa5404-cbad-4f59-93e0-67f26167e8ca",
      "resource": {
        "resourceType": "Observation",
        "id": "f6fa5404-cbad-4f59-93e0-67f26167e8ca",
        "meta": {
          "profile": [
            "http://hl7.eu/fhir/laboratory/StructureDefinition/Observation-resultslab-eu-lab"
          ]
        },
        "performer": [
          {
            "display": "The Central European Lab"
          }
        ],
        "category": [
          {
            "coding": [
              {
                "system": "http://terminology.hl7.org/CodeSystem/observation-category",
                "code": "laboratory"
              }
            ]
          }
        ],
        "code": {
          "coding": [
            {
              "code": "38483-4",
              "system": "http://loinc.org",
              "display": "Creatinine [Mass/volume] in Blood"
            }
          ],
          "text": "Creatinine [Mass/volume] in Blood"
        },
        "valueQuantity": {
          "system": "http://unitsofmeasure.org",
          "value": 2.9,
          "unit": "mg/dL",
          "code": "mg/dL"
        },
        "referenceRange": [
          {
            "low": {
              "value": 0.6,
              "code": "mg/dL",
              "system": "http://unitsofmeasure.org"
            }
          },
          {
            "high": {
              "value": 1.1,
              "code": "mg/dL",
              "system": "http://unitsofmeasure.org"
            }
          }
        ],
        "interpretation": [
          {
            "coding": [
              {
                "code": "H",
                "system": "http://terminology.hl7.org/CodeSystem/v3-ObservationInterpretation",
                "display": "High"
              }
            ]
          }
        ],
        "text": {
          "status": "generated",
          "div": "<div xmlns=\"http://www.w3.org/1999/xhtml\"><table class=\"hl7__eu__lab__report\"><tr><th>Test</th><th>16-Jul-2025</th><th>Reference&#xA0;Range</th><th>Unit</th></tr><tr><td>Creatinine [Mass/volume] in Blood</td><td>2.9</td><td>0.6 - 1.1</td><td>H</td><td>mg/dL</td></tr></table></div>"
        },
        "status": "final",
        "subject": {
          "reference": "urn:uuid:60cbf859-e2f0-4db1-953a-4f3c7b40e4f3",
          "display": "Meaghan Neary"
        },
        "effectiveDateTime": "2025-07-15T22:11:04Z",
        "specimen": {
          "reference": "urn:uuid:aa91627d-38bf-4d74-b495-158be5e4b780"
        }
      }
    },
    {
      "fullUrl": "urn:uuid:7437aad0-07be-44c6-b67d-c637e66d32b0",
      "resource": {
        "resourceType": "Observation",
        "id": "7437aad0-07be-44c6-b67d-c637e66d32b0",
        "meta": {
          "profile": [
            "http://hl7.eu/fhir/laboratory/StructureDefinition/Observation-resultslab-eu-lab"
          ]
        },
        "performer": [
          {
            "display": "The Central European Lab"
          }
        ],
        "category": [
          {
            "coding": [
              {
                "system": "http://terminology.hl7.org/CodeSystem/observation-category",
                "code": "laboratory"
              }
            ]
          }
        ],
        "code": {
          "coding": [
            {
              "code": "49765-1",
              "system": "http://loinc.org",
              "display": "Calcium [Mass/volume] in Blood"
            }
          ],
          "text": "Calcium [Mass/volume] in Blood"
        },
        "valueQuantity": {
          "system": "http://unitsofmeasure.org",
          "value": 9.8,
          "unit": "mg/dL",
          "code": "mg/dL"
        },
        "referenceRange": [
          {
            "low": {
              "value": 8.5,
              "code": "mg/dL",
              "system": "http://unitsofmeasure.org"
            }
          },
          {
            "high": {
              "value": 10.5,
              "code": "mg/dL",
              "system": "http://unitsofmeasure.org"
            }
          }
        ],
        "text": {
          "status": "generated",
          "div": "<div xmlns=\"http://www.w3.org/1999/xhtml\"><table class=\"hl7__eu__lab__report\"><tr><th>Test</th><th>16-Jul-2025</th><th>Reference&#xA0;Range</th><th>Unit</th></tr><tr><td>Calcium [Mass/volume] in Blood</td><td>9.8</td><td>8.5 - 10.5</td><td></td><td>mg/dL</td></tr></table></div>"
        },
        "status": "final",
        "subject": {
          "reference": "urn:uuid:60cbf859-e2f0-4db1-953a-4f3c7b40e4f3",
          "display": "Meaghan Neary"
        },
        "effectiveDateTime": "2025-07-15T22:11:04Z",
        "specimen": {
          "reference": "urn:uuid:aa91627d-38bf-4d74-b495-158be5e4b780"
        }
      }
    },
    {
      "fullUrl": "urn:uuid:7484d3fc-7d09-4ac8-b911-66937af832e1",
      "resource": {
        "resourceType": "Observation",
        "id": "7484d3fc-7d09-4ac8-b911-66937af832e1",
        "meta": {
          "profile": [
            "http://hl7.eu/fhir/laboratory/StructureDefinition/Observation-resultslab-eu-lab"
          ]
        },
        "performer": [
          {
            "display": "The Central European Lab"
          }
        ],
        "category": [
          {
            "coding": [
              {
                "system": "http://terminology.hl7.org/CodeSystem/observation-category",
                "code": "laboratory"
              }
            ]
          }
        ],
        "code": {
          "coding": [
            {
              "code": "2947-0",
              "system": "http://loinc.org",
              "display": "Sodium [Moles/volume] in Blood"
            }
          ],
          "text": "Sodium [Moles/volume] in Blood"
        },
        "valueQuantity": {
          "system": "http://unitsofmeasure.org",
          "value": 137.5,
          "unit": "mmol/L",
          "code": "mmol/L"
        },
        "referenceRange": [
          {
            "low": {
              "value": 135,
              "code": "mmol/L",
              "system": "http://unitsofmeasure.org"
            }
          },
          {
            "high": {
              "value": 145,
              "code": "mmol/L",
              "system": "http://unitsofmeasure.org"
            }
          }
        ],
        "text": {
          "status": "generated",
          "div": "<div xmlns=\"http://www.w3.org/1999/xhtml\"><table class=\"hl7__eu__lab__report\"><tr><th>Test</th><th>16-Jul-2025</th><th>Reference&#xA0;Range</th><th>Unit</th></tr><tr><td>Sodium [Moles/volume] in Blood</td><td>137.5</td><td>135 - 145</td><td></td><td>mmol/L</td></tr></table></div>"
        },
        "status": "final",
        "subject": {
          "reference": "urn:uuid:60cbf859-e2f0-4db1-953a-4f3c7b40e4f3",
          "display": "Meaghan Neary"
        },
        "effectiveDateTime": "2025-07-15T22:11:04Z",
        "specimen": {
          "reference": "urn:uuid:aa91627d-38bf-4d74-b495-158be5e4b780"
        }
      }
    },
    {
      "fullUrl": "urn:uuid:04574992-8265-4166-934e-34561f175ddf",
      "resource": {
        "resourceType": "Observation",
        "id": "04574992-8265-4166-934e-34561f175ddf",
        "meta": {
          "profile": [
            "http://hl7.eu/fhir/laboratory/StructureDefinition/Observation-resultslab-eu-lab"
          ]
        },
        "performer": [
          {
            "display": "The Central European Lab"
          }
        ],
        "category": [
          {
            "coding": [
              {
                "system": "http://terminology.hl7.org/CodeSystem/observation-category",
                "code": "laboratory"
              }
            ]
          }
        ],
        "code": {
          "coding": [
            {
              "code": "6298-4",
              "system": "http://loinc.org",
              "display": "Potassium [Moles/volume] in Blood"
            }
          ],
          "text": "Potassium [Moles/volume] in Blood"
        },
        "valueQuantity": {
          "system": "http://unitsofmeasure.org",
          "value": 4.6,
          "unit": "mmol/L",
          "code": "mmol/L"
        },
        "referenceRange": [
          {
            "low": {
              "value": 3.5,
              "code": "mmol/L",
              "system": "http://unitsofmeasure.org"
            }
          },
          {
            "high": {
              "value": 5.1,
              "code": "mmol/L",
              "system": "http://unitsofmeasure.org"
            }
          }
        ],
        "text": {
          "status": "generated",
          "div": "<div xmlns=\"http://www.w3.org/1999/xhtml\"><table class=\"hl7__eu__lab__report\"><tr><th>Test</th><th>16-Jul-2025</th><th>Reference&#xA0;Range</th><th>Unit</th></tr><tr><td>Potassium [Moles/volume] in Blood</td><td>4.6</td><td>3.5 - 5.1</td><td></td><td>mmol/L</td></tr></table></div>"
        },
        "status": "final",
        "subject": {
          "reference": "urn:uuid:60cbf859-e2f0-4db1-953a-4f3c7b40e4f3",
          "display": "Meaghan Neary"
        },
        "effectiveDateTime": "2025-07-15T22:11:04Z",
        "specimen": {
          "reference": "urn:uuid:aa91627d-38bf-4d74-b495-158be5e4b780"
        }
      }
    },
    {
      "fullUrl": "urn:uuid:8f554bb3-e6f4-4c50-a24c-3e7a29e1cebf",
      "resource": {
        "resourceType": "Observation",
        "id": "8f554bb3-e6f4-4c50-a24c-3e7a29e1cebf",
        "meta": {
          "profile": [
            "http://hl7.eu/fhir/laboratory/StructureDefinition/Observation-resultslab-eu-lab"
          ]
        },
        "performer": [
          {
            "display": "The Central European Lab"
          }
        ],
        "category": [
          {
            "coding": [
              {
                "system": "http://terminology.hl7.org/CodeSystem/observation-category",
                "code": "laboratory"
              }
            ]
          }
        ],
        "code": {
          "coding": [
            {
              "code": "2069-3",
              "system": "http://loinc.org",
              "display": "Chloride [Moles/volume] in Blood"
            }
          ],
          "text": "Chloride [Moles/volume] in Blood"
        },
        "valueQuantity": {
          "system": "http://unitsofmeasure.org",
          "value": 105.3,
          "unit": "mmol/L",
          "code": "mmol/L"
        },
        "referenceRange": [
          {
            "low": {
              "value": 98,
              "code": "mmol/L",
              "system": "http://unitsofmeasure.org"
            }
          },
          {
            "high": {
              "value": 108,
              "code": "mmol/L",
              "system": "http://unitsofmeasure.org"
            }
          }
        ],
        "text": {
          "status": "generated",
          "div": "<div xmlns=\"http://www.w3.org/1999/xhtml\"><table class=\"hl7__eu__lab__report\"><tr><th>Test</th><th>16-Jul-2025</th><th>Reference&#xA0;Range</th><th>Unit</th></tr><tr><td>Chloride [Moles/volume] in Blood</td><td>105.3</td><td>98 - 108</td><td></td><td>mmol/L</td></tr></table></div>"
        },
        "status": "final",
        "subject": {
          "reference": "urn:uuid:60cbf859-e2f0-4db1-953a-4f3c7b40e4f3",
          "display": "Meaghan Neary"
        },
        "effectiveDateTime": "2025-07-15T22:11:04Z",
        "specimen": {
          "reference": "urn:uuid:aa91627d-38bf-4d74-b495-158be5e4b780"
        }
      }
    },
    {
      "fullUrl": "urn:uuid:9e5a71d8-f3e8-4752-b053-0b7d99df5dce",
      "resource": {
        "resourceType": "Observation",
        "id": "9e5a71d8-f3e8-4752-b053-0b7d99df5dce",
        "meta": {
          "profile": [
            "http://hl7.eu/fhir/laboratory/StructureDefinition/Observation-resultslab-eu-lab"
          ]
        },
        "performer": [
          {
            "display": "The Central European Lab"
          }
        ],
        "category": [
          {
            "coding": [
              {
                "system": "http://terminology.hl7.org/CodeSystem/observation-category",
                "code": "laboratory"
              }
            ]
          }
        ],
        "code": {
          "coding": [
            {
              "code": "20565-8",
              "system": "http://loinc.org",
              "display": "Carbon dioxide, total [Moles/volume] in Blood"
            }
          ],
          "text": "Carbon dioxide, total [Moles/volume] in Blood"
        },
        "valueQuantity": {
          "system": "http://unitsofmeasure.org",
          "value": 25.3,
          "unit": "mmol/L",
          "code": "mmol/L"
        },
        "referenceRange": [
          {
            "low": {
              "value": 22,
              "code": "mmol/L",
              "system": "http://unitsofmeasure.org"
            }
          },
          {
            "high": {
              "value": 29,
              "code": "mmol/L",
              "system": "http://unitsofmeasure.org"
            }
          }
        ],
        "text": {
          "status": "generated",
          "div": "<div xmlns=\"http://www.w3.org/1999/xhtml\"><table class=\"hl7__eu__lab__report\"><tr><th>Test</th><th>16-Jul-2025</th><th>Reference&#xA0;Range</th><th>Unit</th></tr><tr><td>Carbon dioxide, total [Moles/volume] in Blood</td><td>25.3</td><td>22 - 29</td><td></td><td>mmol/L</td></tr></table></div>"
        },
        "status": "final",
        "subject": {
          "reference": "urn:uuid:60cbf859-e2f0-4db1-953a-4f3c7b40e4f3",
          "display": "Meaghan Neary"
        },
        "effectiveDateTime": "2025-07-15T22:11:04Z",
        "specimen": {
          "reference": "urn:uuid:aa91627d-38bf-4d74-b495-158be5e4b780"
        }
      }
    },
    {
      "fullUrl": "urn:uuid:b8cecba4-fc9b-4f85-b6ad-c3edfa1c7de8",
      "resource": {
        "resourceType": "Observation",
        "id": "b8cecba4-fc9b-4f85-b6ad-c3edfa1c7de8",
        "meta": {
          "profile": [
            "http://hl7.eu/fhir/laboratory/StructureDefinition/Observation-resultslab-eu-lab"
          ]
        },
        "performer": [
          {
            "display": "The Central European Lab"
          }
        ],
        "category": [
          {
            "coding": [
              {
                "system": "http://terminology.hl7.org/CodeSystem/observation-category",
                "code": "laboratory"
              }
            ]
          }
        ],
        "code": {
          "coding": [
            {
              "code": "2885-2",
              "system": "http://loinc.org",
              "display": "Protein [Mass/volume] in Serum or Plasma"
            }
          ],
          "text": "Protein [Mass/volume] in Serum or Plasma"
        },
        "valueQuantity": {
          "system": "http://unitsofmeasure.org",
          "value": 6.7,
          "unit": "g/dL",
          "code": "g/dL"
        },
        "referenceRange": [
          {
            "low": {
              "value": 6,
              "code": "g/dL",
              "system": "http://unitsofmeasure.org"
            }
          },
          {
            "high": {
              "value": 8.3,
              "code": "g/dL",
              "system": "http://unitsofmeasure.org"
            }
          }
        ],
        "text": {
          "status": "generated",
          "div": "<div xmlns=\"http://www.w3.org/1999/xhtml\"><table class=\"hl7__eu__lab__report\"><tr><th>Test</th><th>16-Jul-2025</th><th>Reference&#xA0;Range</th><th>Unit</th></tr><tr><td>Protein [Mass/volume] in Serum or Plasma</td><td>6.7</td><td>6 - 8.3</td><td></td><td>g/dL</td></tr></table></div>"
        },
        "status": "final",
        "subject": {
          "reference": "urn:uuid:60cbf859-e2f0-4db1-953a-4f3c7b40e4f3",
          "display": "Meaghan Neary"
        },
        "effectiveDateTime": "2025-07-15T22:11:04Z",
        "specimen": {
          "reference": "urn:uuid:dc49133b-667e-4428-a4f7-1d3f64f653c8"
        }
      }
    },
    {
      "fullUrl": "urn:uuid:701f603d-de82-4f7d-952b-fc8d30cfd083",
      "resource": {
        "resourceType": "Observation",
        "id": "701f603d-de82-4f7d-952b-fc8d30cfd083",
        "meta": {
          "profile": [
            "http://hl7.eu/fhir/laboratory/StructureDefinition/Observation-resultslab-eu-lab"
          ]
        },
        "performer": [
          {
            "display": "The Central European Lab"
          }
        ],
        "category": [
          {
            "coding": [
              {
                "system": "http://terminology.hl7.org/CodeSystem/observation-category",
                "code": "laboratory"
              }
            ]
          }
        ],
        "code": {
          "coding": [
            {
              "code": "1751-7",
              "system": "http://loinc.org",
              "display": "Albumin [Mass/volume] in Serum or Plasma"
            }
          ],
          "text": "Albumin [Mass/volume] in Serum or Plasma"
        },
        "valueQuantity": {
          "system": "http://unitsofmeasure.org",
          "value": 5.2,
          "unit": "g/dL",
          "code": "g/dL"
        },
        "referenceRange": [
          {
            "low": {
              "value": 3.5,
              "code": "g/dL",
              "system": "http://unitsofmeasure.org"
            }
          },
          {
            "high": {
              "value": 5.5,
              "code": "g/dL",
              "system": "http://unitsofmeasure.org"
            }
          }
        ],
        "text": {
          "status": "generated",
          "div": "<div xmlns=\"http://www.w3.org/1999/xhtml\"><table class=\"hl7__eu__lab__report\"><tr><th>Test</th><th>16-Jul-2025</th><th>Reference&#xA0;Range</th><th>Unit</th></tr><tr><td>Albumin [Mass/volume] in Serum or Plasma</td><td>5.2</td><td>3.5 - 5.5</td><td></td><td>g/dL</td></tr></table></div>"
        },
        "status": "final",
        "subject": {
          "reference": "urn:uuid:60cbf859-e2f0-4db1-953a-4f3c7b40e4f3",
          "display": "Meaghan Neary"
        },
        "effectiveDateTime": "2025-07-15T22:11:04Z",
        "specimen": {
          "reference": "urn:uuid:dc49133b-667e-4428-a4f7-1d3f64f653c8"
        }
      }
    },
    {
      "fullUrl": "urn:uuid:9fbfffba-1c8f-448a-8c6c-f431018745c6",
      "resource": {
        "resourceType": "Observation",
        "id": "9fbfffba-1c8f-448a-8c6c-f431018745c6",
        "meta": {
          "profile": [
            "http://hl7.eu/fhir/laboratory/StructureDefinition/Observation-resultslab-eu-lab"
          ]
        },
        "performer": [
          {
            "display": "The Central European Lab"
          }
        ],
        "category": [
          {
            "coding": [
              {
                "system": "http://terminology.hl7.org/CodeSystem/observation-category",
                "code": "laboratory"
              }
            ]
          }
        ],
        "code": {
          "coding": [
            {
              "code": "10834-0",
              "system": "http://loinc.org",
              "display": "Globulin [Mass/volume] in Serum by calculation"
            }
          ],
          "text": "Globulin [Mass/volume] in Serum by calculation"
        },
        "valueQuantity": {
          "system": "http://unitsofmeasure.org",
          "value": 3.2,
          "unit": "g/L",
          "code": "g/L"
        },
        "referenceRange": [
          {
            "low": {
              "value": 2,
              "code": "g/L",
              "system": "http://unitsofmeasure.org"
            }
          },
          {
            "high": {
              "value": 3.5,
              "code": "g/L",
              "system": "http://unitsofmeasure.org"
            }
          }
        ],
        "text": {
          "status": "generated",
          "div": "<div xmlns=\"http://www.w3.org/1999/xhtml\"><table class=\"hl7__eu__lab__report\"><tr><th>Test</th><th>16-Jul-2025</th><th>Reference&#xA0;Range</th><th>Unit</th></tr><tr><td>Globulin [Mass/volume] in Serum by calculation</td><td>3.2</td><td>2 - 3.5</td><td></td><td>g/L</td></tr></table></div>"
        },
        "status": "final",
        "subject": {
          "reference": "urn:uuid:60cbf859-e2f0-4db1-953a-4f3c7b40e4f3",
          "display": "Meaghan Neary"
        },
        "effectiveDateTime": "2025-07-15T22:11:04Z",
        "specimen": {
          "reference": "urn:uuid:ea2ffe8f-a43a-4bb1-8210-2fce3dfbefee"
        }
      }
    },
    {
      "fullUrl": "urn:uuid:c0f38a51-eb13-4af5-81bd-5cfca2c75fb2",
      "resource": {
        "resourceType": "Observation",
        "id": "c0f38a51-eb13-4af5-81bd-5cfca2c75fb2",
        "meta": {
          "profile": [
            "http://hl7.eu/fhir/laboratory/StructureDefinition/Observation-resultslab-eu-lab"
          ]
        },
        "performer": [
          {
            "display": "The Central European Lab"
          }
        ],
        "category": [
          {
            "coding": [
              {
                "system": "http://terminology.hl7.org/CodeSystem/observation-category",
                "code": "laboratory"
              }
            ]
          }
        ],
        "code": {
          "coding": [
            {
              "code": "1975-2",
              "system": "http://loinc.org",
              "display": "Bilirubin.total [Mass/volume] in Serum or Plasma"
            }
          ],
          "text": "Bilirubin.total [Mass/volume] in Serum or Plasma"
        },
        "valueQuantity": {
          "system": "http://unitsofmeasure.org",
          "value": 0.1,
          "unit": "mg/dL",
          "code": "mg/dL"
        },
        "referenceRange": [
          {
            "low": {
              "value": 0.3,
              "code": "mg/dL",
              "system": "http://unitsofmeasure.org"
            }
          },
          {
            "high": {
              "value": 1.2,
              "code": "mg/dL",
              "system": "http://unitsofmeasure.org"
            }
          }
        ],
        "interpretation": [
          {
            "coding": [
              {
                "code": "L",
                "system": "http://terminology.hl7.org/CodeSystem/v3-ObservationInterpretation",
                "display": "Low"
              }
            ]
          }
        ],
        "text": {
          "status": "generated",
          "div": "<div xmlns=\"http://www.w3.org/1999/xhtml\"><table class=\"hl7__eu__lab__report\"><tr><th>Test</th><th>16-Jul-2025</th><th>Reference&#xA0;Range</th><th>Unit</th></tr><tr><td>Bilirubin.total [Mass/volume] in Serum or Plasma</td><td>0.1</td><td>0.3 - 1.2</td><td>L</td><td>mg/dL</td></tr></table></div>"
        },
        "status": "final",
        "subject": {
          "reference": "urn:uuid:60cbf859-e2f0-4db1-953a-4f3c7b40e4f3",
          "display": "Meaghan Neary"
        },
        "effectiveDateTime": "2025-07-15T22:11:04Z",
        "specimen": {
          "reference": "urn:uuid:dc49133b-667e-4428-a4f7-1d3f64f653c8"
        }
      }
    },
    {
      "fullUrl": "urn:uuid:3312172a-8e2f-4473-9851-6f0fc815ae2d",
      "resource": {
        "resourceType": "Observation",
        "id": "3312172a-8e2f-4473-9851-6f0fc815ae2d",
        "meta": {
          "profile": [
            "http://hl7.eu/fhir/laboratory/StructureDefinition/Observation-resultslab-eu-lab"
          ]
        },
        "performer": [
          {
            "display": "The Central European Lab"
          }
        ],
        "category": [
          {
            "coding": [
              {
                "system": "http://terminology.hl7.org/CodeSystem/observation-category",
                "code": "laboratory"
              }
            ]
          }
        ],
        "code": {
          "coding": [
            {
              "code": "6768-6",
              "system": "http://loinc.org",
              "display": "Alkaline phosphatase [Enzymatic activity/volume] in Serum or Plasma"
            }
          ],
          "text": "Alkaline phosphatase [Enzymatic activity/volume] in Serum or Plasma"
        },
        "valueQuantity": {
          "system": "http://unitsofmeasure.org",
          "value": 80.2,
          "unit": "U/L",
          "code": "U/L"
        },
        "referenceRange": [
          {
            "low": {
              "value": 44,
              "code": "U/L",
              "system": "http://unitsofmeasure.org"
            }
          },
          {
            "high": {
              "value": 130,
              "code": "U/L",
              "system": "http://unitsofmeasure.org"
            }
          }
        ],
        "text": {
          "status": "generated",
          "div": "<div xmlns=\"http://www.w3.org/1999/xhtml\"><table class=\"hl7__eu__lab__report\"><tr><th>Test</th><th>16-Jul-2025</th><th>Reference&#xA0;Range</th><th>Unit</th></tr><tr><td>Alkaline phosphatase [Enzymatic activity/volume] in Serum or Plasma</td><td>80.2</td><td>44 - 130</td><td></td><td>U/L</td></tr></table></div>"
        },
        "status": "final",
        "subject": {
          "reference": "urn:uuid:60cbf859-e2f0-4db1-953a-4f3c7b40e4f3",
          "display": "Meaghan Neary"
        },
        "effectiveDateTime": "2025-07-15T22:11:04Z",
        "specimen": {
          "reference": "urn:uuid:dc49133b-667e-4428-a4f7-1d3f64f653c8"
        }
      }
    },
    {
      "fullUrl": "urn:uuid:b877e3aa-66b8-4599-8f6d-a08ce7c7fde2",
      "resource": {
        "resourceType": "Observation",
        "id": "b877e3aa-66b8-4599-8f6d-a08ce7c7fde2",
        "meta": {
          "profile": [
            "http://hl7.eu/fhir/laboratory/StructureDefinition/Observation-resultslab-eu-lab"
          ]
        },
        "performer": [
          {
            "display": "The Central European Lab"
          }
        ],
        "category": [
          {
            "coding": [
              {
                "system": "http://terminology.hl7.org/CodeSystem/observation-category",
                "code": "laboratory"
              }
            ]
          }
        ],
        "code": {
          "coding": [
            {
              "code": "1742-6",
              "system": "http://loinc.org",
              "display": "Alanine aminotransferase [Enzymatic activity/volume] in Serum or Plasma"
            }
          ],
          "text": "Alanine aminotransferase [Enzymatic activity/volume] in Serum or Plasma"
        },
        "valueQuantity": {
          "system": "http://unitsofmeasure.org",
          "value": 53.4,
          "unit": "U/L",
          "code": "U/L"
        },
        "referenceRange": [
          {
            "low": {
              "value": 0,
              "code": "U/L",
              "system": "http://unitsofmeasure.org"
            }
          },
          {
            "high": {
              "value": 55,
              "code": "U/L",
              "system": "http://unitsofmeasure.org"
            }
          }
        ],
        "text": {
          "status": "generated",
          "div": "<div xmlns=\"http://www.w3.org/1999/xhtml\"><table class=\"hl7__eu__lab__report\"><tr><th>Test</th><th>16-Jul-2025</th><th>Reference&#xA0;Range</th><th>Unit</th></tr><tr><td>Alanine aminotransferase [Enzymatic activity/volume] in Serum or Plasma</td><td>53.4</td><td>0 - 55</td><td></td><td>U/L</td></tr></table></div>"
        },
        "status": "final",
        "subject": {
          "reference": "urn:uuid:60cbf859-e2f0-4db1-953a-4f3c7b40e4f3",
          "display": "Meaghan Neary"
        },
        "effectiveDateTime": "2025-07-15T22:11:04Z",
        "specimen": {
          "reference": "urn:uuid:dc49133b-667e-4428-a4f7-1d3f64f653c8"
        }
      }
    },
    {
      "fullUrl": "urn:uuid:56b1cfa2-8192-4762-868e-fb34c11f3473",
      "resource": {
        "resourceType": "Observation",
        "id": "56b1cfa2-8192-4762-868e-fb34c11f3473",
        "meta": {
          "profile": [
            "http://hl7.eu/fhir/laboratory/StructureDefinition/Observation-resultslab-eu-lab"
          ]
        },
        "performer": [
          {
            "display": "The Central European Lab"
          }
        ],
        "category": [
          {
            "coding": [
              {
                "system": "http://terminology.hl7.org/CodeSystem/observation-category",
                "code": "laboratory"
              }
            ]
          }
        ],
        "code": {
          "coding": [
            {
              "code": "1920-8",
              "system": "http://loinc.org",
              "display": "Aspartate aminotransferase [Enzymatic activity/volume] in Serum or Plasma"
            }
          ],
          "text": "Aspartate aminotransferase [Enzymatic activity/volume] in Serum or Plasma"
        },
        "valueQuantity": {
          "system": "http://unitsofmeasure.org",
          "value": 10.6,
          "unit": "U/L",
          "code": "U/L"
        },
        "referenceRange": [
          {
            "low": {
              "value": 10,
              "code": "U/L",
              "system": "http://unitsofmeasure.org"
            }
          },
          {
            "high": {
              "value": 40,
              "code": "U/L",
              "system": "http://unitsofmeasure.org"
            }
          }
        ],
        "text": {
          "status": "generated",
          "div": "<div xmlns=\"http://www.w3.org/1999/xhtml\"><table class=\"hl7__eu__lab__report\"><tr><th>Test</th><th>16-Jul-2025</th><th>Reference&#xA0;Range</th><th>Unit</th></tr><tr><td>Aspartate aminotransferase [Enzymatic activity/volume] in Serum or Plasma</td><td>10.6</td><td>10 - 40</td><td></td><td>U/L</td></tr></table></div>"
        },
        "status": "final",
        "subject": {
          "reference": "urn:uuid:60cbf859-e2f0-4db1-953a-4f3c7b40e4f3",
          "display": "Meaghan Neary"
        },
        "effectiveDateTime": "2025-07-15T22:11:04Z",
        "specimen": {
          "reference": "urn:uuid:dc49133b-667e-4428-a4f7-1d3f64f653c8"
        }
      }
    },
    {
      "fullUrl": "urn:uuid:c897e2be-842e-4cda-8f99-a61fe00a6419",
      "resource": {
        "resourceType": "Observation",
        "id": "c897e2be-842e-4cda-8f99-a61fe00a6419",
        "meta": {
          "profile": [
            "http://hl7.eu/fhir/laboratory/StructureDefinition/Observation-resultslab-eu-lab"
          ]
        },
        "performer": [
          {
            "display": "The Central European Lab"
          }
        ],
        "category": [
          {
            "coding": [
              {
                "system": "http://terminology.hl7.org/CodeSystem/observation-category",
                "code": "laboratory"
              }
            ]
          }
        ],
        "code": {
          "coding": [
            {
              "code": "2093-3",
              "system": "http://loinc.org",
              "display": "Cholesterol [Mass/volume] in Serum or Plasma"
            }
          ],
          "text": "Cholesterol [Mass/volume] in Serum or Plasma"
        },
        "valueQuantity": {
          "system": "http://unitsofmeasure.org",
          "value": 199.1,
          "unit": "mg/dL",
          "code": "mg/dL"
        },
        "referenceRange": [
          {
            "low": {
              "value": 125,
              "code": "mg/dL",
              "system": "http://unitsofmeasure.org"
            }
          },
          {
            "high": {
              "value": 239,
              "code": "mg/dL",
              "system": "http://unitsofmeasure.org"
            }
          }
        ],
        "text": {
          "status": "generated",
          "div": "<div xmlns=\"http://www.w3.org/1999/xhtml\"><table class=\"hl7__eu__lab__report\"><tr><th>Test</th><th>16-Jul-2025</th><th>Reference&#xA0;Range</th><th>Unit</th></tr><tr><td>Cholesterol [Mass/volume] in Serum or Plasma</td><td>199.1</td><td>125 - 239</td><td></td><td>mg/dL</td></tr></table></div>"
        },
        "status": "final",
        "subject": {
          "reference": "urn:uuid:60cbf859-e2f0-4db1-953a-4f3c7b40e4f3",
          "display": "Meaghan Neary"
        },
        "effectiveDateTime": "2025-07-15T22:11:04Z",
        "specimen": {
          "reference": "urn:uuid:dc49133b-667e-4428-a4f7-1d3f64f653c8"
        }
      }
    },
    {
      "fullUrl": "urn:uuid:d1a8f2fd-b079-4e63-b37e-6b159541edde",
      "resource": {
        "resourceType": "Observation",
        "id": "d1a8f2fd-b079-4e63-b37e-6b159541edde",
        "meta": {
          "profile": [
            "http://hl7.eu/fhir/laboratory/StructureDefinition/Observation-resultslab-eu-lab"
          ]
        },
        "performer": [
          {
            "display": "The Central European Lab"
          }
        ],
        "category": [
          {
            "coding": [
              {
                "system": "http://terminology.hl7.org/CodeSystem/observation-category",
                "code": "laboratory"
              }
            ]
          }
        ],
        "code": {
          "coding": [
            {
              "code": "2571-8",
              "system": "http://loinc.org",
              "display": "Triglyceride [Mass/volume] in Serum or Plasma"
            }
          ],
          "text": "Triglyceride [Mass/volume] in Serum or Plasma"
        },
        "valueQuantity": {
          "system": "http://unitsofmeasure.org",
          "value": 113.4,
          "unit": "mg/dL",
          "code": "mg/dL"
        },
        "text": {
          "status": "generated",
          "div": "<div xmlns=\"http://www.w3.org/1999/xhtml\"><table class=\"hl7__eu__lab__report\"><tr><th>Test</th><th>16-Jul-2025</th><th>Reference&#xA0;Range</th><th>Unit</th></tr><tr><td>Triglyceride [Mass/volume] in Serum or Plasma</td><td>113.4</td><td>mg/dL</td></tr></table></div>"
        },
        "status": "final",
        "subject": {
          "reference": "urn:uuid:60cbf859-e2f0-4db1-953a-4f3c7b40e4f3",
          "display": "Meaghan Neary"
        },
        "effectiveDateTime": "2025-07-15T22:11:04Z",
        "specimen": {
          "reference": "urn:uuid:dc49133b-667e-4428-a4f7-1d3f64f653c8"
        }
      }
    },
    {
      "fullUrl": "urn:uuid:c541d1c9-d6b0-4267-a924-b584102bdfd7",
      "resource": {
        "resourceType": "Observation",
        "id": "c541d1c9-d6b0-4267-a924-b584102bdfd7",
        "meta": {
          "profile": [
            "http://hl7.eu/fhir/laboratory/StructureDefinition/Observation-resultslab-eu-lab"
          ]
        },
        "performer": [
          {
            "display": "The Central European Lab"
          }
        ],
        "category": [
          {
            "coding": [
              {
                "system": "http://terminology.hl7.org/CodeSystem/observation-category",
                "code": "laboratory"
              }
            ]
          }
        ],
        "code": {
          "coding": [
            {
              "code": "18262-6",
              "system": "http://loinc.org",
              "display": "Cholesterol in LDL [Mass/volume] in Serum or Plasma by Direct assay"
            }
          ],
          "text": "Cholesterol in LDL [Mass/volume] in Serum or Plasma by Direct assay"
        },
        "valueQuantity": {
          "system": "http://unitsofmeasure.org",
          "value": 142.4,
          "unit": "mg/dL",
          "code": "mg/dL"
        },
        "referenceRange": [
          {
            "low": {
              "value": 0,
              "code": "mg/dL",
              "system": "http://unitsofmeasure.org"
            }
          },
          {
            "high": {
              "value": 130,
              "code": "mg/dL",
              "system": "http://unitsofmeasure.org"
            }
          }
        ],
        "interpretation": [
          {
            "coding": [
              {
                "code": "H",
                "system": "http://terminology.hl7.org/CodeSystem/v3-ObservationInterpretation",
                "display": "High"
              }
            ]
          }
        ],
        "text": {
          "status": "generated",
          "div": "<div xmlns=\"http://www.w3.org/1999/xhtml\"><table class=\"hl7__eu__lab__report\"><tr><th>Test</th><th>16-Jul-2025</th><th>Reference&#xA0;Range</th><th>Unit</th></tr><tr><td>Cholesterol in LDL [Mass/volume] in Serum or Plasma by Direct assay</td><td>142.4</td><td>0 - 130</td><td>H</td><td>mg/dL</td></tr></table></div>"
        },
        "status": "final",
        "subject": {
          "reference": "urn:uuid:60cbf859-e2f0-4db1-953a-4f3c7b40e4f3",
          "display": "Meaghan Neary"
        },
        "effectiveDateTime": "2025-07-15T22:11:04Z",
        "specimen": {
          "reference": "urn:uuid:dc49133b-667e-4428-a4f7-1d3f64f653c8"
        }
      }
    },
    {
      "fullUrl": "urn:uuid:98e8ba80-df85-42ae-8534-a66f432554d8",
      "resource": {
        "resourceType": "Observation",
        "id": "98e8ba80-df85-42ae-8534-a66f432554d8",
        "meta": {
          "profile": [
            "http://hl7.eu/fhir/laboratory/StructureDefinition/Observation-resultslab-eu-lab"
          ]
        },
        "performer": [
          {
            "display": "The Central European Lab"
          }
        ],
        "category": [
          {
            "coding": [
              {
                "system": "http://terminology.hl7.org/CodeSystem/observation-category",
                "code": "laboratory"
              }
            ]
          }
        ],
        "code": {
          "coding": [
            {
              "code": "2085-9",
              "system": "http://loinc.org",
              "display": "Cholesterol in HDL [Mass/volume] in Serum or Plasma"
            }
          ],
          "text": "Cholesterol in HDL [Mass/volume] in Serum or Plasma"
        },
        "valueQuantity": {
          "system": "http://unitsofmeasure.org",
          "value": 74.2,
          "unit": "mg/dL",
          "code": "mg/dL"
        },
        "referenceRange": [
          {
            "low": {
              "value": 50,
              "code": "mg/dL",
              "system": "http://unitsofmeasure.org"
            }
          },
          {
            "high": {
              "value": 100,
              "code": "mg/dL",
              "system": "http://unitsofmeasure.org"
            }
          }
        ],
        "text": {
          "status": "generated",
          "div": "<div xmlns=\"http://www.w3.org/1999/xhtml\"><table class=\"hl7__eu__lab__report\"><tr><th>Test</th><th>16-Jul-2025</th><th>Reference&#xA0;Range</th><th>Unit</th></tr><tr><td>Cholesterol in HDL [Mass/volume] in Serum or Plasma</td><td>74.2</td><td>50 - 100</td><td></td><td>mg/dL</td></tr></table></div>"
        },
        "status": "final",
        "subject": {
          "reference": "urn:uuid:60cbf859-e2f0-4db1-953a-4f3c7b40e4f3",
          "display": "Meaghan Neary"
        },
        "effectiveDateTime": "2025-07-15T22:11:04Z",
        "specimen": {
          "reference": "urn:uuid:dc49133b-667e-4428-a4f7-1d3f64f653c8"
        }
      }
    },
    {
      "fullUrl": "urn:uuid:fe9d8121-6c32-4482-adeb-301df504346c",
      "resource": {
        "resourceType": "Device",
        "id": "fe9d8121-6c32-4482-adeb-301df504346c",
        "deviceName": [
          {
            "name": "SYNDERAI Synthetic Generator",
            "type": "manufacturer-name"
          }
        ],
        "version": [
          {
            "value": "5.0"
          }
        ],
        "text": {
          "status": "generated",
          "div": "<div xmlns=\"http://www.w3.org/1999/xhtml\">SYNDERAI Synthetic Generator v5.0</div>"
        },
        "status": "active\"",
        "distinctIdentifier": "synderai-generator-50",
        "manufacturer": "SYNDERAI Project"
      }
    },
    {
      "fullUrl": "urn:uuid:f040c6de-b735-4a4f-80d7-0a576814e38c",
      "resource": {
        "resourceType": "Provenance",
        "id": "f040c6de-b735-4a4f-80d7-0a576814e38c",
        "target": [
          {
            "reference": "Patient/60cbf859-e2f0-4db1-953a-4f3c7b40e4f3"
          },
          {
            "reference": "Bundle/1bfa63d7-a977-4e80-86ff-32a5bdbb858f"
          },
          {
            "reference": "Composition/360950b6-02ed-4923-8508-97296ff6fa95"
          },
          {
            "reference": "PractitionerRole/44d248a7-52d9-4a25-943f-efda582dad3e"
          },
          {
            "reference": "Practitioner/67cd6b6b-61d8-4267-9270-04a897f2a61e"
          },
          {
            "reference": "PractitionerRole/b2d52359-4c98-4809-9d85-09fca4bf4d18"
          },
          {
            "reference": "Organization/f89ec84d-1ed8-4a7a-87ec-31f31965f838"
          }
        ],
        "activity": {
          "text": "Synthetic Example Data Generation"
        },
        "policy": [
          "https://synderai.net/synderai-synthetic-data-policy"
        ],
        "agent": [
          {
            "type": {
              "text": "author"
            },
            "who": {
              "reference": "Device/fe9d8121-6c32-4482-adeb-301df504346c"
            }
          }
        ],
        "reason": [
          {
            "text": "Interoperability Testing and Training (non-clinical use)"
          }
        ],
        "text": {
          "status": "generated",
          "div": "<div xmlns=\"http://www.w3.org/1999/xhtml\">Provenance for SYNDERAI Synthetic Example Data Resource</div>"
        },
        "recorded": "2025-07-16T00:11:04Z"
      }
    },
    {
      "fullUrl": "urn:uuid:44d248a7-52d9-4a25-943f-efda582dad3e",
      "resource": {
        "resourceType": "PractitionerRole",
        "id": "44d248a7-52d9-4a25-943f-efda582dad3e",
        "meta": {
          "profile": [
            "http://hl7.eu/fhir/base/StructureDefinition/practitionerRole-eu"
          ]
        },
        "text": {
          "status": "generated",
          "div": "<div xmlns=\"http://www.w3.org/1999/xhtml\">Laboratory Role Id: 44d248a7-52d9-4a25-943f-efda582dad3e</div>"
        },
        "practitioner": {
          "reference": "urn:uuid:67cd6b6b-61d8-4267-9270-04a897f2a61e"
        }
      }
    },
    {
      "fullUrl": "urn:uuid:67cd6b6b-61d8-4267-9270-04a897f2a61e",
      "resource": {
        "resourceType": "Practitioner",
        "id": "67cd6b6b-61d8-4267-9270-04a897f2a61e",
        "meta": {
          "profile": [
            "http://hl7.eu/fhir/base/StructureDefinition/practitioner-eu"
          ]
        },
        "identifier": [
          {
            "assigner": {
              "display": "HL7 Europe"
            },
            "system": "urn:oid:2.16.840.1.113883.2.51.999",
            "value": "ec10fc6a-e99c-42ed-abf5-293e52bf39b9"
          }
        ],
        "name": [
          {
            "prefix": [
              "dr"
            ],
            "given": [
              "Ex"
            ],
            "family": "Ample"
          }
        ],
        "address": [
          {
            "line": [
              "Laboratoire Central Européenne",
              "Boulevard du Jardin Botanique 32"
            ],
            "postalCode": "1000",
            "city": "Brussels",
            "country": "Belgium"
          }
        ],
        "text": {
          "status": "generated",
          "div": "<div xmlns=\"http://www.w3.org/1999/xhtml\">Laboratory: Laboratoire Central Européenne, 1000 Brussels, Belgium</div>"
        }
      }
    }
  ],
  "type": "document",
  "timestamp": "2025-07-16T00:11:04Z"
}
