<Bundle xmlns="http://hl7.org/fhir">
   <id value="8d0f5dd7-5c61-49db-bfa6-ba593c843580"/>
   <meta>
      <profile value="http://hl7.eu/fhir/laboratory/StructureDefinition/Bundle-eu-lab"/>
   </meta>
   <identifier>
      <system value="urn:oid:2.16.840.1.113883.2.51.999"/>
      <value value="78029d75-2568-447e-9a01-9c74940a2934"/>
      <assigner>
         <display value="HL7 Europe"/>
      </assigner>
   </identifier>
   <type value="document"/>
   <timestamp value="2020-12-10T10:47:46Z"/>
   <entry>
      <fullUrl value="urn:uuid:d453bf59-9a87-40bb-b118-a70895de1d76"/>
      <resource>
         <Composition>
            <id value="d453bf59-9a87-40bb-b118-a70895de1d76"/>
            <meta>
               <profile value="http://hl7.eu/fhir/laboratory/StructureDefinition/Composition-eu-lab"/>
            </meta>
            <identifier>
               <system value="urn:oid:2.16.840.1.113883.2.51.999"/>
               <value value="04eda820-97df-4a9a-914e-3abe15882fdc"/>
               <assigner>
                  <display value="HL7 Europe"/>
               </assigner>
            </identifier>
            <status value="final"/>
            <type>
               <coding>
                  <system value="http://loinc.org"/>
                  <code value="11502-2"/>
                  <display value="Laboratory report"/>
               </coding>
               <text value="Laboratory Report"/>
            </type>
            <category>
               <coding>
                  <system value="http://loinc.org"/>
                  <code value="26436-6"/>
                  <display value="Laboratory studies (set)"/>
               </coding>
            </category>
            <subject>
               <reference value="urn:uuid:9e4676d3-e941-40a0-85d3-e83aa394131c"/>
               <display value="Elias Höfig"/>
            </subject>
            <date value="2020-12-10T10:47:46Z"/>
            <author>
               <reference value="urn:uuid:35c615c9-9598-48da-b4ca-ca6723dc6dc0"/>
            </author>
            <title value="Laboratory Report"/>
            <confidentiality value="N"/>
            <section>
               <title value="Laboratory Report"/>
               <code>
                  <coding>
                     <system value="http://loinc.org"/>
                     <code value="26436-6"/>
                     <display value="Laboratory studies (set)"/>
                  </coding>
                  <text value="Laboratory studies"/>
               </code>
               <section>
                  <title value="Chemistry"/>
                  <code>
                     <coding>
                        <system value="http://loinc.org"/>
                        <code value="$18719-5"/>
                        <display value="Chemistry studies (set)"/>
                     </coding>
                     <text value="Chemistry"/>
                  </code>
                  <text>
                     <status value="generated"/>
                     <div xmlns="http://www.w3.org/1999/xhtml">
                        <h3>Chemistry</h3>
                        <table class="hl7__eu__lab__report">
                           <thead>
                              <tr>
                                 <th>Test</th>
                                 <th>10-DEC-2020</th>
                                 <th>Reference Range</th>
                                 <th>Unit</th>
                              </tr>
                           </thead>
                           <tbody>
                              <tr>
                                 <td>Oxygen saturation in Arterial blood</td>
                                 <td>
                                    <strong>79.5 L</strong>
                                 </td>
                                 <td>95 - 100</td>
                                 <td>%</td>
                              </tr>
                           </tbody>
                        </table>
                     </div>
                  </text>
                  <entry>
                     <reference value="urn:uuid:e625d978-87c5-494e-91c2-cee0db5e5682"/>
                  </entry>
               </section>
            </section>
            <section>
               <title value="Annotation comment"/>
               <code>
                  <coding>
                     <system value="http://loinc.org"/>
                     <code value="48767-8"/>
                     <display value="Annotation comment"/>
                  </coding>
               </code>
               <text>
                  <status value="generated"/>
                  <div xmlns="http://www.w3.org/1999/xhtml">
                     <h3>Annotation</h3>
                     <table class="hl7__eu__lab__report">
                        <tr>
                           <th>Conclusion and Recommendations based on this report and previous findings known to us</th>
                        </tr>
                        <tr>
                           <td>The patient shows significantly reduced arterial oxygen saturation (79.5%, reference 95-100%), indicating hypoxemia. This finding warrants urgent clinical evaluation to identify and address underlying causes such as respiratory or cardiac dysfunction. Immediate medical attention is recommended.</td>
                        </tr>
                     </table>
                  </div>
               </text>
            </section>
         </Composition>
      </resource>
   </entry>
   <entry>
      <fullUrl value="urn:uuid:0c36b6ce-140a-4d68-98d2-94ccbc8ce616"/>
      <resource>
         <DiagnosticReport>
            <id value="0c36b6ce-140a-4d68-98d2-94ccbc8ce616"/>
            <meta>
               <profile value="http://hl7.eu/fhir/laboratory/StructureDefinition/DiagnosticReport-eu-lab"/>
            </meta>
            <extension url="http://hl7.org/fhir/5.0/StructureDefinition/extension-DiagnosticReport.composition">
               <valueReference>
                  <reference value="urn:uuid:04eda820-97df-4a9a-914e-3abe15882fdc"/>
               </valueReference>
            </extension>
            <identifier>
               <system value="urn:oid:2.16.840.1.113883.2.51.999"/>
               <value value="eba2485c-502f-4169-bf38-102565d41086"/>
               <assigner>
                  <display value="HL7 Europe"/>
               </assigner>
            </identifier>
            <status value="registered"/>
            <category>
               <coding>
                  <system value="http://loinc.org"/>
                  <code value="26436-6"/>
                  <display value="Laboratory studies (set)"/>
               </coding>
            </category>
            <code>
               <coding>
                  <system value="http://loinc.org"/>
                  <code value="11502-2"/>
                  <display value="Laboratory report"/>
               </coding>
            </code>
            <subject>
               <reference value="urn:uuid:9e4676d3-e941-40a0-85d3-e83aa394131c"/>
               <display value="Elias Höfig"/>
            </subject>
            <specimen>
               <reference value="urn:uuid:15ea1763-e4c7-4f50-95d7-e0785f02e6e0"/>
            </specimen>
            <result>
               <reference value="urn:uuid:e625d978-87c5-494e-91c2-cee0db5e5682"/>
            </result>
         </DiagnosticReport>
      </resource>
   </entry>
   <entry>
      <fullUrl value="urn:uuid:9e4676d3-e941-40a0-85d3-e83aa394131c"/>
      <resource>
         <Patient>
            <id value="9e4676d3-e941-40a0-85d3-e83aa394131c"/>
            <meta>
               <profile value="http://hl7.eu/fhir/base/StructureDefinition/patient-eu-core"/>
               <security>
                  <system value="http://terminology.hl7.org/CodeSystem/v3-ActReason"/>
                  <code value="HTEST"/>
               </security>
               <security>
                  <system value="http://terminology.hl7.org/CodeSystem/v3-ActReason"/>
                  <code value="TRAIN"/>
               </security>
               <tag>
                  <system value="https://synderai.net/fhir/CodeSystem/tags"/>
                  <code value="synthetic"/>
                  <display value="SYNDERAI Synthetic data"/>
               </tag>
            </meta>
            <text>
               <status value="generated"/>
               <div xmlns="http://www.w3.org/1999/xhtml">
                  <table class="hl7__ips">
                     <tr>
                        <td>Elias Höfig</td>
                        <td>male</td>
                        <td>19-May-1974</td>
                     </tr>
                  </table>
               </div>
            </text>
            <extension url="http://hl7.org/fhir/StructureDefinition/patient-nationality">
               <valueCodeableConcept>
                  <coding>
                     <system value="http://hl7.org/fhir/ValueSet/country"/>
                     <code value="DE"/>
                  </coding>
               </valueCodeableConcept>
            </extension>
            <identifier>
               <type>
                  <coding>
                     <system value="http://terminology.hl7.org/CodeSystem/v2-0203"/>
                     <code value="PT"/>
                  </coding>
               </type>
               <system value="http://ec.europa.eu/identifier/eci"/>
               <value value="7833-401919-3"/>
            </identifier>
            <identifier>
               <type>
                  <coding>
                     <system value="http://terminology.hl7.org/CodeSystem/v2-0203"/>
                     <code value="MR"/>
                  </coding>
               </type>
               <system value="http://local.setting.eu/identifier"/>
               <value value="55b3d71c-a283-2178-4db6-d251ed0e1404"/>
            </identifier>
            <name>
               <family value="Höfig"/>
            </name>
            <name>
               <given value="Elias"/>
            </name>
            <name>
               <text value="Elias Höfig"/>
            </name>
            <telecom>
               <system value="phone"/>
               <value value="+49 (0) 4602 154908"/>
            </telecom>
            <gender value="male"/>
            <birthDate value="1974-05-19"/>
            <address>
               <use value="home"/>
               <type value="physical"/>
               <line value="Pauline-Schwital-Allee 6-2"/>
               <city value="Wolmirstedt"/>
               <postalCode value="39326"/>
               <country value="Germany"/>
            </address>
         </Patient>
      </resource>
   </entry>
   <entry>
      <fullUrl value="urn:uuid:31f10725-5621-459a-99b0-7e2289be6ddb"/>
      <resource>
         <ServiceRequest>
            <id value="31f10725-5621-459a-99b0-7e2289be6ddb"/>
            <meta>
               <profile value="http://hl7.eu/fhir/laboratory/StructureDefinition/ServiceRequest-eu-lab"/>
            </meta>
            <identifier>
               <system value="http://example.org"/>
               <value value="51c18ca8-4868-44df-ad0b-3ced145c8247"/>
            </identifier>
            <status value="active"/>
            <intent value="order"/>
            <code>
               <coding>
                  <system value="http://snomed.info/sct"/>
                  <code value="108252007"/>
                  <display value="Laboratory procedure"/>
               </coding>
            </code>
            <subject>
               <reference value="urn:uuid:9e4676d3-e941-40a0-85d3-e83aa394131c"/>
               <display value="Elias Höfig"/>
            </subject>
            <requester>
               <reference value="urn:uuid:fcc1cbe5-99f5-4cee-b923-16d53e5a9cf9"/>
            </requester>
            <specimen>
               <reference value="urn:uuid:15ea1763-e4c7-4f50-95d7-e0785f02e6e0"/>
            </specimen>
         </ServiceRequest>
      </resource>
   </entry>
   <entry>
      <fullUrl value="urn:uuid:fcc1cbe5-99f5-4cee-b923-16d53e5a9cf9"/>
      <resource>
         <PractitionerRole>
            <id value="fcc1cbe5-99f5-4cee-b923-16d53e5a9cf9"/>
            <meta>
               <profile value="http://hl7.eu/fhir/base/StructureDefinition/practitionerRole-eu"/>
            </meta>
            <text>
               <status value="generated"/>
               <div xmlns="http://www.w3.org/1999/xhtml">Provider Role Id: fcc1cbe5-99f5-4cee-b923-16d53e5a9cf9</div>
            </text>
            <organization>
               <reference value="urn:uuid:754b566b-8ef2-4bf4-bfed-198a2fda1785"/>
            </organization>
         </PractitionerRole>
      </resource>
   </entry>
   <entry>
      <fullUrl value="urn:uuid:754b566b-8ef2-4bf4-bfed-198a2fda1785"/>
      <resource>
         <Organization>
            <id value="754b566b-8ef2-4bf4-bfed-198a2fda1785"/>
            <meta>
               <profile value="http://hl7.eu/fhir/base/StructureDefinition/organization-eu"/>
            </meta>
            <text>
               <status value="generated"/>
               <div xmlns="http://www.w3.org/1999/xhtml">Provider Organization: Klinikum Magdeburg</div>
            </text>
            <identifier>
               <system value="urn:oid:2.16.840.1.113883.2.51.999"/>
               <value value="8637ab4d-4d75-43bb-a86d-acfbc8cd6ff2"/>
               <assigner>
                  <display value="HL7 Europe"/>
               </assigner>
            </identifier>
            <name value="Klinikum Magdeburg"/>
            <address>
               <line value="Birkenallee 34"/>
               <city value="Magdeburg"/>
               <postalCode value="39130"/>
               <country value="Germany"/>
            </address>
         </Organization>
      </resource>
   </entry>
   <entry>
      <fullUrl value="urn:uuid:15ea1763-e4c7-4f50-95d7-e0785f02e6e0"/>
      <resource>
         <Specimen>
            <id value="15ea1763-e4c7-4f50-95d7-e0785f02e6e0"/>
            <meta>
               <profile value="http://hl7.eu/fhir/laboratory/StructureDefinition/Specimen-eu-lab"/>
            </meta>
            <text>
               <status value="generated"/>
               <div xmlns="http://www.w3.org/1999/xhtml">
                  <table class="hl7__eu__lab__report">
                     <tr>
                        <th>Specimen</th>
                        <th>Collection Date</th>
                     </tr>
                     <tr>
                        <td>Arterial blood specimen</td>
                        <td>
                           <span class="nb">10-Dec-2020</span>
                        </td>
                     </tr>
                  </table>
               </div>
            </text>
            <type>
               <coding>
                  <system value="http://snomed.info/sct"/>
                  <code value="122552005"/>
                  <display value="Arterial blood specimen"/>
               </coding>
            </type>
            <collection>
               <collectedDateTime value="2020-12-10"/>
            </collection>
         </Specimen>
      </resource>
   </entry>
   <entry>
      <fullUrl value="urn:uuid:e625d978-87c5-494e-91c2-cee0db5e5682"/>
      <resource>
         <Observation>
            <id value="e625d978-87c5-494e-91c2-cee0db5e5682"/>
            <meta>
               <profile value="http://hl7.eu/fhir/laboratory/StructureDefinition/Observation-resultslab-eu-lab"/>
            </meta>
            <text>
               <status value="generated"/>
               <div xmlns="http://www.w3.org/1999/xhtml">
                  <table class="hl7__eu__lab__report">
                     <tr>
                        <th>Test</th>
                        <th>10-Dec-2020</th>
                        <th>Reference Range</th>
                        <th>Unit</th>
                     </tr>
                     <tr>
                        <td>Oxygen saturation in Arterial blood</td>
                        <td>79.5</td>
                        <td>95 - 100</td>
                        <td>L</td>
                        <td>%</td>
                     </tr>
                  </table>
               </div>
            </text>
            <status value="final"/>
            <category>
               <coding>
                  <system value="http://terminology.hl7.org/CodeSystem/observation-category"/>
                  <code value="laboratory"/>
               </coding>
            </category>
            <code>
               <coding>
                  <system value="http://loinc.org"/>
                  <code value="2708-6"/>
                  <display value="Oxygen saturation in Arterial blood"/>
               </coding>
               <text value="Oxygen saturation in Arterial blood"/>
            </code>
            <subject>
               <reference value="urn:uuid:9e4676d3-e941-40a0-85d3-e83aa394131c"/>
               <display value="Elias Höfig"/>
            </subject>
            <effectiveDateTime value="2020-12-10T09:47:46Z"/>
            <performer>
               <display value="The Central European Lab"/>
            </performer>
            <valueQuantity>
               <value value="79.5"/>
               <unit value="%"/>
               <system value="http://unitsofmeasure.org"/>
               <code value="%"/>
            </valueQuantity>
            <interpretation>
               <coding>
                  <system value="http://terminology.hl7.org/CodeSystem/v3-ObservationInterpretation"/>
                  <code value="L"/>
                  <display value="Low"/>
               </coding>
            </interpretation>
            <specimen>
               <reference value="urn:uuid:15ea1763-e4c7-4f50-95d7-e0785f02e6e0"/>
            </specimen>
            <referenceRange>
               <low>
                  <value value="95"/>
                  <system value="http://unitsofmeasure.org"/>
                  <code value="%"/>
               </low>
            </referenceRange>
            <referenceRange>
               <high>
                  <value value="100"/>
                  <system value="http://unitsofmeasure.org"/>
                  <code value="%"/>
               </high>
            </referenceRange>
         </Observation>
      </resource>
   </entry>
   <entry>
      <fullUrl value="urn:uuid:ee5d5b0e-3ab8-4e6e-9491-85e13c6fe661"/>
      <resource>
         <Device>
            <id value="ee5d5b0e-3ab8-4e6e-9491-85e13c6fe661"/>
            <text>
               <status value="generated"/>
               <div xmlns="http://www.w3.org/1999/xhtml">SYNDERAI Synthetic Generator v5.0</div>
            </text>
            <status value="active&#34;"/>
            <distinctIdentifier value="synderai-generator-50"/>
            <manufacturer value="SYNDERAI Project"/>
            <deviceName>
               <name value="SYNDERAI Synthetic Generator"/>
               <type value="manufacturer-name"/>
            </deviceName>
            <version>
               <value value="5.0"/>
            </version>
         </Device>
      </resource>
   </entry>
   <entry>
      <fullUrl value="urn:uuid:dd98dec6-7f19-4a6e-a8aa-81d7aa319187"/>
      <resource>
         <Provenance>
            <id value="dd98dec6-7f19-4a6e-a8aa-81d7aa319187"/>
            <text>
               <status value="generated"/>
               <div xmlns="http://www.w3.org/1999/xhtml">Provenance for SYNDERAI Synthetic Example Data Resource</div>
            </text>
            <target>
               <reference value="Patient/9e4676d3-e941-40a0-85d3-e83aa394131c"/>
            </target>
            <target>
               <reference value="Bundle/8d0f5dd7-5c61-49db-bfa6-ba593c843580"/>
            </target>
            <target>
               <reference value="Composition/d453bf59-9a87-40bb-b118-a70895de1d76"/>
            </target>
            <target>
               <reference value="PractitionerRole/35c615c9-9598-48da-b4ca-ca6723dc6dc0"/>
            </target>
            <target>
               <reference value="Practitioner/25ac4df1-bc53-48b0-9662-f9862aca7fd6"/>
            </target>
            <target>
               <reference value="PractitionerRole/fcc1cbe5-99f5-4cee-b923-16d53e5a9cf9"/>
            </target>
            <target>
               <reference value="Organization/754b566b-8ef2-4bf4-bfed-198a2fda1785"/>
            </target>
            <recorded value="2020-12-10T10:47:46Z"/>
            <policy value="https://synderai.net/synderai-synthetic-data-policy"/>
            <reason>
               <text value="Interoperability Testing and Training (non-clinical use)"/>
            </reason>
            <activity>
               <text value="Synthetic Example Data Generation"/>
            </activity>
            <agent>
               <type>
                  <text value="author"/>
               </type>
               <who>
                  <reference value="Device/ee5d5b0e-3ab8-4e6e-9491-85e13c6fe661"/>
               </who>
            </agent>
         </Provenance>
      </resource>
   </entry>
   <entry>
      <fullUrl value="urn:uuid:35c615c9-9598-48da-b4ca-ca6723dc6dc0"/>
      <resource>
         <PractitionerRole>
            <id value="35c615c9-9598-48da-b4ca-ca6723dc6dc0"/>
            <meta>
               <profile value="http://hl7.eu/fhir/base/StructureDefinition/practitionerRole-eu"/>
            </meta>
            <text>
               <status value="generated"/>
               <div xmlns="http://www.w3.org/1999/xhtml">Laboratory Role Id: 35c615c9-9598-48da-b4ca-ca6723dc6dc0</div>
            </text>
            <practitioner>
               <reference value="urn:uuid:25ac4df1-bc53-48b0-9662-f9862aca7fd6"/>
            </practitioner>
         </PractitionerRole>
      </resource>
   </entry>
   <entry>
      <fullUrl value="urn:uuid:25ac4df1-bc53-48b0-9662-f9862aca7fd6"/>
      <resource>
         <Practitioner>
            <id value="25ac4df1-bc53-48b0-9662-f9862aca7fd6"/>
            <meta>
               <profile value="http://hl7.eu/fhir/base/StructureDefinition/practitioner-eu"/>
            </meta>
            <text>
               <status value="generated"/>
               <div xmlns="http://www.w3.org/1999/xhtml">Laboratory: Laboratoire Central Européenne, 1000 Brussels, Belgium</div>
            </text>
            <identifier>
               <system value="urn:oid:2.16.840.1.113883.2.51.999"/>
               <value value="4bba63d2-0601-4bc4-9f6d-caf603c7528a"/>
               <assigner>
                  <display value="HL7 Europe"/>
               </assigner>
            </identifier>
            <name>
               <family value="Ample"/>
               <given value="Ex"/>
               <prefix value="dr"/>
            </name>
            <address>
               <line value="Laboratoire Central Européenne"/>
               <line value="Boulevard du Jardin Botanique 32"/>
               <city value="Brussels"/>
               <postalCode value="1000"/>
               <country value="Belgium"/>
            </address>
         </Practitioner>
      </resource>
   </entry>
</Bundle>