{
  "resourceType": "Bundle",
  "id": "09c62135-d4b4-47ac-abb3-c2827dfde871",
  "meta": {
    "profile": [
      "http://hl7.eu/fhir/laboratory/StructureDefinition/Bundle-eu-lab"
    ]
  },
  "identifier": {
    "assigner": {
      "display": "HL7 Europe"
    },
    "system": "urn:oid:2.16.840.1.113883.2.51.999",
    "value": "1bbcb989-e4bb-4bd4-a8d2-f62e7d6f72a4"
  },
  "entry": [
    {
      "fullUrl": "urn:uuid:7143372b-81e7-41ed-a3be-1d214c86cd9b",
      "resource": {
        "resourceType": "Composition",
        "id": "7143372b-81e7-41ed-a3be-1d214c86cd9b",
        "meta": {
          "profile": [
            "http://hl7.eu/fhir/laboratory/StructureDefinition/Composition-eu-lab"
          ]
        },
        "identifier": {
          "assigner": {
            "display": "HL7 Europe"
          },
          "system": "urn:oid:2.16.840.1.113883.2.51.999",
          "value": "9ec4ea13-afcc-4170-9bde-326e1f835e14"
        },
        "author": [
          {
            "reference": "urn:uuid:2ea78f42-8c99-4c23-8331-8ddd4c28eaa1"
          }
        ],
        "category": [
          {
            "coding": [
              {
                "code": "26436-6",
                "system": "http://loinc.org",
                "display": "Laboratory studies (set)"
              }
            ]
          }
        ],
        "type": {
          "coding": [
            {
              "code": "11502-2",
              "system": "http://loinc.org",
              "display": "Laboratory report"
            }
          ],
          "text": "Laboratory Report"
        },
        "section": [
          {
            "code": {
              "coding": [
                {
                  "code": "26436-6",
                  "system": "http://loinc.org",
                  "display": "Laboratory studies (set)"
                }
              ],
              "text": "Laboratory studies"
            },
            "section": [
              {
                "code": {
                  "coding": [
                    {
                      "code": "$18719-5",
                      "system": "http://loinc.org",
                      "display": "Chemistry studies (set)"
                    }
                  ],
                  "text": "Chemistry"
                },
                "entry": [
                  {
                    "reference": "urn:uuid:6722a3ab-71bd-4b6e-adf0-d9d6916ea045"
                  },
                  {
                    "reference": "urn:uuid:1ba5eccd-626b-4f46-bddc-86df69d06fcf"
                  },
                  {
                    "reference": "urn:uuid:9f13ae33-6772-4226-b087-edcb5df7dada"
                  },
                  {
                    "reference": "urn:uuid:ef4a6005-a34b-4d68-bec6-01bc542361b3"
                  },
                  {
                    "reference": "urn:uuid:ded4ee5e-dfff-430d-8928-12eb87089c9c"
                  },
                  {
                    "reference": "urn:uuid:7bc81937-60d2-405f-92b9-d9136474dd1f"
                  },
                  {
                    "reference": "urn:uuid:9f190c70-3fb8-40bf-8215-28d04a99994f"
                  },
                  {
                    "reference": "urn:uuid:b0d1a6d4-48dd-43a0-acef-df91675453e8"
                  },
                  {
                    "reference": "urn:uuid:638a1420-002f-4d73-be55-a09b35e5b161"
                  }
                ],
                "text": {
                  "status": "generated",
                  "div": "<div xmlns=\"http://www.w3.org/1999/xhtml\"><h3>Chemistry</h3><table class=\"hl7__eu__lab__report\"><thead><tr><th>Test</th><th>21-OCT-2022</th><th>Reference&#xA0;Range</th><th>Unit</th></tr></thead><tbody><tr><td>Hemoglobin A1c/Hemoglobin.total in Blood</td><td><strong>4.0 L</strong></td><td>4.6 - 6.4</td><td>%</td></tr><tr><td>Glucose [Mass/volume] in Blood</td><td>99.7</td><td>70 - 110</td><td>mg/dL</td></tr><tr><td>Urea nitrogen [Mass/volume] in Blood</td><td>14.3</td><td>7 - 43</td><td>mg/dL</td></tr><tr><td>Creatinine [Mass/volume] in Blood</td><td><strong>0.8 L</strong></td><td>0.9 - 1.3</td><td>mg/dL</td></tr><tr><td>Calcium [Mass/volume] in Blood</td><td>9.9</td><td>8.5 - 10.5</td><td>mg/dL</td></tr><tr><td>Sodium [Moles/volume] in Blood</td><td>136.8</td><td>135 - 145</td><td>mmol/L</td></tr><tr><td>Potassium [Moles/volume] in Blood</td><td>4.8</td><td>3.5 - 5.3</td><td>mmol/L</td></tr><tr><td>Chloride [Moles/volume] in Blood</td><td>106.4</td><td>98 - 108</td><td>mmol/L</td></tr><tr><td>Carbon dioxide, total [Moles/volume] in Blood</td><td><strong>21.6 L</strong></td><td>22 - 29</td><td>mmol/L</td></tr></tbody></table></div>"
                },
                "title": "Chemistry"
              }
            ],
            "title": "Laboratory Report"
          },
          {
            "text": {
              "status": "generated",
              "div": "<div xmlns=\"http://www.w3.org/1999/xhtml\"><h3>Annotation</h3><table class=\"hl7__eu__lab__report\"><tr><th>Conclusion and Recommendations based on this report and previous findings known to us</th></tr><tr><td>The patient shows mildly decreased HbA1c, creatinine, and total CO₂, with all other parameters within normal limits. The low HbA1c may reflect recent changes in glucose metabolism or possible anemia, while low creatinine is often not clinically significant in elderly males with reduced muscle mass. Slightly low CO₂ may suggest mild metabolic acidosis or compensation. No acute abnormalities detected; clinical correlation recommended.</td></tr></table></div>"
            },
            "code": {
              "coding": [
                {
                  "system": "http://loinc.org",
                  "code": "48767-8",
                  "display": "Annotation comment"
                }
              ]
            },
            "title": "Annotation comment"
          }
        ],
        "status": "final",
        "subject": {
          "reference": "urn:uuid:47d6c1cf-5cb7-4108-8eb1-9cecc9bde5c8",
          "display": "Gabrielius Gaičiūnas"
        },
        "date": "2022-10-21T18:05:46Z",
        "title": "Laboratory Report",
        "confidentiality": "N"
      }
    },
    {
      "fullUrl": "urn:uuid:ca5419fc-7c6e-45fc-9c17-f3e6a79eeff1",
      "resource": {
        "resourceType": "DiagnosticReport",
        "id": "ca5419fc-7c6e-45fc-9c17-f3e6a79eeff1",
        "meta": {
          "profile": [
            "http://hl7.eu/fhir/laboratory/StructureDefinition/DiagnosticReport-eu-lab"
          ]
        },
        "identifier": [
          {
            "assigner": {
              "display": "HL7 Europe"
            },
            "system": "urn:oid:2.16.840.1.113883.2.51.999",
            "value": "788f647c-9771-4341-8b0a-daf4accc471e"
          }
        ],
        "extension": [
          {
            "url": "http://hl7.org/fhir/5.0/StructureDefinition/extension-DiagnosticReport.composition",
            "valueReference": {
              "reference": "urn:uuid:9ec4ea13-afcc-4170-9bde-326e1f835e14"
            }
          }
        ],
        "category": [
          {
            "coding": [
              {
                "code": "26436-6",
                "system": "http://loinc.org",
                "display": "Laboratory studies (set)"
              }
            ]
          }
        ],
        "specimen": [
          {
            "reference": "urn:uuid:7ecb6469-dacd-4272-91eb-048b27a09d14"
          }
        ],
        "result": [
          {
            "reference": "urn:uuid:6722a3ab-71bd-4b6e-adf0-d9d6916ea045"
          },
          {
            "reference": "urn:uuid:1ba5eccd-626b-4f46-bddc-86df69d06fcf"
          },
          {
            "reference": "urn:uuid:9f13ae33-6772-4226-b087-edcb5df7dada"
          },
          {
            "reference": "urn:uuid:ef4a6005-a34b-4d68-bec6-01bc542361b3"
          },
          {
            "reference": "urn:uuid:ded4ee5e-dfff-430d-8928-12eb87089c9c"
          },
          {
            "reference": "urn:uuid:7bc81937-60d2-405f-92b9-d9136474dd1f"
          },
          {
            "reference": "urn:uuid:9f190c70-3fb8-40bf-8215-28d04a99994f"
          },
          {
            "reference": "urn:uuid:b0d1a6d4-48dd-43a0-acef-df91675453e8"
          },
          {
            "reference": "urn:uuid:638a1420-002f-4d73-be55-a09b35e5b161"
          }
        ],
        "status": "registered",
        "code": {
          "coding": [
            {
              "code": "11502-2",
              "system": "http://loinc.org",
              "display": "Laboratory report"
            }
          ]
        },
        "subject": {
          "reference": "urn:uuid:47d6c1cf-5cb7-4108-8eb1-9cecc9bde5c8",
          "display": "Gabrielius Gaičiūnas"
        }
      }
    },
    {
      "fullUrl": "urn:uuid:47d6c1cf-5cb7-4108-8eb1-9cecc9bde5c8",
      "resource": {
        "resourceType": "Patient",
        "id": "47d6c1cf-5cb7-4108-8eb1-9cecc9bde5c8",
        "meta": {
          "security": [
            {
              "system": "http://terminology.hl7.org/CodeSystem/v3-ActReason",
              "code": "HTEST"
            },
            {
              "system": "http://terminology.hl7.org/CodeSystem/v3-ActReason",
              "code": "TRAIN"
            }
          ],
          "tag": [
            {
              "system": "https://synderai.net/fhir/CodeSystem/tags",
              "code": "synthetic",
              "display": "SYNDERAI Synthetic data"
            }
          ],
          "profile": [
            "http://hl7.eu/fhir/base/StructureDefinition/patient-eu-core"
          ]
        },
        "identifier": [
          {
            "type": {
              "coding": [
                {
                  "code": "PT",
                  "system": "http://terminology.hl7.org/CodeSystem/v2-0203"
                }
              ]
            },
            "system": "http://ec.europa.eu/identifier/eci",
            "value": "5711-320329-3"
          },
          {
            "type": {
              "coding": [
                {
                  "code": "MR",
                  "system": "http://terminology.hl7.org/CodeSystem/v2-0203"
                }
              ]
            },
            "system": "http://local.setting.eu/identifier",
            "value": "b2cdf95b-c12d-3f56-84e4-d085f70edd0c"
          }
        ],
        "name": [
          {
            "family": "Gaičiūnas"
          },
          {
            "given": [
              "Gabrielius"
            ]
          },
          {
            "text": "Gabrielius Gaičiūnas"
          }
        ],
        "address": [
          {
            "line": [
              "5951 Monika Rapid"
            ],
            "use": "home",
            "type": "physical",
            "postalCode": "97190",
            "city": "Poškaton",
            "country": "Lithuania"
          }
        ],
        "telecom": [
          {
            "system": "phone",
            "value": "+370 71605146"
          }
        ],
        "extension": [
          {
            "url": "http://hl7.org/fhir/StructureDefinition/patient-nationality",
            "valueCodeableConcept": {
              "coding": [
                {
                  "code": "LT",
                  "system": "http://hl7.org/fhir/ValueSet/country"
                }
              ]
            }
          }
        ],
        "text": {
          "status": "generated",
          "div": "<div xmlns=\"http://www.w3.org/1999/xhtml\"><table class=\"hl7__ips\"><tr><td>Gabrielius Gaičiūnas</td><td>male</td><td>19-May-1948</td></tr></table></div>"
        },
        "gender": "male",
        "birthDate": "1948-05-19"
      }
    },
    {
      "fullUrl": "urn:uuid:1bc85d44-fdbc-4913-b5fe-16693a969a10",
      "resource": {
        "resourceType": "ServiceRequest",
        "id": "1bc85d44-fdbc-4913-b5fe-16693a969a10",
        "meta": {
          "profile": [
            "http://hl7.eu/fhir/laboratory/StructureDefinition/ServiceRequest-eu-lab"
          ]
        },
        "identifier": [
          {
            "system": "http://example.org",
            "value": "23867845-291c-402a-b8b5-415dd63bed86"
          }
        ],
        "specimen": [
          {
            "reference": "urn:uuid:7ecb6469-dacd-4272-91eb-048b27a09d14"
          }
        ],
        "reasonCode": [
          {
            "coding": [
              {
                "code": "414545008",
                "system": "http://snomed.info/sct",
                "display": "Ischemic heart disease"
              }
            ]
          },
          {
            "coding": [
              {
                "code": "157141000119108",
                "system": "http://snomed.info/sct",
                "display": "Proteinuria due to type 2 diabetes mellitus"
              }
            ]
          },
          {
            "coding": [
              {
                "code": "401303003",
                "system": "http://snomed.info/sct",
                "display": "Acute ST segment elevation myocardial infarction"
              }
            ]
          },
          {
            "coding": [
              {
                "code": "40055000",
                "system": "http://snomed.info/sct",
                "display": "Chronic sinusitis"
              }
            ]
          },
          {
            "coding": [
              {
                "code": "90781000119102",
                "system": "http://snomed.info/sct",
                "display": "Microalbuminuria due to type 2 diabetes mellitus"
              }
            ]
          },
          {
            "coding": [
              {
                "code": "127013003",
                "system": "http://snomed.info/sct",
                "display": "Disorder of kidney due to diabetes mellitus"
              }
            ]
          },
          {
            "coding": [
              {
                "code": "59621000",
                "system": "http://snomed.info/sct",
                "display": "Essential hypertension"
              }
            ]
          },
          {
            "coding": [
              {
                "code": "15777000",
                "system": "http://snomed.info/sct",
                "display": "Prediabetes"
              }
            ]
          },
          {
            "coding": [
              {
                "code": "271737000",
                "system": "http://snomed.info/sct",
                "display": "Anemia"
              }
            ]
          }
        ],
        "status": "active",
        "intent": "order",
        "code": {
          "coding": [
            {
              "code": "108252007",
              "system": "http://snomed.info/sct",
              "display": "Laboratory procedure"
            }
          ]
        },
        "subject": {
          "reference": "urn:uuid:47d6c1cf-5cb7-4108-8eb1-9cecc9bde5c8",
          "display": "Gabrielius Gaičiūnas"
        },
        "requester": {
          "reference": "urn:uuid:c7394b79-3052-4c55-b09e-92122dc3eae0"
        }
      }
    },
    {
      "fullUrl": "urn:uuid:c7394b79-3052-4c55-b09e-92122dc3eae0",
      "resource": {
        "resourceType": "PractitionerRole",
        "id": "c7394b79-3052-4c55-b09e-92122dc3eae0",
        "meta": {
          "profile": [
            "http://hl7.eu/fhir/base/StructureDefinition/practitionerRole-eu"
          ]
        },
        "text": {
          "status": "generated",
          "div": "<div xmlns=\"http://www.w3.org/1999/xhtml\">Provider Role Id: c7394b79-3052-4c55-b09e-92122dc3eae0</div>"
        },
        "organization": {
          "reference": "urn:uuid:b3a6a339-90fc-449d-9dd1-66de49ab8108"
        }
      }
    },
    {
      "fullUrl": "urn:uuid:b3a6a339-90fc-449d-9dd1-66de49ab8108",
      "resource": {
        "resourceType": "Organization",
        "id": "b3a6a339-90fc-449d-9dd1-66de49ab8108",
        "meta": {
          "profile": [
            "http://hl7.eu/fhir/base/StructureDefinition/organization-eu"
          ]
        },
        "identifier": [
          {
            "assigner": {
              "display": "HL7 Europe"
            },
            "system": "urn:oid:2.16.840.1.113883.2.51.999",
            "value": "22d2fd18-22b2-4558-b16a-fa2d68530744"
          }
        ],
        "address": [
          {
            "line": [
              "182 Savanorių pr."
            ],
            "city": "Klaipėda",
            "postalCode": "LT-91200",
            "country": "Lithuania"
          }
        ],
        "text": {
          "status": "generated",
          "div": "<div xmlns=\"http://www.w3.org/1999/xhtml\">Provider Organization: Dr. Tomas Bakas</div>"
        },
        "name": "Dr. Tomas Bakas"
      }
    },
    {
      "fullUrl": "urn:uuid:7ecb6469-dacd-4272-91eb-048b27a09d14",
      "resource": {
        "resourceType": "Specimen",
        "id": "7ecb6469-dacd-4272-91eb-048b27a09d14",
        "meta": {
          "profile": [
            "http://hl7.eu/fhir/laboratory/StructureDefinition/Specimen-eu-lab"
          ]
        },
        "collection": {
          "collectedDateTime": "2022-10-21"
        },
        "text": {
          "status": "generated",
          "div": "<div xmlns=\"http://www.w3.org/1999/xhtml\"><table class=\"hl7__eu__lab__report\"><tr><th>Specimen</th><th>Collection Date</th></tr><tr><td>Whole blood specimen (specimen)</td><td><span class=\"nb\">21-Oct-2022</span></td></tr></table></div>"
        },
        "type": {
          "coding": [
            {
              "code": "258580003",
              "system": "http://snomed.info/sct",
              "display": "Whole blood specimen (specimen)"
            }
          ]
        }
      }
    },
    {
      "fullUrl": "urn:uuid:6722a3ab-71bd-4b6e-adf0-d9d6916ea045",
      "resource": {
        "resourceType": "Observation",
        "id": "6722a3ab-71bd-4b6e-adf0-d9d6916ea045",
        "meta": {
          "profile": [
            "http://hl7.eu/fhir/laboratory/StructureDefinition/Observation-resultslab-eu-lab"
          ]
        },
        "performer": [
          {
            "display": "The Central European Lab"
          }
        ],
        "category": [
          {
            "coding": [
              {
                "system": "http://terminology.hl7.org/CodeSystem/observation-category",
                "code": "laboratory"
              }
            ]
          }
        ],
        "code": {
          "coding": [
            {
              "code": "4548-4",
              "system": "http://loinc.org",
              "display": "Hemoglobin A1c/Hemoglobin.total in Blood"
            }
          ],
          "text": "Hemoglobin A1c/Hemoglobin.total in Blood"
        },
        "valueQuantity": {
          "system": "http://unitsofmeasure.org",
          "value": 4,
          "unit": "%",
          "code": "%"
        },
        "referenceRange": [
          {
            "low": {
              "value": 4.6,
              "code": "%",
              "system": "http://unitsofmeasure.org"
            }
          },
          {
            "high": {
              "value": 6.4,
              "code": "%",
              "system": "http://unitsofmeasure.org"
            }
          }
        ],
        "interpretation": [
          {
            "coding": [
              {
                "code": "L",
                "system": "http://terminology.hl7.org/CodeSystem/v3-ObservationInterpretation",
                "display": "Low"
              }
            ]
          }
        ],
        "text": {
          "status": "generated",
          "div": "<div xmlns=\"http://www.w3.org/1999/xhtml\"><table class=\"hl7__eu__lab__report\"><tr><th>Test</th><th>21-Oct-2022</th><th>Reference&#xA0;Range</th><th>Unit</th></tr><tr><td>Hemoglobin A1c/Hemoglobin.total in Blood</td><td>4.0</td><td>4.6 - 6.4</td><td>L</td><td>%</td></tr></table></div>"
        },
        "status": "final",
        "subject": {
          "reference": "urn:uuid:47d6c1cf-5cb7-4108-8eb1-9cecc9bde5c8",
          "display": "Gabrielius Gaičiūnas"
        },
        "effectiveDateTime": "2022-10-21T16:05:46Z",
        "specimen": {
          "reference": "urn:uuid:7ecb6469-dacd-4272-91eb-048b27a09d14"
        }
      }
    },
    {
      "fullUrl": "urn:uuid:1ba5eccd-626b-4f46-bddc-86df69d06fcf",
      "resource": {
        "resourceType": "Observation",
        "id": "1ba5eccd-626b-4f46-bddc-86df69d06fcf",
        "meta": {
          "profile": [
            "http://hl7.eu/fhir/laboratory/StructureDefinition/Observation-resultslab-eu-lab"
          ]
        },
        "performer": [
          {
            "display": "The Central European Lab"
          }
        ],
        "category": [
          {
            "coding": [
              {
                "system": "http://terminology.hl7.org/CodeSystem/observation-category",
                "code": "laboratory"
              }
            ]
          }
        ],
        "code": {
          "coding": [
            {
              "code": "2339-0",
              "system": "http://loinc.org",
              "display": "Glucose [Mass/volume] in Blood"
            }
          ],
          "text": "Glucose [Mass/volume] in Blood"
        },
        "valueQuantity": {
          "system": "http://unitsofmeasure.org",
          "value": 99.7,
          "unit": "mg/dL",
          "code": "mg/dL"
        },
        "referenceRange": [
          {
            "low": {
              "value": 70,
              "code": "mg/dL",
              "system": "http://unitsofmeasure.org"
            }
          },
          {
            "high": {
              "value": 110,
              "code": "mg/dL",
              "system": "http://unitsofmeasure.org"
            }
          }
        ],
        "text": {
          "status": "generated",
          "div": "<div xmlns=\"http://www.w3.org/1999/xhtml\"><table class=\"hl7__eu__lab__report\"><tr><th>Test</th><th>21-Oct-2022</th><th>Reference&#xA0;Range</th><th>Unit</th></tr><tr><td>Glucose [Mass/volume] in Blood</td><td>99.7</td><td>70 - 110</td><td></td><td>mg/dL</td></tr></table></div>"
        },
        "status": "final",
        "subject": {
          "reference": "urn:uuid:47d6c1cf-5cb7-4108-8eb1-9cecc9bde5c8",
          "display": "Gabrielius Gaičiūnas"
        },
        "effectiveDateTime": "2022-10-21T16:05:46Z",
        "specimen": {
          "reference": "urn:uuid:7ecb6469-dacd-4272-91eb-048b27a09d14"
        }
      }
    },
    {
      "fullUrl": "urn:uuid:9f13ae33-6772-4226-b087-edcb5df7dada",
      "resource": {
        "resourceType": "Observation",
        "id": "9f13ae33-6772-4226-b087-edcb5df7dada",
        "meta": {
          "profile": [
            "http://hl7.eu/fhir/laboratory/StructureDefinition/Observation-resultslab-eu-lab"
          ]
        },
        "performer": [
          {
            "display": "The Central European Lab"
          }
        ],
        "category": [
          {
            "coding": [
              {
                "system": "http://terminology.hl7.org/CodeSystem/observation-category",
                "code": "laboratory"
              }
            ]
          }
        ],
        "code": {
          "coding": [
            {
              "code": "6299-2",
              "system": "http://loinc.org",
              "display": "Urea nitrogen [Mass/volume] in Blood"
            }
          ],
          "text": "Urea nitrogen [Mass/volume] in Blood"
        },
        "valueQuantity": {
          "system": "http://unitsofmeasure.org",
          "value": 14.3,
          "unit": "mg/dL",
          "code": "mg/dL"
        },
        "referenceRange": [
          {
            "low": {
              "value": 7,
              "code": "mg/dL",
              "system": "http://unitsofmeasure.org"
            }
          },
          {
            "high": {
              "value": 43,
              "code": "mg/dL",
              "system": "http://unitsofmeasure.org"
            }
          }
        ],
        "text": {
          "status": "generated",
          "div": "<div xmlns=\"http://www.w3.org/1999/xhtml\"><table class=\"hl7__eu__lab__report\"><tr><th>Test</th><th>21-Oct-2022</th><th>Reference&#xA0;Range</th><th>Unit</th></tr><tr><td>Urea nitrogen [Mass/volume] in Blood</td><td>14.3</td><td>7 - 43</td><td></td><td>mg/dL</td></tr></table></div>"
        },
        "status": "final",
        "subject": {
          "reference": "urn:uuid:47d6c1cf-5cb7-4108-8eb1-9cecc9bde5c8",
          "display": "Gabrielius Gaičiūnas"
        },
        "effectiveDateTime": "2022-10-21T16:05:46Z",
        "specimen": {
          "reference": "urn:uuid:7ecb6469-dacd-4272-91eb-048b27a09d14"
        }
      }
    },
    {
      "fullUrl": "urn:uuid:ef4a6005-a34b-4d68-bec6-01bc542361b3",
      "resource": {
        "resourceType": "Observation",
        "id": "ef4a6005-a34b-4d68-bec6-01bc542361b3",
        "meta": {
          "profile": [
            "http://hl7.eu/fhir/laboratory/StructureDefinition/Observation-resultslab-eu-lab"
          ]
        },
        "performer": [
          {
            "display": "The Central European Lab"
          }
        ],
        "category": [
          {
            "coding": [
              {
                "system": "http://terminology.hl7.org/CodeSystem/observation-category",
                "code": "laboratory"
              }
            ]
          }
        ],
        "code": {
          "coding": [
            {
              "code": "38483-4",
              "system": "http://loinc.org",
              "display": "Creatinine [Mass/volume] in Blood"
            }
          ],
          "text": "Creatinine [Mass/volume] in Blood"
        },
        "valueQuantity": {
          "system": "http://unitsofmeasure.org",
          "value": 0.8,
          "unit": "mg/dL",
          "code": "mg/dL"
        },
        "referenceRange": [
          {
            "low": {
              "value": 0.9,
              "code": "mg/dL",
              "system": "http://unitsofmeasure.org"
            }
          },
          {
            "high": {
              "value": 1.3,
              "code": "mg/dL",
              "system": "http://unitsofmeasure.org"
            }
          }
        ],
        "interpretation": [
          {
            "coding": [
              {
                "code": "L",
                "system": "http://terminology.hl7.org/CodeSystem/v3-ObservationInterpretation",
                "display": "Low"
              }
            ]
          }
        ],
        "text": {
          "status": "generated",
          "div": "<div xmlns=\"http://www.w3.org/1999/xhtml\"><table class=\"hl7__eu__lab__report\"><tr><th>Test</th><th>21-Oct-2022</th><th>Reference&#xA0;Range</th><th>Unit</th></tr><tr><td>Creatinine [Mass/volume] in Blood</td><td>0.8</td><td>0.9 - 1.3</td><td>L</td><td>mg/dL</td></tr></table></div>"
        },
        "status": "final",
        "subject": {
          "reference": "urn:uuid:47d6c1cf-5cb7-4108-8eb1-9cecc9bde5c8",
          "display": "Gabrielius Gaičiūnas"
        },
        "effectiveDateTime": "2022-10-21T16:05:46Z",
        "specimen": {
          "reference": "urn:uuid:7ecb6469-dacd-4272-91eb-048b27a09d14"
        }
      }
    },
    {
      "fullUrl": "urn:uuid:ded4ee5e-dfff-430d-8928-12eb87089c9c",
      "resource": {
        "resourceType": "Observation",
        "id": "ded4ee5e-dfff-430d-8928-12eb87089c9c",
        "meta": {
          "profile": [
            "http://hl7.eu/fhir/laboratory/StructureDefinition/Observation-resultslab-eu-lab"
          ]
        },
        "performer": [
          {
            "display": "The Central European Lab"
          }
        ],
        "category": [
          {
            "coding": [
              {
                "system": "http://terminology.hl7.org/CodeSystem/observation-category",
                "code": "laboratory"
              }
            ]
          }
        ],
        "code": {
          "coding": [
            {
              "code": "49765-1",
              "system": "http://loinc.org",
              "display": "Calcium [Mass/volume] in Blood"
            }
          ],
          "text": "Calcium [Mass/volume] in Blood"
        },
        "valueQuantity": {
          "system": "http://unitsofmeasure.org",
          "value": 9.9,
          "unit": "mg/dL",
          "code": "mg/dL"
        },
        "referenceRange": [
          {
            "low": {
              "value": 8.5,
              "code": "mg/dL",
              "system": "http://unitsofmeasure.org"
            }
          },
          {
            "high": {
              "value": 10.5,
              "code": "mg/dL",
              "system": "http://unitsofmeasure.org"
            }
          }
        ],
        "text": {
          "status": "generated",
          "div": "<div xmlns=\"http://www.w3.org/1999/xhtml\"><table class=\"hl7__eu__lab__report\"><tr><th>Test</th><th>21-Oct-2022</th><th>Reference&#xA0;Range</th><th>Unit</th></tr><tr><td>Calcium [Mass/volume] in Blood</td><td>9.9</td><td>8.5 - 10.5</td><td></td><td>mg/dL</td></tr></table></div>"
        },
        "status": "final",
        "subject": {
          "reference": "urn:uuid:47d6c1cf-5cb7-4108-8eb1-9cecc9bde5c8",
          "display": "Gabrielius Gaičiūnas"
        },
        "effectiveDateTime": "2022-10-21T16:05:46Z",
        "specimen": {
          "reference": "urn:uuid:7ecb6469-dacd-4272-91eb-048b27a09d14"
        }
      }
    },
    {
      "fullUrl": "urn:uuid:7bc81937-60d2-405f-92b9-d9136474dd1f",
      "resource": {
        "resourceType": "Observation",
        "id": "7bc81937-60d2-405f-92b9-d9136474dd1f",
        "meta": {
          "profile": [
            "http://hl7.eu/fhir/laboratory/StructureDefinition/Observation-resultslab-eu-lab"
          ]
        },
        "performer": [
          {
            "display": "The Central European Lab"
          }
        ],
        "category": [
          {
            "coding": [
              {
                "system": "http://terminology.hl7.org/CodeSystem/observation-category",
                "code": "laboratory"
              }
            ]
          }
        ],
        "code": {
          "coding": [
            {
              "code": "2947-0",
              "system": "http://loinc.org",
              "display": "Sodium [Moles/volume] in Blood"
            }
          ],
          "text": "Sodium [Moles/volume] in Blood"
        },
        "valueQuantity": {
          "system": "http://unitsofmeasure.org",
          "value": 136.8,
          "unit": "mmol/L",
          "code": "mmol/L"
        },
        "referenceRange": [
          {
            "low": {
              "value": 135,
              "code": "mmol/L",
              "system": "http://unitsofmeasure.org"
            }
          },
          {
            "high": {
              "value": 145,
              "code": "mmol/L",
              "system": "http://unitsofmeasure.org"
            }
          }
        ],
        "text": {
          "status": "generated",
          "div": "<div xmlns=\"http://www.w3.org/1999/xhtml\"><table class=\"hl7__eu__lab__report\"><tr><th>Test</th><th>21-Oct-2022</th><th>Reference&#xA0;Range</th><th>Unit</th></tr><tr><td>Sodium [Moles/volume] in Blood</td><td>136.8</td><td>135 - 145</td><td></td><td>mmol/L</td></tr></table></div>"
        },
        "status": "final",
        "subject": {
          "reference": "urn:uuid:47d6c1cf-5cb7-4108-8eb1-9cecc9bde5c8",
          "display": "Gabrielius Gaičiūnas"
        },
        "effectiveDateTime": "2022-10-21T16:05:46Z",
        "specimen": {
          "reference": "urn:uuid:7ecb6469-dacd-4272-91eb-048b27a09d14"
        }
      }
    },
    {
      "fullUrl": "urn:uuid:9f190c70-3fb8-40bf-8215-28d04a99994f",
      "resource": {
        "resourceType": "Observation",
        "id": "9f190c70-3fb8-40bf-8215-28d04a99994f",
        "meta": {
          "profile": [
            "http://hl7.eu/fhir/laboratory/StructureDefinition/Observation-resultslab-eu-lab"
          ]
        },
        "performer": [
          {
            "display": "The Central European Lab"
          }
        ],
        "category": [
          {
            "coding": [
              {
                "system": "http://terminology.hl7.org/CodeSystem/observation-category",
                "code": "laboratory"
              }
            ]
          }
        ],
        "code": {
          "coding": [
            {
              "code": "6298-4",
              "system": "http://loinc.org",
              "display": "Potassium [Moles/volume] in Blood"
            }
          ],
          "text": "Potassium [Moles/volume] in Blood"
        },
        "valueQuantity": {
          "system": "http://unitsofmeasure.org",
          "value": 4.8,
          "unit": "mmol/L",
          "code": "mmol/L"
        },
        "referenceRange": [
          {
            "low": {
              "value": 3.5,
              "code": "mmol/L",
              "system": "http://unitsofmeasure.org"
            }
          },
          {
            "high": {
              "value": 5.3,
              "code": "mmol/L",
              "system": "http://unitsofmeasure.org"
            }
          }
        ],
        "text": {
          "status": "generated",
          "div": "<div xmlns=\"http://www.w3.org/1999/xhtml\"><table class=\"hl7__eu__lab__report\"><tr><th>Test</th><th>21-Oct-2022</th><th>Reference&#xA0;Range</th><th>Unit</th></tr><tr><td>Potassium [Moles/volume] in Blood</td><td>4.8</td><td>3.5 - 5.3</td><td></td><td>mmol/L</td></tr></table></div>"
        },
        "status": "final",
        "subject": {
          "reference": "urn:uuid:47d6c1cf-5cb7-4108-8eb1-9cecc9bde5c8",
          "display": "Gabrielius Gaičiūnas"
        },
        "effectiveDateTime": "2022-10-21T16:05:46Z",
        "specimen": {
          "reference": "urn:uuid:7ecb6469-dacd-4272-91eb-048b27a09d14"
        }
      }
    },
    {
      "fullUrl": "urn:uuid:b0d1a6d4-48dd-43a0-acef-df91675453e8",
      "resource": {
        "resourceType": "Observation",
        "id": "b0d1a6d4-48dd-43a0-acef-df91675453e8",
        "meta": {
          "profile": [
            "http://hl7.eu/fhir/laboratory/StructureDefinition/Observation-resultslab-eu-lab"
          ]
        },
        "performer": [
          {
            "display": "The Central European Lab"
          }
        ],
        "category": [
          {
            "coding": [
              {
                "system": "http://terminology.hl7.org/CodeSystem/observation-category",
                "code": "laboratory"
              }
            ]
          }
        ],
        "code": {
          "coding": [
            {
              "code": "2069-3",
              "system": "http://loinc.org",
              "display": "Chloride [Moles/volume] in Blood"
            }
          ],
          "text": "Chloride [Moles/volume] in Blood"
        },
        "valueQuantity": {
          "system": "http://unitsofmeasure.org",
          "value": 106.4,
          "unit": "mmol/L",
          "code": "mmol/L"
        },
        "referenceRange": [
          {
            "low": {
              "value": 98,
              "code": "mmol/L",
              "system": "http://unitsofmeasure.org"
            }
          },
          {
            "high": {
              "value": 108,
              "code": "mmol/L",
              "system": "http://unitsofmeasure.org"
            }
          }
        ],
        "text": {
          "status": "generated",
          "div": "<div xmlns=\"http://www.w3.org/1999/xhtml\"><table class=\"hl7__eu__lab__report\"><tr><th>Test</th><th>21-Oct-2022</th><th>Reference&#xA0;Range</th><th>Unit</th></tr><tr><td>Chloride [Moles/volume] in Blood</td><td>106.4</td><td>98 - 108</td><td></td><td>mmol/L</td></tr></table></div>"
        },
        "status": "final",
        "subject": {
          "reference": "urn:uuid:47d6c1cf-5cb7-4108-8eb1-9cecc9bde5c8",
          "display": "Gabrielius Gaičiūnas"
        },
        "effectiveDateTime": "2022-10-21T16:05:46Z",
        "specimen": {
          "reference": "urn:uuid:7ecb6469-dacd-4272-91eb-048b27a09d14"
        }
      }
    },
    {
      "fullUrl": "urn:uuid:638a1420-002f-4d73-be55-a09b35e5b161",
      "resource": {
        "resourceType": "Observation",
        "id": "638a1420-002f-4d73-be55-a09b35e5b161",
        "meta": {
          "profile": [
            "http://hl7.eu/fhir/laboratory/StructureDefinition/Observation-resultslab-eu-lab"
          ]
        },
        "performer": [
          {
            "display": "The Central European Lab"
          }
        ],
        "category": [
          {
            "coding": [
              {
                "system": "http://terminology.hl7.org/CodeSystem/observation-category",
                "code": "laboratory"
              }
            ]
          }
        ],
        "code": {
          "coding": [
            {
              "code": "20565-8",
              "system": "http://loinc.org",
              "display": "Carbon dioxide, total [Moles/volume] in Blood"
            }
          ],
          "text": "Carbon dioxide, total [Moles/volume] in Blood"
        },
        "valueQuantity": {
          "system": "http://unitsofmeasure.org",
          "value": 21.6,
          "unit": "mmol/L",
          "code": "mmol/L"
        },
        "referenceRange": [
          {
            "low": {
              "value": 22,
              "code": "mmol/L",
              "system": "http://unitsofmeasure.org"
            }
          },
          {
            "high": {
              "value": 29,
              "code": "mmol/L",
              "system": "http://unitsofmeasure.org"
            }
          }
        ],
        "interpretation": [
          {
            "coding": [
              {
                "code": "L",
                "system": "http://terminology.hl7.org/CodeSystem/v3-ObservationInterpretation",
                "display": "Low"
              }
            ]
          }
        ],
        "text": {
          "status": "generated",
          "div": "<div xmlns=\"http://www.w3.org/1999/xhtml\"><table class=\"hl7__eu__lab__report\"><tr><th>Test</th><th>21-Oct-2022</th><th>Reference&#xA0;Range</th><th>Unit</th></tr><tr><td>Carbon dioxide, total [Moles/volume] in Blood</td><td>21.6</td><td>22 - 29</td><td>L</td><td>mmol/L</td></tr></table></div>"
        },
        "status": "final",
        "subject": {
          "reference": "urn:uuid:47d6c1cf-5cb7-4108-8eb1-9cecc9bde5c8",
          "display": "Gabrielius Gaičiūnas"
        },
        "effectiveDateTime": "2022-10-21T16:05:46Z",
        "specimen": {
          "reference": "urn:uuid:7ecb6469-dacd-4272-91eb-048b27a09d14"
        }
      }
    },
    {
      "fullUrl": "urn:uuid:8f5a31e4-c3c1-4f52-a4b6-6cda52fb8216",
      "resource": {
        "resourceType": "Device",
        "id": "8f5a31e4-c3c1-4f52-a4b6-6cda52fb8216",
        "deviceName": [
          {
            "name": "SYNDERAI Synthetic Generator",
            "type": "manufacturer-name"
          }
        ],
        "version": [
          {
            "value": "5.0"
          }
        ],
        "text": {
          "status": "generated",
          "div": "<div xmlns=\"http://www.w3.org/1999/xhtml\">SYNDERAI Synthetic Generator v5.0</div>"
        },
        "status": "active\"",
        "distinctIdentifier": "synderai-generator-50",
        "manufacturer": "SYNDERAI Project"
      }
    },
    {
      "fullUrl": "urn:uuid:0ba8af7c-0df8-4f73-8970-349a5c452eff",
      "resource": {
        "resourceType": "Provenance",
        "id": "0ba8af7c-0df8-4f73-8970-349a5c452eff",
        "target": [
          {
            "reference": "Patient/47d6c1cf-5cb7-4108-8eb1-9cecc9bde5c8"
          },
          {
            "reference": "Bundle/09c62135-d4b4-47ac-abb3-c2827dfde871"
          },
          {
            "reference": "Composition/7143372b-81e7-41ed-a3be-1d214c86cd9b"
          },
          {
            "reference": "PractitionerRole/2ea78f42-8c99-4c23-8331-8ddd4c28eaa1"
          },
          {
            "reference": "Practitioner/a7434be8-203d-495e-9af0-7252bf4f6510"
          },
          {
            "reference": "PractitionerRole/c7394b79-3052-4c55-b09e-92122dc3eae0"
          },
          {
            "reference": "Organization/b3a6a339-90fc-449d-9dd1-66de49ab8108"
          }
        ],
        "activity": {
          "text": "Synthetic Example Data Generation"
        },
        "policy": [
          "https://synderai.net/synderai-synthetic-data-policy"
        ],
        "agent": [
          {
            "type": {
              "text": "author"
            },
            "who": {
              "reference": "Device/8f5a31e4-c3c1-4f52-a4b6-6cda52fb8216"
            }
          }
        ],
        "reason": [
          {
            "text": "Interoperability Testing and Training (non-clinical use)"
          }
        ],
        "text": {
          "status": "generated",
          "div": "<div xmlns=\"http://www.w3.org/1999/xhtml\">Provenance for SYNDERAI Synthetic Example Data Resource</div>"
        },
        "recorded": "2022-10-21T18:05:46Z"
      }
    },
    {
      "fullUrl": "urn:uuid:2ea78f42-8c99-4c23-8331-8ddd4c28eaa1",
      "resource": {
        "resourceType": "PractitionerRole",
        "id": "2ea78f42-8c99-4c23-8331-8ddd4c28eaa1",
        "meta": {
          "profile": [
            "http://hl7.eu/fhir/base/StructureDefinition/practitionerRole-eu"
          ]
        },
        "text": {
          "status": "generated",
          "div": "<div xmlns=\"http://www.w3.org/1999/xhtml\">Laboratory Role Id: 2ea78f42-8c99-4c23-8331-8ddd4c28eaa1</div>"
        },
        "practitioner": {
          "reference": "urn:uuid:a7434be8-203d-495e-9af0-7252bf4f6510"
        }
      }
    },
    {
      "fullUrl": "urn:uuid:a7434be8-203d-495e-9af0-7252bf4f6510",
      "resource": {
        "resourceType": "Practitioner",
        "id": "a7434be8-203d-495e-9af0-7252bf4f6510",
        "meta": {
          "profile": [
            "http://hl7.eu/fhir/base/StructureDefinition/practitioner-eu"
          ]
        },
        "identifier": [
          {
            "assigner": {
              "display": "HL7 Europe"
            },
            "system": "urn:oid:2.16.840.1.113883.2.51.999",
            "value": "c40c6b18-afa4-46cc-8a97-316825b0f923"
          }
        ],
        "name": [
          {
            "prefix": [
              "dr"
            ],
            "given": [
              "Ex"
            ],
            "family": "Ample"
          }
        ],
        "address": [
          {
            "line": [
              "Laboratoire Central Européenne",
              "Boulevard du Jardin Botanique 32"
            ],
            "postalCode": "1000",
            "city": "Brussels",
            "country": "Belgium"
          }
        ],
        "text": {
          "status": "generated",
          "div": "<div xmlns=\"http://www.w3.org/1999/xhtml\">Laboratory: Laboratoire Central Européenne, 1000 Brussels, Belgium</div>"
        }
      }
    }
  ],
  "type": "document",
  "timestamp": "2022-10-21T18:05:46Z"
}
