{
  "resourceType": "Bundle",
  "id": "f0cc1fce-ec99-4e38-a991-fe851e8f63e9",
  "meta": {
    "profile": [
      "http://hl7.eu/fhir/laboratory/StructureDefinition/Bundle-eu-lab"
    ]
  },
  "identifier": {
    "assigner": {
      "display": "HL7 Europe"
    },
    "system": "urn:oid:2.16.840.1.113883.2.51.999",
    "value": "a5fb66de-07d8-4480-9d0e-dcba6b533a71"
  },
  "entry": [
    {
      "fullUrl": "urn:uuid:2d667b29-42cd-47d9-a9ef-6cb2537c4599",
      "resource": {
        "resourceType": "Composition",
        "id": "2d667b29-42cd-47d9-a9ef-6cb2537c4599",
        "meta": {
          "profile": [
            "http://hl7.eu/fhir/laboratory/StructureDefinition/Composition-eu-lab"
          ]
        },
        "identifier": {
          "assigner": {
            "display": "HL7 Europe"
          },
          "system": "urn:oid:2.16.840.1.113883.2.51.999",
          "value": "4adc1372-5d7f-4bf8-b640-79bced46f87b"
        },
        "author": [
          {
            "reference": "urn:uuid:f87a4e4d-73bc-4198-b756-8350141adda3"
          }
        ],
        "category": [
          {
            "coding": [
              {
                "code": "26436-6",
                "system": "http://loinc.org",
                "display": "Laboratory studies (set)"
              }
            ]
          }
        ],
        "type": {
          "coding": [
            {
              "code": "11502-2",
              "system": "http://loinc.org",
              "display": "Laboratory report"
            }
          ],
          "text": "Laboratory Report"
        },
        "section": [
          {
            "code": {
              "coding": [
                {
                  "code": "26436-6",
                  "system": "http://loinc.org",
                  "display": "Laboratory studies (set)"
                }
              ],
              "text": "Laboratory studies"
            },
            "section": [
              {
                "code": {
                  "coding": [
                    {
                      "code": "$18719-5",
                      "system": "http://loinc.org",
                      "display": "Chemistry studies (set)"
                    }
                  ],
                  "text": "Chemistry"
                },
                "entry": [
                  {
                    "reference": "urn:uuid:7efe5a88-4b2f-4acc-a1d5-342f6aca4fd1"
                  },
                  {
                    "reference": "urn:uuid:c21e62da-4ad8-40fe-a589-5c2cebd5a351"
                  },
                  {
                    "reference": "urn:uuid:9c2a7cd8-81fa-4fac-ba0f-60fc876dec91"
                  },
                  {
                    "reference": "urn:uuid:27c02730-a076-4dfb-9ac1-89b98a8942e4"
                  },
                  {
                    "reference": "urn:uuid:8358d475-dd8b-4680-b1cd-ea436f05a7e4"
                  },
                  {
                    "reference": "urn:uuid:2a773585-880b-4fc0-a24e-178141032b0d"
                  },
                  {
                    "reference": "urn:uuid:0a4ddaed-fb69-4d21-a2bb-fd605d1baef9"
                  },
                  {
                    "reference": "urn:uuid:070c7516-dfca-4509-ae3b-a59c8f4ca146"
                  },
                  {
                    "reference": "urn:uuid:f9c634e6-b4df-4fc2-b741-f5463a0fda5f"
                  }
                ],
                "text": {
                  "status": "generated",
                  "div": "<div xmlns=\"http://www.w3.org/1999/xhtml\"><h3>Chemistry</h3><table class=\"hl7__eu__lab__report\"><thead><tr><th>Test</th><th>11-MAR-2021</th><th>Reference&#xA0;Range</th><th>Unit</th></tr></thead><tbody><tr><td>Glucose [Mass/volume] in Serum or Plasma</td><td>78.5</td><td>70 - 140</td><td>mg/dL</td></tr><tr><td>Urea nitrogen [Mass/volume] in Serum or Plasma</td><td>18.5</td><td>7 - 50</td><td>mg/dL</td></tr><tr><td>Creatinine [Mass/volume] in Serum or Plasma</td><td><strong>1.9 H</strong></td><td>0.6 - 1.1</td><td>mg/dL</td></tr><tr><td>Calcium [Mass/volume] in Serum or Plasma</td><td>8.5</td><td>8.5 - 10.5</td><td>mg/dL</td></tr><tr><td>Sodium [Moles/volume] in Serum or Plasma</td><td>143.7</td><td>135 - 145</td><td>mmol/L</td></tr><tr><td>Potassium [Moles/volume] in Serum or Plasma</td><td>5.1</td><td>3.5 - 5.1</td><td>mmol/L</td></tr><tr><td>Chloride [Moles/volume] in Serum or Plasma</td><td>106.7</td><td>98 - 108</td><td>mmol/L</td></tr><tr><td>Carbon dioxide, total [Moles/volume] in Serum or Plasma</td><td><strong>21.9 L</strong></td><td>22 - 32</td><td>mmol/L</td></tr><tr><td>Ketones [Presence] in Urine by Test strip</td><td>Urine ketone test = +</td><td></td><td></td></tr></tbody></table></div>"
                },
                "title": "Chemistry"
              },
              {
                "code": {
                  "coding": [
                    {
                      "code": "$18729-4",
                      "system": "http://loinc.org",
                      "display": "Urinalysis studies (set)"
                    }
                  ],
                  "text": "Urinalysis"
                },
                "entry": [
                  {
                    "reference": "urn:uuid:6323b6b7-ac54-44f7-a408-04e52ab70b44"
                  },
                  {
                    "reference": "urn:uuid:f9d3aeba-5bef-4fa4-b10e-697cda81732b"
                  },
                  {
                    "reference": "urn:uuid:55037f41-885f-4a6b-8e89-f532f6cb503c"
                  },
                  {
                    "reference": "urn:uuid:d51d0b4e-e049-47b1-bf1b-636c15ce71e1"
                  },
                  {
                    "reference": "urn:uuid:9881b23f-ee22-40b8-8dc2-955aa20dacb7"
                  },
                  {
                    "reference": "urn:uuid:ad789856-4039-4356-904b-e6a938831f32"
                  },
                  {
                    "reference": "urn:uuid:853b0e7c-1eb0-472e-83fd-7f0c063ad410"
                  },
                  {
                    "reference": "urn:uuid:db328334-dde5-4ffd-a75a-71cc0066f888"
                  },
                  {
                    "reference": "urn:uuid:f1835cae-68ea-4e20-a225-dc990b7f4853"
                  },
                  {
                    "reference": "urn:uuid:4edd982c-1bb0-4dcf-9216-97dbcde273e0"
                  },
                  {
                    "reference": "urn:uuid:f7a64bce-c48f-40cc-854f-b759e3f3d286"
                  },
                  {
                    "reference": "urn:uuid:7bedf516-6b74-48a7-a4e0-15df92207980"
                  }
                ],
                "text": {
                  "status": "generated",
                  "div": "<div xmlns=\"http://www.w3.org/1999/xhtml\"><h3>Urinalysis</h3><table class=\"hl7__eu__lab__report\"><thead><tr><th>Test</th><th>11-MAR-2021</th><th>Reference&#xA0;Range</th><th>Unit</th></tr></thead><tbody><tr><td>Glucose [Mass/volume] in Urine by Test strip</td><td><strong>0.6 L</strong></td><td>0.8 - 0</td><td>mg/dL</td></tr><tr><td>Glucose [Presence] in Urine by Test strip</td><td>++</td><td></td><td></td></tr><tr><td>Bilirubin.total [Mass/volume] in Urine by Test strip</td><td><strong>1.2 H</strong></td><td>0 - 1</td><td>mg/dL</td></tr><tr><td>Bilirubin.total [Presence] in Urine by Test strip</td><td>Finding of bilirubin in urine</td><td></td><td></td></tr><tr><td>Ketones [Mass/volume] in Urine by Test strip</td><td>7.9</td><td>0 - 20</td><td>mg/dL</td></tr><tr><td>Specific gravity of Urine by Test strip</td><td><strong>1.0 L</strong></td><td>1.01 - 1.03</td><td>{nominal}</td></tr><tr><td>pH of Urine by Test strip</td><td>6.5</td><td>4.6 - 7</td><td>pH</td></tr><tr><td>Protein [Mass/volume] in Urine by Test strip</td><td><strong>303.5 H</strong></td><td>0 - 15</td><td>mg/dL</td></tr><tr><td>Protein [Presence] in Urine by Test strip</td><td>Urine protein test = ++</td><td></td><td></td></tr><tr><td>Nitrite [Presence] in Urine by Test strip</td><td>Urine nitrite negative</td><td></td><td></td></tr><tr><td>Hemoglobin [Presence] in Urine by Test strip</td><td>Urine blood test = negative</td><td></td><td></td></tr><tr><td>Leukocyte esterase [Presence] in Urine by Test strip</td><td>Urine leukocyte test negative</td><td></td><td></td></tr></tbody></table></div>"
                },
                "title": "Urinalysis"
              },
              {
                "code": {
                  "coding": [
                    {
                      "code": "$LP7846-1",
                      "system": "http://loinc.org",
                      "display": "Specimen information"
                    }
                  ],
                  "text": "Specimen information"
                },
                "entry": [
                  {
                    "reference": "urn:uuid:bfb6bba1-e57d-4dd4-adb4-58559eba4c5c"
                  },
                  {
                    "reference": "urn:uuid:d378c443-a893-4345-b493-942de4948c8f"
                  },
                  {
                    "reference": "urn:uuid:38dd08a9-ec65-44cb-900f-852bfde705a1"
                  },
                  {
                    "reference": "urn:uuid:1a17da26-272e-4edf-8ada-62c53d4e8cef"
                  }
                ],
                "text": {
                  "status": "generated",
                  "div": "<div xmlns=\"http://www.w3.org/1999/xhtml\"><h3>Specimen information</h3><table class=\"hl7__eu__lab__report\"><thead><tr><th>Test</th><th>11-MAR-2021</th><th>Specimen</th><th></th></tr></thead><tbody><tr><td>Appearance of Urine</td><td>Cloudy urine</td><td>Urine</td><td></td></tr><tr><td>Odor of Urine</td><td>Urine smell ammoniacal</td><td>Urine</td><td></td></tr><tr><td>Clarity of Urine</td><td>Translucent</td><td>Urine</td><td></td></tr><tr><td>Color of Urine</td><td>Brown color</td><td>Urine</td><td></td></tr></tbody></table></div>"
                },
                "title": "Specimen information"
              }
            ],
            "title": "Laboratory Report"
          },
          {
            "text": {
              "status": "generated",
              "div": "<div xmlns=\"http://www.w3.org/1999/xhtml\"><h3>Annotation</h3><table class=\"hl7__eu__lab__report\"><tr><th>Conclusion and Recommendations based on this report and previous findings known to us</th></tr><tr><td>The patient shows elevated serum creatinine, mild metabolic acidosis (low CO₂), and significant proteinuria with bilirubinuria, glucosuria, and abnormal urine appearance (cloudy, brown, ammoniacal). These findings suggest impaired renal function, possibly chronic kidney disease, with evidence of tubular dysfunction and possible hepatic involvement. No signs of urinary tract infection are present. Further nephrological and hepatological evaluation is recommended.</td></tr></table></div>"
            },
            "code": {
              "coding": [
                {
                  "system": "http://loinc.org",
                  "code": "48767-8",
                  "display": "Annotation comment"
                }
              ]
            },
            "title": "Annotation comment"
          }
        ],
        "status": "final",
        "subject": {
          "reference": "urn:uuid:66efce77-d578-4dd3-824d-f795797ab097",
          "display": "Marthe Gallet"
        },
        "date": "2021-03-11T20:05:43Z",
        "title": "Laboratory Report",
        "confidentiality": "N"
      }
    },
    {
      "fullUrl": "urn:uuid:79132b1e-4ab3-4dcd-98a6-0826a4432e8d",
      "resource": {
        "resourceType": "DiagnosticReport",
        "id": "79132b1e-4ab3-4dcd-98a6-0826a4432e8d",
        "meta": {
          "profile": [
            "http://hl7.eu/fhir/laboratory/StructureDefinition/DiagnosticReport-eu-lab"
          ]
        },
        "identifier": [
          {
            "assigner": {
              "display": "HL7 Europe"
            },
            "system": "urn:oid:2.16.840.1.113883.2.51.999",
            "value": "e1aae41b-18ed-4817-bfd4-62757ca50a38"
          }
        ],
        "extension": [
          {
            "url": "http://hl7.org/fhir/5.0/StructureDefinition/extension-DiagnosticReport.composition",
            "valueReference": {
              "reference": "urn:uuid:4adc1372-5d7f-4bf8-b640-79bced46f87b"
            }
          }
        ],
        "category": [
          {
            "coding": [
              {
                "code": "26436-6",
                "system": "http://loinc.org",
                "display": "Laboratory studies (set)"
              }
            ]
          }
        ],
        "specimen": [
          {
            "reference": "urn:uuid:82693409-5f8a-4d36-80ba-0a31d58caea6"
          },
          {
            "reference": "urn:uuid:01f0a907-0f4c-4e26-8be6-aca2f716994f"
          }
        ],
        "result": [
          {
            "reference": "urn:uuid:7efe5a88-4b2f-4acc-a1d5-342f6aca4fd1"
          },
          {
            "reference": "urn:uuid:c21e62da-4ad8-40fe-a589-5c2cebd5a351"
          },
          {
            "reference": "urn:uuid:9c2a7cd8-81fa-4fac-ba0f-60fc876dec91"
          },
          {
            "reference": "urn:uuid:27c02730-a076-4dfb-9ac1-89b98a8942e4"
          },
          {
            "reference": "urn:uuid:8358d475-dd8b-4680-b1cd-ea436f05a7e4"
          },
          {
            "reference": "urn:uuid:2a773585-880b-4fc0-a24e-178141032b0d"
          },
          {
            "reference": "urn:uuid:0a4ddaed-fb69-4d21-a2bb-fd605d1baef9"
          },
          {
            "reference": "urn:uuid:070c7516-dfca-4509-ae3b-a59c8f4ca146"
          },
          {
            "reference": "urn:uuid:bfb6bba1-e57d-4dd4-adb4-58559eba4c5c"
          },
          {
            "reference": "urn:uuid:d378c443-a893-4345-b493-942de4948c8f"
          },
          {
            "reference": "urn:uuid:38dd08a9-ec65-44cb-900f-852bfde705a1"
          },
          {
            "reference": "urn:uuid:1a17da26-272e-4edf-8ada-62c53d4e8cef"
          },
          {
            "reference": "urn:uuid:6323b6b7-ac54-44f7-a408-04e52ab70b44"
          },
          {
            "reference": "urn:uuid:f9d3aeba-5bef-4fa4-b10e-697cda81732b"
          },
          {
            "reference": "urn:uuid:55037f41-885f-4a6b-8e89-f532f6cb503c"
          },
          {
            "reference": "urn:uuid:d51d0b4e-e049-47b1-bf1b-636c15ce71e1"
          },
          {
            "reference": "urn:uuid:9881b23f-ee22-40b8-8dc2-955aa20dacb7"
          },
          {
            "reference": "urn:uuid:f9c634e6-b4df-4fc2-b741-f5463a0fda5f"
          },
          {
            "reference": "urn:uuid:ad789856-4039-4356-904b-e6a938831f32"
          },
          {
            "reference": "urn:uuid:853b0e7c-1eb0-472e-83fd-7f0c063ad410"
          },
          {
            "reference": "urn:uuid:db328334-dde5-4ffd-a75a-71cc0066f888"
          },
          {
            "reference": "urn:uuid:f1835cae-68ea-4e20-a225-dc990b7f4853"
          },
          {
            "reference": "urn:uuid:4edd982c-1bb0-4dcf-9216-97dbcde273e0"
          },
          {
            "reference": "urn:uuid:f7a64bce-c48f-40cc-854f-b759e3f3d286"
          },
          {
            "reference": "urn:uuid:7bedf516-6b74-48a7-a4e0-15df92207980"
          }
        ],
        "status": "registered",
        "code": {
          "coding": [
            {
              "code": "11502-2",
              "system": "http://loinc.org",
              "display": "Laboratory report"
            }
          ]
        },
        "subject": {
          "reference": "urn:uuid:66efce77-d578-4dd3-824d-f795797ab097",
          "display": "Marthe Gallet"
        }
      }
    },
    {
      "fullUrl": "urn:uuid:66efce77-d578-4dd3-824d-f795797ab097",
      "resource": {
        "resourceType": "Patient",
        "id": "66efce77-d578-4dd3-824d-f795797ab097",
        "meta": {
          "security": [
            {
              "system": "http://terminology.hl7.org/CodeSystem/v3-ActReason",
              "code": "HTEST"
            },
            {
              "system": "http://terminology.hl7.org/CodeSystem/v3-ActReason",
              "code": "TRAIN"
            }
          ],
          "tag": [
            {
              "system": "https://synderai.net/fhir/CodeSystem/tags",
              "code": "synthetic",
              "display": "SYNDERAI Synthetic data"
            }
          ],
          "profile": [
            "http://hl7.eu/fhir/base/StructureDefinition/patient-eu-core"
          ]
        },
        "identifier": [
          {
            "type": {
              "coding": [
                {
                  "code": "PT",
                  "system": "http://terminology.hl7.org/CodeSystem/v2-0203"
                }
              ]
            },
            "system": "http://ec.europa.eu/identifier/eci",
            "value": "9444-947487-6"
          },
          {
            "type": {
              "coding": [
                {
                  "code": "MR",
                  "system": "http://terminology.hl7.org/CodeSystem/v2-0203"
                }
              ]
            },
            "system": "http://local.setting.eu/identifier",
            "value": "854228d5-a476-2d9c-a1d7-c3202375a617"
          }
        ],
        "name": [
          {
            "family": "Gallet"
          },
          {
            "given": [
              "Marthe"
            ]
          },
          {
            "text": "Marthe Gallet"
          }
        ],
        "address": [
          {
            "line": [
              "3, rue Emmanuel Goncalves"
            ],
            "use": "home",
            "type": "physical",
            "postalCode": "49490",
            "city": "Briand",
            "country": "France"
          }
        ],
        "telecom": [
          {
            "system": "phone",
            "value": "+33 1 70 99 82 74"
          }
        ],
        "extension": [
          {
            "url": "http://hl7.org/fhir/StructureDefinition/patient-nationality",
            "valueCodeableConcept": {
              "coding": [
                {
                  "code": "FR",
                  "system": "http://hl7.org/fhir/ValueSet/country"
                }
              ]
            }
          }
        ],
        "text": {
          "status": "generated",
          "div": "<div xmlns=\"http://www.w3.org/1999/xhtml\"><table class=\"hl7__ips\"><tr><td>Marthe Gallet</td><td>female</td><td>29-Oct-1950</td></tr></table></div>"
        },
        "gender": "female",
        "birthDate": "1950-10-29"
      }
    },
    {
      "fullUrl": "urn:uuid:b8c1967d-2636-4fe4-8172-9e51c5261ea0",
      "resource": {
        "resourceType": "ServiceRequest",
        "id": "b8c1967d-2636-4fe4-8172-9e51c5261ea0",
        "meta": {
          "profile": [
            "http://hl7.eu/fhir/laboratory/StructureDefinition/ServiceRequest-eu-lab"
          ]
        },
        "identifier": [
          {
            "system": "http://example.org",
            "value": "847ef0d8-52fa-4711-a8d7-ac437af05701"
          }
        ],
        "specimen": [
          {
            "reference": "urn:uuid:82693409-5f8a-4d36-80ba-0a31d58caea6"
          },
          {
            "reference": "urn:uuid:01f0a907-0f4c-4e26-8be6-aca2f716994f"
          }
        ],
        "reasonCode": [
          {
            "coding": [
              {
                "code": "431856006",
                "system": "http://snomed.info/sct",
                "display": "Chronic kidney disease stage 2"
              }
            ]
          },
          {
            "coding": [
              {
                "code": "90781000119102",
                "system": "http://snomed.info/sct",
                "display": "Microalbuminuria due to type 2 diabetes mellitus"
              }
            ]
          },
          {
            "coding": [
              {
                "code": "127013003",
                "system": "http://snomed.info/sct",
                "display": "Disorder of kidney due to diabetes mellitus"
              }
            ]
          },
          {
            "coding": [
              {
                "code": "431855005",
                "system": "http://snomed.info/sct",
                "display": "Chronic kidney disease stage 1"
              }
            ]
          },
          {
            "coding": [
              {
                "code": "55822004",
                "system": "http://snomed.info/sct",
                "display": "Hyperlipidemia"
              }
            ]
          },
          {
            "coding": [
              {
                "code": "59621000",
                "system": "http://snomed.info/sct",
                "display": "Essential hypertension"
              }
            ]
          }
        ],
        "status": "active",
        "intent": "order",
        "code": {
          "coding": [
            {
              "code": "108252007",
              "system": "http://snomed.info/sct",
              "display": "Laboratory procedure"
            }
          ]
        },
        "subject": {
          "reference": "urn:uuid:66efce77-d578-4dd3-824d-f795797ab097",
          "display": "Marthe Gallet"
        },
        "requester": {
          "reference": "urn:uuid:06af3ea6-aa1c-4dee-aeb8-2b4fc1bc73f4"
        }
      }
    },
    {
      "fullUrl": "urn:uuid:06af3ea6-aa1c-4dee-aeb8-2b4fc1bc73f4",
      "resource": {
        "resourceType": "PractitionerRole",
        "id": "06af3ea6-aa1c-4dee-aeb8-2b4fc1bc73f4",
        "meta": {
          "profile": [
            "http://hl7.eu/fhir/base/StructureDefinition/practitionerRole-eu"
          ]
        },
        "text": {
          "status": "generated",
          "div": "<div xmlns=\"http://www.w3.org/1999/xhtml\">Provider Role Id: 06af3ea6-aa1c-4dee-aeb8-2b4fc1bc73f4</div>"
        },
        "organization": {
          "reference": "urn:uuid:e0116591-e3ea-4061-9a60-e05c7fe98f98"
        }
      }
    },
    {
      "fullUrl": "urn:uuid:e0116591-e3ea-4061-9a60-e05c7fe98f98",
      "resource": {
        "resourceType": "Organization",
        "id": "e0116591-e3ea-4061-9a60-e05c7fe98f98",
        "meta": {
          "profile": [
            "http://hl7.eu/fhir/base/StructureDefinition/organization-eu"
          ]
        },
        "identifier": [
          {
            "assigner": {
              "display": "HL7 Europe"
            },
            "system": "urn:oid:2.16.840.1.113883.2.51.999",
            "value": "9aa3a908-2ef4-44c6-bc3e-aefb714c02b7"
          }
        ],
        "address": [
          {
            "line": [
              "Rue Larrey nan"
            ],
            "city": "Angers",
            "postalCode": "49100",
            "country": "France"
          }
        ],
        "text": {
          "status": "generated",
          "div": "<div xmlns=\"http://www.w3.org/1999/xhtml\">Provider Organization: CHU d&#039;Angers</div>"
        },
        "name": "CHU d&#039;Angers"
      }
    },
    {
      "fullUrl": "urn:uuid:82693409-5f8a-4d36-80ba-0a31d58caea6",
      "resource": {
        "resourceType": "Specimen",
        "id": "82693409-5f8a-4d36-80ba-0a31d58caea6",
        "meta": {
          "profile": [
            "http://hl7.eu/fhir/laboratory/StructureDefinition/Specimen-eu-lab"
          ]
        },
        "collection": {
          "collectedDateTime": "2021-03-11"
        },
        "text": {
          "status": "generated",
          "div": "<div xmlns=\"http://www.w3.org/1999/xhtml\"><table class=\"hl7__eu__lab__report\"><tr><th>Specimen</th><th>Collection Date</th></tr><tr><td>Acellular blood (serum or plasma) specimen</td><td><span class=\"nb\">11-Mar-2021</span></td></tr></table></div>"
        },
        "type": {
          "coding": [
            {
              "code": "122592007",
              "system": "http://snomed.info/sct",
              "display": "Acellular blood (serum or plasma) specimen"
            }
          ]
        }
      }
    },
    {
      "fullUrl": "urn:uuid:01f0a907-0f4c-4e26-8be6-aca2f716994f",
      "resource": {
        "resourceType": "Specimen",
        "id": "01f0a907-0f4c-4e26-8be6-aca2f716994f",
        "meta": {
          "profile": [
            "http://hl7.eu/fhir/laboratory/StructureDefinition/Specimen-eu-lab"
          ]
        },
        "collection": {
          "collectedDateTime": "2021-03-11"
        },
        "text": {
          "status": "generated",
          "div": "<div xmlns=\"http://www.w3.org/1999/xhtml\"><table class=\"hl7__eu__lab__report\"><tr><th>Specimen</th><th>Collection Date</th></tr><tr><td>Urine specimen</td><td><span class=\"nb\">11-Mar-2021</span></td></tr></table></div>"
        },
        "type": {
          "coding": [
            {
              "code": "122575003",
              "system": "http://snomed.info/sct",
              "display": "Urine specimen"
            }
          ]
        }
      }
    },
    {
      "fullUrl": "urn:uuid:7efe5a88-4b2f-4acc-a1d5-342f6aca4fd1",
      "resource": {
        "resourceType": "Observation",
        "id": "7efe5a88-4b2f-4acc-a1d5-342f6aca4fd1",
        "meta": {
          "profile": [
            "http://hl7.eu/fhir/laboratory/StructureDefinition/Observation-resultslab-eu-lab"
          ]
        },
        "performer": [
          {
            "display": "The Central European Lab"
          }
        ],
        "category": [
          {
            "coding": [
              {
                "system": "http://terminology.hl7.org/CodeSystem/observation-category",
                "code": "laboratory"
              }
            ]
          }
        ],
        "code": {
          "coding": [
            {
              "code": "2345-7",
              "system": "http://loinc.org",
              "display": "Glucose [Mass/volume] in Serum or Plasma"
            }
          ],
          "text": "Glucose [Mass/volume] in Serum or Plasma"
        },
        "valueQuantity": {
          "system": "http://unitsofmeasure.org",
          "value": 78.5,
          "unit": "mg/dL",
          "code": "mg/dL"
        },
        "referenceRange": [
          {
            "low": {
              "value": 70,
              "code": "mg/dL",
              "system": "http://unitsofmeasure.org"
            }
          },
          {
            "high": {
              "value": 140,
              "code": "mg/dL",
              "system": "http://unitsofmeasure.org"
            }
          }
        ],
        "text": {
          "status": "generated",
          "div": "<div xmlns=\"http://www.w3.org/1999/xhtml\"><table class=\"hl7__eu__lab__report\"><tr><th>Test</th><th>11-Mar-2021</th><th>Reference&#xA0;Range</th><th>Unit</th></tr><tr><td>Glucose [Mass/volume] in Serum or Plasma</td><td>78.5</td><td>70 - 140</td><td></td><td>mg/dL</td></tr></table></div>"
        },
        "status": "final",
        "subject": {
          "reference": "urn:uuid:66efce77-d578-4dd3-824d-f795797ab097",
          "display": "Marthe Gallet"
        },
        "effectiveDateTime": "2021-03-11T19:05:43Z",
        "specimen": {
          "reference": "urn:uuid:82693409-5f8a-4d36-80ba-0a31d58caea6"
        }
      }
    },
    {
      "fullUrl": "urn:uuid:c21e62da-4ad8-40fe-a589-5c2cebd5a351",
      "resource": {
        "resourceType": "Observation",
        "id": "c21e62da-4ad8-40fe-a589-5c2cebd5a351",
        "meta": {
          "profile": [
            "http://hl7.eu/fhir/laboratory/StructureDefinition/Observation-resultslab-eu-lab"
          ]
        },
        "performer": [
          {
            "display": "The Central European Lab"
          }
        ],
        "category": [
          {
            "coding": [
              {
                "system": "http://terminology.hl7.org/CodeSystem/observation-category",
                "code": "laboratory"
              }
            ]
          }
        ],
        "code": {
          "coding": [
            {
              "code": "3094-0",
              "system": "http://loinc.org",
              "display": "Urea nitrogen [Mass/volume] in Serum or Plasma"
            }
          ],
          "text": "Urea nitrogen [Mass/volume] in Serum or Plasma"
        },
        "valueQuantity": {
          "system": "http://unitsofmeasure.org",
          "value": 18.5,
          "unit": "mg/dL",
          "code": "mg/dL"
        },
        "referenceRange": [
          {
            "low": {
              "value": 7,
              "code": "mg/dL",
              "system": "http://unitsofmeasure.org"
            }
          },
          {
            "high": {
              "value": 50,
              "code": "mg/dL",
              "system": "http://unitsofmeasure.org"
            }
          }
        ],
        "text": {
          "status": "generated",
          "div": "<div xmlns=\"http://www.w3.org/1999/xhtml\"><table class=\"hl7__eu__lab__report\"><tr><th>Test</th><th>11-Mar-2021</th><th>Reference&#xA0;Range</th><th>Unit</th></tr><tr><td>Urea nitrogen [Mass/volume] in Serum or Plasma</td><td>18.5</td><td>7 - 50</td><td></td><td>mg/dL</td></tr></table></div>"
        },
        "status": "final",
        "subject": {
          "reference": "urn:uuid:66efce77-d578-4dd3-824d-f795797ab097",
          "display": "Marthe Gallet"
        },
        "effectiveDateTime": "2021-03-11T19:05:43Z",
        "specimen": {
          "reference": "urn:uuid:82693409-5f8a-4d36-80ba-0a31d58caea6"
        }
      }
    },
    {
      "fullUrl": "urn:uuid:9c2a7cd8-81fa-4fac-ba0f-60fc876dec91",
      "resource": {
        "resourceType": "Observation",
        "id": "9c2a7cd8-81fa-4fac-ba0f-60fc876dec91",
        "meta": {
          "profile": [
            "http://hl7.eu/fhir/laboratory/StructureDefinition/Observation-resultslab-eu-lab"
          ]
        },
        "performer": [
          {
            "display": "The Central European Lab"
          }
        ],
        "category": [
          {
            "coding": [
              {
                "system": "http://terminology.hl7.org/CodeSystem/observation-category",
                "code": "laboratory"
              }
            ]
          }
        ],
        "code": {
          "coding": [
            {
              "code": "2160-0",
              "system": "http://loinc.org",
              "display": "Creatinine [Mass/volume] in Serum or Plasma"
            }
          ],
          "text": "Creatinine [Mass/volume] in Serum or Plasma"
        },
        "valueQuantity": {
          "system": "http://unitsofmeasure.org",
          "value": 1.9,
          "unit": "mg/dL",
          "code": "mg/dL"
        },
        "referenceRange": [
          {
            "low": {
              "value": 0.6,
              "code": "mg/dL",
              "system": "http://unitsofmeasure.org"
            }
          },
          {
            "high": {
              "value": 1.1,
              "code": "mg/dL",
              "system": "http://unitsofmeasure.org"
            }
          }
        ],
        "interpretation": [
          {
            "coding": [
              {
                "code": "H",
                "system": "http://terminology.hl7.org/CodeSystem/v3-ObservationInterpretation",
                "display": "High"
              }
            ]
          }
        ],
        "text": {
          "status": "generated",
          "div": "<div xmlns=\"http://www.w3.org/1999/xhtml\"><table class=\"hl7__eu__lab__report\"><tr><th>Test</th><th>11-Mar-2021</th><th>Reference&#xA0;Range</th><th>Unit</th></tr><tr><td>Creatinine [Mass/volume] in Serum or Plasma</td><td>1.9</td><td>0.6 - 1.1</td><td>H</td><td>mg/dL</td></tr></table></div>"
        },
        "status": "final",
        "subject": {
          "reference": "urn:uuid:66efce77-d578-4dd3-824d-f795797ab097",
          "display": "Marthe Gallet"
        },
        "effectiveDateTime": "2021-03-11T19:05:43Z",
        "specimen": {
          "reference": "urn:uuid:82693409-5f8a-4d36-80ba-0a31d58caea6"
        }
      }
    },
    {
      "fullUrl": "urn:uuid:27c02730-a076-4dfb-9ac1-89b98a8942e4",
      "resource": {
        "resourceType": "Observation",
        "id": "27c02730-a076-4dfb-9ac1-89b98a8942e4",
        "meta": {
          "profile": [
            "http://hl7.eu/fhir/laboratory/StructureDefinition/Observation-resultslab-eu-lab"
          ]
        },
        "performer": [
          {
            "display": "The Central European Lab"
          }
        ],
        "category": [
          {
            "coding": [
              {
                "system": "http://terminology.hl7.org/CodeSystem/observation-category",
                "code": "laboratory"
              }
            ]
          }
        ],
        "code": {
          "coding": [
            {
              "code": "17861-6",
              "system": "http://loinc.org",
              "display": "Calcium [Mass/volume] in Serum or Plasma"
            }
          ],
          "text": "Calcium [Mass/volume] in Serum or Plasma"
        },
        "valueQuantity": {
          "system": "http://unitsofmeasure.org",
          "value": 8.5,
          "unit": "mg/dL",
          "code": "mg/dL"
        },
        "referenceRange": [
          {
            "low": {
              "value": 8.5,
              "code": "mg/dL",
              "system": "http://unitsofmeasure.org"
            }
          },
          {
            "high": {
              "value": 10.5,
              "code": "mg/dL",
              "system": "http://unitsofmeasure.org"
            }
          }
        ],
        "text": {
          "status": "generated",
          "div": "<div xmlns=\"http://www.w3.org/1999/xhtml\"><table class=\"hl7__eu__lab__report\"><tr><th>Test</th><th>11-Mar-2021</th><th>Reference&#xA0;Range</th><th>Unit</th></tr><tr><td>Calcium [Mass/volume] in Serum or Plasma</td><td>8.5</td><td>8.5 - 10.5</td><td></td><td>mg/dL</td></tr></table></div>"
        },
        "status": "final",
        "subject": {
          "reference": "urn:uuid:66efce77-d578-4dd3-824d-f795797ab097",
          "display": "Marthe Gallet"
        },
        "effectiveDateTime": "2021-03-11T19:05:43Z",
        "specimen": {
          "reference": "urn:uuid:82693409-5f8a-4d36-80ba-0a31d58caea6"
        }
      }
    },
    {
      "fullUrl": "urn:uuid:8358d475-dd8b-4680-b1cd-ea436f05a7e4",
      "resource": {
        "resourceType": "Observation",
        "id": "8358d475-dd8b-4680-b1cd-ea436f05a7e4",
        "meta": {
          "profile": [
            "http://hl7.eu/fhir/laboratory/StructureDefinition/Observation-resultslab-eu-lab"
          ]
        },
        "performer": [
          {
            "display": "The Central European Lab"
          }
        ],
        "category": [
          {
            "coding": [
              {
                "system": "http://terminology.hl7.org/CodeSystem/observation-category",
                "code": "laboratory"
              }
            ]
          }
        ],
        "code": {
          "coding": [
            {
              "code": "2951-2",
              "system": "http://loinc.org",
              "display": "Sodium [Moles/volume] in Serum or Plasma"
            }
          ],
          "text": "Sodium [Moles/volume] in Serum or Plasma"
        },
        "valueQuantity": {
          "system": "http://unitsofmeasure.org",
          "value": 143.7,
          "unit": "mmol/L",
          "code": "mmol/L"
        },
        "referenceRange": [
          {
            "low": {
              "value": 135,
              "code": "mmol/L",
              "system": "http://unitsofmeasure.org"
            }
          },
          {
            "high": {
              "value": 145,
              "code": "mmol/L",
              "system": "http://unitsofmeasure.org"
            }
          }
        ],
        "text": {
          "status": "generated",
          "div": "<div xmlns=\"http://www.w3.org/1999/xhtml\"><table class=\"hl7__eu__lab__report\"><tr><th>Test</th><th>11-Mar-2021</th><th>Reference&#xA0;Range</th><th>Unit</th></tr><tr><td>Sodium [Moles/volume] in Serum or Plasma</td><td>143.7</td><td>135 - 145</td><td></td><td>mmol/L</td></tr></table></div>"
        },
        "status": "final",
        "subject": {
          "reference": "urn:uuid:66efce77-d578-4dd3-824d-f795797ab097",
          "display": "Marthe Gallet"
        },
        "effectiveDateTime": "2021-03-11T19:05:43Z",
        "specimen": {
          "reference": "urn:uuid:82693409-5f8a-4d36-80ba-0a31d58caea6"
        }
      }
    },
    {
      "fullUrl": "urn:uuid:2a773585-880b-4fc0-a24e-178141032b0d",
      "resource": {
        "resourceType": "Observation",
        "id": "2a773585-880b-4fc0-a24e-178141032b0d",
        "meta": {
          "profile": [
            "http://hl7.eu/fhir/laboratory/StructureDefinition/Observation-resultslab-eu-lab"
          ]
        },
        "performer": [
          {
            "display": "The Central European Lab"
          }
        ],
        "category": [
          {
            "coding": [
              {
                "system": "http://terminology.hl7.org/CodeSystem/observation-category",
                "code": "laboratory"
              }
            ]
          }
        ],
        "code": {
          "coding": [
            {
              "code": "2823-3",
              "system": "http://loinc.org",
              "display": "Potassium [Moles/volume] in Serum or Plasma"
            }
          ],
          "text": "Potassium [Moles/volume] in Serum or Plasma"
        },
        "valueQuantity": {
          "system": "http://unitsofmeasure.org",
          "value": 5.1,
          "unit": "mmol/L",
          "code": "mmol/L"
        },
        "referenceRange": [
          {
            "low": {
              "value": 3.5,
              "code": "mmol/L",
              "system": "http://unitsofmeasure.org"
            }
          },
          {
            "high": {
              "value": 5.1,
              "code": "mmol/L",
              "system": "http://unitsofmeasure.org"
            }
          }
        ],
        "text": {
          "status": "generated",
          "div": "<div xmlns=\"http://www.w3.org/1999/xhtml\"><table class=\"hl7__eu__lab__report\"><tr><th>Test</th><th>11-Mar-2021</th><th>Reference&#xA0;Range</th><th>Unit</th></tr><tr><td>Potassium [Moles/volume] in Serum or Plasma</td><td>5.1</td><td>3.5 - 5.1</td><td></td><td>mmol/L</td></tr></table></div>"
        },
        "status": "final",
        "subject": {
          "reference": "urn:uuid:66efce77-d578-4dd3-824d-f795797ab097",
          "display": "Marthe Gallet"
        },
        "effectiveDateTime": "2021-03-11T19:05:43Z",
        "specimen": {
          "reference": "urn:uuid:82693409-5f8a-4d36-80ba-0a31d58caea6"
        }
      }
    },
    {
      "fullUrl": "urn:uuid:0a4ddaed-fb69-4d21-a2bb-fd605d1baef9",
      "resource": {
        "resourceType": "Observation",
        "id": "0a4ddaed-fb69-4d21-a2bb-fd605d1baef9",
        "meta": {
          "profile": [
            "http://hl7.eu/fhir/laboratory/StructureDefinition/Observation-resultslab-eu-lab"
          ]
        },
        "performer": [
          {
            "display": "The Central European Lab"
          }
        ],
        "category": [
          {
            "coding": [
              {
                "system": "http://terminology.hl7.org/CodeSystem/observation-category",
                "code": "laboratory"
              }
            ]
          }
        ],
        "code": {
          "coding": [
            {
              "code": "2075-0",
              "system": "http://loinc.org",
              "display": "Chloride [Moles/volume] in Serum or Plasma"
            }
          ],
          "text": "Chloride [Moles/volume] in Serum or Plasma"
        },
        "valueQuantity": {
          "system": "http://unitsofmeasure.org",
          "value": 106.7,
          "unit": "mmol/L",
          "code": "mmol/L"
        },
        "referenceRange": [
          {
            "low": {
              "value": 98,
              "code": "mmol/L",
              "system": "http://unitsofmeasure.org"
            }
          },
          {
            "high": {
              "value": 108,
              "code": "mmol/L",
              "system": "http://unitsofmeasure.org"
            }
          }
        ],
        "text": {
          "status": "generated",
          "div": "<div xmlns=\"http://www.w3.org/1999/xhtml\"><table class=\"hl7__eu__lab__report\"><tr><th>Test</th><th>11-Mar-2021</th><th>Reference&#xA0;Range</th><th>Unit</th></tr><tr><td>Chloride [Moles/volume] in Serum or Plasma</td><td>106.7</td><td>98 - 108</td><td></td><td>mmol/L</td></tr></table></div>"
        },
        "status": "final",
        "subject": {
          "reference": "urn:uuid:66efce77-d578-4dd3-824d-f795797ab097",
          "display": "Marthe Gallet"
        },
        "effectiveDateTime": "2021-03-11T19:05:43Z",
        "specimen": {
          "reference": "urn:uuid:82693409-5f8a-4d36-80ba-0a31d58caea6"
        }
      }
    },
    {
      "fullUrl": "urn:uuid:070c7516-dfca-4509-ae3b-a59c8f4ca146",
      "resource": {
        "resourceType": "Observation",
        "id": "070c7516-dfca-4509-ae3b-a59c8f4ca146",
        "meta": {
          "profile": [
            "http://hl7.eu/fhir/laboratory/StructureDefinition/Observation-resultslab-eu-lab"
          ]
        },
        "performer": [
          {
            "display": "The Central European Lab"
          }
        ],
        "category": [
          {
            "coding": [
              {
                "system": "http://terminology.hl7.org/CodeSystem/observation-category",
                "code": "laboratory"
              }
            ]
          }
        ],
        "code": {
          "coding": [
            {
              "code": "2028-9",
              "system": "http://loinc.org",
              "display": "Carbon dioxide, total [Moles/volume] in Serum or Plasma"
            }
          ],
          "text": "Carbon dioxide, total [Moles/volume] in Serum or Plasma"
        },
        "valueQuantity": {
          "system": "http://unitsofmeasure.org",
          "value": 21.9,
          "unit": "mmol/L",
          "code": "mmol/L"
        },
        "referenceRange": [
          {
            "low": {
              "value": 22,
              "code": "mmol/L",
              "system": "http://unitsofmeasure.org"
            }
          },
          {
            "high": {
              "value": 32,
              "code": "mmol/L",
              "system": "http://unitsofmeasure.org"
            }
          }
        ],
        "interpretation": [
          {
            "coding": [
              {
                "code": "L",
                "system": "http://terminology.hl7.org/CodeSystem/v3-ObservationInterpretation",
                "display": "Low"
              }
            ]
          }
        ],
        "text": {
          "status": "generated",
          "div": "<div xmlns=\"http://www.w3.org/1999/xhtml\"><table class=\"hl7__eu__lab__report\"><tr><th>Test</th><th>11-Mar-2021</th><th>Reference&#xA0;Range</th><th>Unit</th></tr><tr><td>Carbon dioxide, total [Moles/volume] in Serum or Plasma</td><td>21.9</td><td>22 - 32</td><td>L</td><td>mmol/L</td></tr></table></div>"
        },
        "status": "final",
        "subject": {
          "reference": "urn:uuid:66efce77-d578-4dd3-824d-f795797ab097",
          "display": "Marthe Gallet"
        },
        "effectiveDateTime": "2021-03-11T19:05:43Z",
        "specimen": {
          "reference": "urn:uuid:82693409-5f8a-4d36-80ba-0a31d58caea6"
        }
      }
    },
    {
      "fullUrl": "urn:uuid:bfb6bba1-e57d-4dd4-adb4-58559eba4c5c",
      "resource": {
        "resourceType": "Observation",
        "id": "bfb6bba1-e57d-4dd4-adb4-58559eba4c5c",
        "meta": {
          "profile": [
            "http://hl7.eu/fhir/laboratory/StructureDefinition/Observation-resultslab-eu-lab"
          ]
        },
        "performer": [
          {
            "display": "The Central European Lab"
          }
        ],
        "category": [
          {
            "coding": [
              {
                "system": "http://terminology.hl7.org/CodeSystem/observation-category",
                "code": "laboratory"
              }
            ]
          }
        ],
        "code": {
          "coding": [
            {
              "code": "5767-9",
              "system": "http://loinc.org",
              "display": "Appearance of Urine"
            }
          ],
          "text": "Appearance of Urine"
        },
        "text": {
          "status": "generated",
          "div": "<div xmlns=\"http://www.w3.org/1999/xhtml\"><table class=\"hl7__eu__lab__report\"><tr><th>Test</th><th>11-Mar-2021</th><th>Reference&#xA0;Range</th><th>Unit</th></tr><tr><td>Appearance of Urine</td></tr></table></div>"
        },
        "status": "final",
        "subject": {
          "reference": "urn:uuid:66efce77-d578-4dd3-824d-f795797ab097",
          "display": "Marthe Gallet"
        },
        "effectiveDateTime": "2021-03-11T19:05:43Z",
        "specimen": {
          "reference": "urn:uuid:01f0a907-0f4c-4e26-8be6-aca2f716994f"
        }
      }
    },
    {
      "fullUrl": "urn:uuid:d378c443-a893-4345-b493-942de4948c8f",
      "resource": {
        "resourceType": "Observation",
        "id": "d378c443-a893-4345-b493-942de4948c8f",
        "meta": {
          "profile": [
            "http://hl7.eu/fhir/laboratory/StructureDefinition/Observation-resultslab-eu-lab"
          ]
        },
        "performer": [
          {
            "display": "The Central European Lab"
          }
        ],
        "category": [
          {
            "coding": [
              {
                "system": "http://terminology.hl7.org/CodeSystem/observation-category",
                "code": "laboratory"
              }
            ]
          }
        ],
        "code": {
          "coding": [
            {
              "code": "34533-0",
              "system": "http://loinc.org",
              "display": "Odor of Urine"
            }
          ],
          "text": "Odor of Urine"
        },
        "text": {
          "status": "generated",
          "div": "<div xmlns=\"http://www.w3.org/1999/xhtml\"><table class=\"hl7__eu__lab__report\"><tr><th>Test</th><th>11-Mar-2021</th><th>Reference&#xA0;Range</th><th>Unit</th></tr><tr><td>Odor of Urine</td></tr></table></div>"
        },
        "status": "final",
        "subject": {
          "reference": "urn:uuid:66efce77-d578-4dd3-824d-f795797ab097",
          "display": "Marthe Gallet"
        },
        "effectiveDateTime": "2021-03-11T19:05:43Z",
        "specimen": {
          "reference": "urn:uuid:01f0a907-0f4c-4e26-8be6-aca2f716994f"
        }
      }
    },
    {
      "fullUrl": "urn:uuid:38dd08a9-ec65-44cb-900f-852bfde705a1",
      "resource": {
        "resourceType": "Observation",
        "id": "38dd08a9-ec65-44cb-900f-852bfde705a1",
        "meta": {
          "profile": [
            "http://hl7.eu/fhir/laboratory/StructureDefinition/Observation-resultslab-eu-lab"
          ]
        },
        "performer": [
          {
            "display": "The Central European Lab"
          }
        ],
        "category": [
          {
            "coding": [
              {
                "system": "http://terminology.hl7.org/CodeSystem/observation-category",
                "code": "laboratory"
              }
            ]
          }
        ],
        "code": {
          "coding": [
            {
              "code": "32167-9",
              "system": "http://loinc.org",
              "display": "Clarity of Urine"
            }
          ],
          "text": "Clarity of Urine"
        },
        "text": {
          "status": "generated",
          "div": "<div xmlns=\"http://www.w3.org/1999/xhtml\"><table class=\"hl7__eu__lab__report\"><tr><th>Test</th><th>11-Mar-2021</th><th>Reference&#xA0;Range</th><th>Unit</th></tr><tr><td>Clarity of Urine</td></tr></table></div>"
        },
        "status": "final",
        "subject": {
          "reference": "urn:uuid:66efce77-d578-4dd3-824d-f795797ab097",
          "display": "Marthe Gallet"
        },
        "effectiveDateTime": "2021-03-11T19:05:43Z",
        "specimen": {
          "reference": "urn:uuid:01f0a907-0f4c-4e26-8be6-aca2f716994f"
        }
      }
    },
    {
      "fullUrl": "urn:uuid:1a17da26-272e-4edf-8ada-62c53d4e8cef",
      "resource": {
        "resourceType": "Observation",
        "id": "1a17da26-272e-4edf-8ada-62c53d4e8cef",
        "meta": {
          "profile": [
            "http://hl7.eu/fhir/laboratory/StructureDefinition/Observation-resultslab-eu-lab"
          ]
        },
        "performer": [
          {
            "display": "The Central European Lab"
          }
        ],
        "category": [
          {
            "coding": [
              {
                "system": "http://terminology.hl7.org/CodeSystem/observation-category",
                "code": "laboratory"
              }
            ]
          }
        ],
        "code": {
          "coding": [
            {
              "code": "5778-6",
              "system": "http://loinc.org",
              "display": "Color of Urine"
            }
          ],
          "text": "Color of Urine"
        },
        "text": {
          "status": "generated",
          "div": "<div xmlns=\"http://www.w3.org/1999/xhtml\"><table class=\"hl7__eu__lab__report\"><tr><th>Test</th><th>11-Mar-2021</th><th>Reference&#xA0;Range</th><th>Unit</th></tr><tr><td>Color of Urine</td></tr></table></div>"
        },
        "status": "final",
        "subject": {
          "reference": "urn:uuid:66efce77-d578-4dd3-824d-f795797ab097",
          "display": "Marthe Gallet"
        },
        "effectiveDateTime": "2021-03-11T19:05:43Z",
        "specimen": {
          "reference": "urn:uuid:01f0a907-0f4c-4e26-8be6-aca2f716994f"
        }
      }
    },
    {
      "fullUrl": "urn:uuid:6323b6b7-ac54-44f7-a408-04e52ab70b44",
      "resource": {
        "resourceType": "Observation",
        "id": "6323b6b7-ac54-44f7-a408-04e52ab70b44",
        "meta": {
          "profile": [
            "http://hl7.eu/fhir/laboratory/StructureDefinition/Observation-resultslab-eu-lab"
          ]
        },
        "performer": [
          {
            "display": "The Central European Lab"
          }
        ],
        "category": [
          {
            "coding": [
              {
                "system": "http://terminology.hl7.org/CodeSystem/observation-category",
                "code": "laboratory"
              }
            ]
          }
        ],
        "code": {
          "coding": [
            {
              "code": "5792-7",
              "system": "http://loinc.org",
              "display": "Glucose [Mass/volume] in Urine by Test strip"
            }
          ],
          "text": "Glucose [Mass/volume] in Urine by Test strip"
        },
        "valueQuantity": {
          "system": "http://unitsofmeasure.org",
          "value": 0.6,
          "unit": "mg/dL",
          "code": "mg/dL"
        },
        "referenceRange": [
          {
            "low": {
              "value": 0.8,
              "code": "mg/dL",
              "system": "http://unitsofmeasure.org"
            }
          },
          {
            "high": {
              "value": 0,
              "code": "mg/dL",
              "system": "http://unitsofmeasure.org"
            }
          }
        ],
        "interpretation": [
          {
            "coding": [
              {
                "code": "L",
                "system": "http://terminology.hl7.org/CodeSystem/v3-ObservationInterpretation",
                "display": "Low"
              }
            ]
          }
        ],
        "text": {
          "status": "generated",
          "div": "<div xmlns=\"http://www.w3.org/1999/xhtml\"><table class=\"hl7__eu__lab__report\"><tr><th>Test</th><th>11-Mar-2021</th><th>Reference&#xA0;Range</th><th>Unit</th></tr><tr><td>Glucose [Mass/volume] in Urine by Test strip</td><td>0.6</td><td>0.8 - 0</td><td>L</td><td>mg/dL</td></tr></table></div>"
        },
        "status": "final",
        "subject": {
          "reference": "urn:uuid:66efce77-d578-4dd3-824d-f795797ab097",
          "display": "Marthe Gallet"
        },
        "effectiveDateTime": "2021-03-11T19:05:43Z",
        "specimen": {
          "reference": "urn:uuid:01f0a907-0f4c-4e26-8be6-aca2f716994f"
        }
      }
    },
    {
      "fullUrl": "urn:uuid:f9d3aeba-5bef-4fa4-b10e-697cda81732b",
      "resource": {
        "resourceType": "Observation",
        "id": "f9d3aeba-5bef-4fa4-b10e-697cda81732b",
        "meta": {
          "profile": [
            "http://hl7.eu/fhir/laboratory/StructureDefinition/Observation-resultslab-eu-lab"
          ]
        },
        "performer": [
          {
            "display": "The Central European Lab"
          }
        ],
        "category": [
          {
            "coding": [
              {
                "system": "http://terminology.hl7.org/CodeSystem/observation-category",
                "code": "laboratory"
              }
            ]
          }
        ],
        "code": {
          "coding": [
            {
              "code": "25428-4",
              "system": "http://loinc.org",
              "display": "Glucose [Presence] in Urine by Test strip"
            }
          ],
          "text": "Glucose [Presence] in Urine by Test strip"
        },
        "text": {
          "status": "generated",
          "div": "<div xmlns=\"http://www.w3.org/1999/xhtml\"><table class=\"hl7__eu__lab__report\"><tr><th>Test</th><th>11-Mar-2021</th><th>Reference&#xA0;Range</th><th>Unit</th></tr><tr><td>Glucose [Presence] in Urine by Test strip</td></tr></table></div>"
        },
        "status": "final",
        "subject": {
          "reference": "urn:uuid:66efce77-d578-4dd3-824d-f795797ab097",
          "display": "Marthe Gallet"
        },
        "effectiveDateTime": "2021-03-11T19:05:43Z",
        "specimen": {
          "reference": "urn:uuid:01f0a907-0f4c-4e26-8be6-aca2f716994f"
        }
      }
    },
    {
      "fullUrl": "urn:uuid:55037f41-885f-4a6b-8e89-f532f6cb503c",
      "resource": {
        "resourceType": "Observation",
        "id": "55037f41-885f-4a6b-8e89-f532f6cb503c",
        "meta": {
          "profile": [
            "http://hl7.eu/fhir/laboratory/StructureDefinition/Observation-resultslab-eu-lab"
          ]
        },
        "performer": [
          {
            "display": "The Central European Lab"
          }
        ],
        "category": [
          {
            "coding": [
              {
                "system": "http://terminology.hl7.org/CodeSystem/observation-category",
                "code": "laboratory"
              }
            ]
          }
        ],
        "code": {
          "coding": [
            {
              "code": "20505-4",
              "system": "http://loinc.org",
              "display": "Bilirubin.total [Mass/volume] in Urine by Test strip"
            }
          ],
          "text": "Bilirubin.total [Mass/volume] in Urine by Test strip"
        },
        "valueQuantity": {
          "system": "http://unitsofmeasure.org",
          "value": 1.2,
          "unit": "mg/dL",
          "code": "mg/dL"
        },
        "referenceRange": [
          {
            "low": {
              "value": 0,
              "code": "mg/dL",
              "system": "http://unitsofmeasure.org"
            }
          },
          {
            "high": {
              "value": 1,
              "code": "mg/dL",
              "system": "http://unitsofmeasure.org"
            }
          }
        ],
        "interpretation": [
          {
            "coding": [
              {
                "code": "H",
                "system": "http://terminology.hl7.org/CodeSystem/v3-ObservationInterpretation",
                "display": "High"
              }
            ]
          }
        ],
        "text": {
          "status": "generated",
          "div": "<div xmlns=\"http://www.w3.org/1999/xhtml\"><table class=\"hl7__eu__lab__report\"><tr><th>Test</th><th>11-Mar-2021</th><th>Reference&#xA0;Range</th><th>Unit</th></tr><tr><td>Bilirubin.total [Mass/volume] in Urine by Test strip</td><td>1.2</td><td>0 - 1</td><td>H</td><td>mg/dL</td></tr></table></div>"
        },
        "status": "final",
        "subject": {
          "reference": "urn:uuid:66efce77-d578-4dd3-824d-f795797ab097",
          "display": "Marthe Gallet"
        },
        "effectiveDateTime": "2021-03-11T19:05:43Z",
        "specimen": {
          "reference": "urn:uuid:01f0a907-0f4c-4e26-8be6-aca2f716994f"
        }
      }
    },
    {
      "fullUrl": "urn:uuid:d51d0b4e-e049-47b1-bf1b-636c15ce71e1",
      "resource": {
        "resourceType": "Observation",
        "id": "d51d0b4e-e049-47b1-bf1b-636c15ce71e1",
        "meta": {
          "profile": [
            "http://hl7.eu/fhir/laboratory/StructureDefinition/Observation-resultslab-eu-lab"
          ]
        },
        "performer": [
          {
            "display": "The Central European Lab"
          }
        ],
        "category": [
          {
            "coding": [
              {
                "system": "http://terminology.hl7.org/CodeSystem/observation-category",
                "code": "laboratory"
              }
            ]
          }
        ],
        "code": {
          "coding": [
            {
              "code": "5770-3",
              "system": "http://loinc.org",
              "display": "Bilirubin.total [Presence] in Urine by Test strip"
            }
          ],
          "text": "Bilirubin.total [Presence] in Urine by Test strip"
        },
        "text": {
          "status": "generated",
          "div": "<div xmlns=\"http://www.w3.org/1999/xhtml\"><table class=\"hl7__eu__lab__report\"><tr><th>Test</th><th>11-Mar-2021</th><th>Reference&#xA0;Range</th><th>Unit</th></tr><tr><td>Bilirubin.total [Presence] in Urine by Test strip</td></tr></table></div>"
        },
        "status": "final",
        "subject": {
          "reference": "urn:uuid:66efce77-d578-4dd3-824d-f795797ab097",
          "display": "Marthe Gallet"
        },
        "effectiveDateTime": "2021-03-11T19:05:43Z",
        "specimen": {
          "reference": "urn:uuid:01f0a907-0f4c-4e26-8be6-aca2f716994f"
        }
      }
    },
    {
      "fullUrl": "urn:uuid:9881b23f-ee22-40b8-8dc2-955aa20dacb7",
      "resource": {
        "resourceType": "Observation",
        "id": "9881b23f-ee22-40b8-8dc2-955aa20dacb7",
        "meta": {
          "profile": [
            "http://hl7.eu/fhir/laboratory/StructureDefinition/Observation-resultslab-eu-lab"
          ]
        },
        "performer": [
          {
            "display": "The Central European Lab"
          }
        ],
        "category": [
          {
            "coding": [
              {
                "system": "http://terminology.hl7.org/CodeSystem/observation-category",
                "code": "laboratory"
              }
            ]
          }
        ],
        "code": {
          "coding": [
            {
              "code": "5797-6",
              "system": "http://loinc.org",
              "display": "Ketones [Mass/volume] in Urine by Test strip"
            }
          ],
          "text": "Ketones [Mass/volume] in Urine by Test strip"
        },
        "valueQuantity": {
          "system": "http://unitsofmeasure.org",
          "value": 7.9,
          "unit": "mg/dL",
          "code": "mg/dL"
        },
        "referenceRange": [
          {
            "low": {
              "value": 0,
              "code": "mg/dL",
              "system": "http://unitsofmeasure.org"
            }
          },
          {
            "high": {
              "value": 20,
              "code": "mg/dL",
              "system": "http://unitsofmeasure.org"
            }
          }
        ],
        "text": {
          "status": "generated",
          "div": "<div xmlns=\"http://www.w3.org/1999/xhtml\"><table class=\"hl7__eu__lab__report\"><tr><th>Test</th><th>11-Mar-2021</th><th>Reference&#xA0;Range</th><th>Unit</th></tr><tr><td>Ketones [Mass/volume] in Urine by Test strip</td><td>7.9</td><td>0 - 20</td><td></td><td>mg/dL</td></tr></table></div>"
        },
        "status": "final",
        "subject": {
          "reference": "urn:uuid:66efce77-d578-4dd3-824d-f795797ab097",
          "display": "Marthe Gallet"
        },
        "effectiveDateTime": "2021-03-11T19:05:43Z",
        "specimen": {
          "reference": "urn:uuid:01f0a907-0f4c-4e26-8be6-aca2f716994f"
        }
      }
    },
    {
      "fullUrl": "urn:uuid:f9c634e6-b4df-4fc2-b741-f5463a0fda5f",
      "resource": {
        "resourceType": "Observation",
        "id": "f9c634e6-b4df-4fc2-b741-f5463a0fda5f",
        "meta": {
          "profile": [
            "http://hl7.eu/fhir/laboratory/StructureDefinition/Observation-resultslab-eu-lab"
          ]
        },
        "performer": [
          {
            "display": "The Central European Lab"
          }
        ],
        "category": [
          {
            "coding": [
              {
                "system": "http://terminology.hl7.org/CodeSystem/observation-category",
                "code": "laboratory"
              }
            ]
          }
        ],
        "code": {
          "coding": [
            {
              "code": "2514-8",
              "system": "http://loinc.org",
              "display": "Ketones [Presence] in Urine by Test strip"
            }
          ],
          "text": "Ketones [Presence] in Urine by Test strip"
        },
        "text": {
          "status": "generated",
          "div": "<div xmlns=\"http://www.w3.org/1999/xhtml\"><table class=\"hl7__eu__lab__report\"><tr><th>Test</th><th>11-Mar-2021</th><th>Reference&#xA0;Range</th><th>Unit</th></tr><tr><td>Ketones [Presence] in Urine by Test strip</td></tr></table></div>"
        },
        "status": "final",
        "subject": {
          "reference": "urn:uuid:66efce77-d578-4dd3-824d-f795797ab097",
          "display": "Marthe Gallet"
        },
        "effectiveDateTime": "2021-03-11T19:05:43Z",
        "specimen": {
          "reference": "urn:uuid:01f0a907-0f4c-4e26-8be6-aca2f716994f"
        }
      }
    },
    {
      "fullUrl": "urn:uuid:ad789856-4039-4356-904b-e6a938831f32",
      "resource": {
        "resourceType": "Observation",
        "id": "ad789856-4039-4356-904b-e6a938831f32",
        "meta": {
          "profile": [
            "http://hl7.eu/fhir/laboratory/StructureDefinition/Observation-resultslab-eu-lab"
          ]
        },
        "performer": [
          {
            "display": "The Central European Lab"
          }
        ],
        "category": [
          {
            "coding": [
              {
                "system": "http://terminology.hl7.org/CodeSystem/observation-category",
                "code": "laboratory"
              }
            ]
          }
        ],
        "code": {
          "coding": [
            {
              "code": "5811-5",
              "system": "http://loinc.org",
              "display": "Specific gravity of Urine by Test strip"
            }
          ],
          "text": "Specific gravity of Urine by Test strip"
        },
        "valueQuantity": {
          "system": "http://unitsofmeasure.org",
          "value": 1,
          "unit": "{nominal}",
          "code": "{nominal}"
        },
        "referenceRange": [
          {
            "low": {
              "value": 1.01,
              "code": "g/mL",
              "system": "http://unitsofmeasure.org"
            }
          },
          {
            "high": {
              "value": 1.03,
              "code": "g/mL",
              "system": "http://unitsofmeasure.org"
            }
          }
        ],
        "interpretation": [
          {
            "coding": [
              {
                "code": "L",
                "system": "http://terminology.hl7.org/CodeSystem/v3-ObservationInterpretation",
                "display": "Low"
              }
            ]
          }
        ],
        "text": {
          "status": "generated",
          "div": "<div xmlns=\"http://www.w3.org/1999/xhtml\"><table class=\"hl7__eu__lab__report\"><tr><th>Test</th><th>11-Mar-2021</th><th>Reference&#xA0;Range</th><th>Unit</th></tr><tr><td>Specific gravity of Urine by Test strip</td><td>1.0</td><td>1.01 - 1.03</td><td>L</td><td>{nominal}</td></tr></table></div>"
        },
        "status": "final",
        "subject": {
          "reference": "urn:uuid:66efce77-d578-4dd3-824d-f795797ab097",
          "display": "Marthe Gallet"
        },
        "effectiveDateTime": "2021-03-11T19:05:43Z",
        "specimen": {
          "reference": "urn:uuid:01f0a907-0f4c-4e26-8be6-aca2f716994f"
        }
      }
    },
    {
      "fullUrl": "urn:uuid:853b0e7c-1eb0-472e-83fd-7f0c063ad410",
      "resource": {
        "resourceType": "Observation",
        "id": "853b0e7c-1eb0-472e-83fd-7f0c063ad410",
        "meta": {
          "profile": [
            "http://hl7.eu/fhir/laboratory/StructureDefinition/Observation-resultslab-eu-lab"
          ]
        },
        "performer": [
          {
            "display": "The Central European Lab"
          }
        ],
        "category": [
          {
            "coding": [
              {
                "system": "http://terminology.hl7.org/CodeSystem/observation-category",
                "code": "laboratory"
              }
            ]
          }
        ],
        "code": {
          "coding": [
            {
              "code": "5803-2",
              "system": "http://loinc.org",
              "display": "pH of Urine by Test strip"
            }
          ],
          "text": "pH of Urine by Test strip"
        },
        "valueQuantity": {
          "system": "http://unitsofmeasure.org",
          "value": 6.5,
          "unit": "pH",
          "code": "pH"
        },
        "referenceRange": [
          {
            "low": {
              "value": 4.6,
              "code": "pH",
              "system": "http://unitsofmeasure.org"
            }
          },
          {
            "high": {
              "value": 7,
              "code": "pH",
              "system": "http://unitsofmeasure.org"
            }
          }
        ],
        "text": {
          "status": "generated",
          "div": "<div xmlns=\"http://www.w3.org/1999/xhtml\"><table class=\"hl7__eu__lab__report\"><tr><th>Test</th><th>11-Mar-2021</th><th>Reference&#xA0;Range</th><th>Unit</th></tr><tr><td>pH of Urine by Test strip</td><td>6.5</td><td>4.6 - 7</td><td></td><td>pH</td></tr></table></div>"
        },
        "status": "final",
        "subject": {
          "reference": "urn:uuid:66efce77-d578-4dd3-824d-f795797ab097",
          "display": "Marthe Gallet"
        },
        "effectiveDateTime": "2021-03-11T19:05:43Z",
        "specimen": {
          "reference": "urn:uuid:01f0a907-0f4c-4e26-8be6-aca2f716994f"
        }
      }
    },
    {
      "fullUrl": "urn:uuid:db328334-dde5-4ffd-a75a-71cc0066f888",
      "resource": {
        "resourceType": "Observation",
        "id": "db328334-dde5-4ffd-a75a-71cc0066f888",
        "meta": {
          "profile": [
            "http://hl7.eu/fhir/laboratory/StructureDefinition/Observation-resultslab-eu-lab"
          ]
        },
        "performer": [
          {
            "display": "The Central European Lab"
          }
        ],
        "category": [
          {
            "coding": [
              {
                "system": "http://terminology.hl7.org/CodeSystem/observation-category",
                "code": "laboratory"
              }
            ]
          }
        ],
        "code": {
          "coding": [
            {
              "code": "5804-0",
              "system": "http://loinc.org",
              "display": "Protein [Mass/volume] in Urine by Test strip"
            }
          ],
          "text": "Protein [Mass/volume] in Urine by Test strip"
        },
        "valueQuantity": {
          "system": "http://unitsofmeasure.org",
          "value": 303.5,
          "unit": "mg/dL",
          "code": "mg/dL"
        },
        "referenceRange": [
          {
            "low": {
              "value": 0,
              "code": "mg/dL",
              "system": "http://unitsofmeasure.org"
            }
          },
          {
            "high": {
              "value": 15,
              "code": "mg/dL",
              "system": "http://unitsofmeasure.org"
            }
          }
        ],
        "interpretation": [
          {
            "coding": [
              {
                "code": "H",
                "system": "http://terminology.hl7.org/CodeSystem/v3-ObservationInterpretation",
                "display": "High"
              }
            ]
          }
        ],
        "text": {
          "status": "generated",
          "div": "<div xmlns=\"http://www.w3.org/1999/xhtml\"><table class=\"hl7__eu__lab__report\"><tr><th>Test</th><th>11-Mar-2021</th><th>Reference&#xA0;Range</th><th>Unit</th></tr><tr><td>Protein [Mass/volume] in Urine by Test strip</td><td>303.5</td><td>0 - 15</td><td>H</td><td>mg/dL</td></tr></table></div>"
        },
        "status": "final",
        "subject": {
          "reference": "urn:uuid:66efce77-d578-4dd3-824d-f795797ab097",
          "display": "Marthe Gallet"
        },
        "effectiveDateTime": "2021-03-11T19:05:43Z",
        "specimen": {
          "reference": "urn:uuid:01f0a907-0f4c-4e26-8be6-aca2f716994f"
        }
      }
    },
    {
      "fullUrl": "urn:uuid:f1835cae-68ea-4e20-a225-dc990b7f4853",
      "resource": {
        "resourceType": "Observation",
        "id": "f1835cae-68ea-4e20-a225-dc990b7f4853",
        "meta": {
          "profile": [
            "http://hl7.eu/fhir/laboratory/StructureDefinition/Observation-resultslab-eu-lab"
          ]
        },
        "performer": [
          {
            "display": "The Central European Lab"
          }
        ],
        "category": [
          {
            "coding": [
              {
                "system": "http://terminology.hl7.org/CodeSystem/observation-category",
                "code": "laboratory"
              }
            ]
          }
        ],
        "code": {
          "coding": [
            {
              "code": "20454-5",
              "system": "http://loinc.org",
              "display": "Protein [Presence] in Urine by Test strip"
            }
          ],
          "text": "Protein [Presence] in Urine by Test strip"
        },
        "text": {
          "status": "generated",
          "div": "<div xmlns=\"http://www.w3.org/1999/xhtml\"><table class=\"hl7__eu__lab__report\"><tr><th>Test</th><th>11-Mar-2021</th><th>Reference&#xA0;Range</th><th>Unit</th></tr><tr><td>Protein [Presence] in Urine by Test strip</td></tr></table></div>"
        },
        "status": "final",
        "subject": {
          "reference": "urn:uuid:66efce77-d578-4dd3-824d-f795797ab097",
          "display": "Marthe Gallet"
        },
        "effectiveDateTime": "2021-03-11T19:05:43Z",
        "specimen": {
          "reference": "urn:uuid:01f0a907-0f4c-4e26-8be6-aca2f716994f"
        }
      }
    },
    {
      "fullUrl": "urn:uuid:4edd982c-1bb0-4dcf-9216-97dbcde273e0",
      "resource": {
        "resourceType": "Observation",
        "id": "4edd982c-1bb0-4dcf-9216-97dbcde273e0",
        "meta": {
          "profile": [
            "http://hl7.eu/fhir/laboratory/StructureDefinition/Observation-resultslab-eu-lab"
          ]
        },
        "performer": [
          {
            "display": "The Central European Lab"
          }
        ],
        "category": [
          {
            "coding": [
              {
                "system": "http://terminology.hl7.org/CodeSystem/observation-category",
                "code": "laboratory"
              }
            ]
          }
        ],
        "code": {
          "coding": [
            {
              "code": "5802-4",
              "system": "http://loinc.org",
              "display": "Nitrite [Presence] in Urine by Test strip"
            }
          ],
          "text": "Nitrite [Presence] in Urine by Test strip"
        },
        "text": {
          "status": "generated",
          "div": "<div xmlns=\"http://www.w3.org/1999/xhtml\"><table class=\"hl7__eu__lab__report\"><tr><th>Test</th><th>11-Mar-2021</th><th>Reference&#xA0;Range</th><th>Unit</th></tr><tr><td>Nitrite [Presence] in Urine by Test strip</td></tr></table></div>"
        },
        "status": "final",
        "subject": {
          "reference": "urn:uuid:66efce77-d578-4dd3-824d-f795797ab097",
          "display": "Marthe Gallet"
        },
        "effectiveDateTime": "2021-03-11T19:05:43Z",
        "specimen": {
          "reference": "urn:uuid:01f0a907-0f4c-4e26-8be6-aca2f716994f"
        }
      }
    },
    {
      "fullUrl": "urn:uuid:f7a64bce-c48f-40cc-854f-b759e3f3d286",
      "resource": {
        "resourceType": "Observation",
        "id": "f7a64bce-c48f-40cc-854f-b759e3f3d286",
        "meta": {
          "profile": [
            "http://hl7.eu/fhir/laboratory/StructureDefinition/Observation-resultslab-eu-lab"
          ]
        },
        "performer": [
          {
            "display": "The Central European Lab"
          }
        ],
        "category": [
          {
            "coding": [
              {
                "system": "http://terminology.hl7.org/CodeSystem/observation-category",
                "code": "laboratory"
              }
            ]
          }
        ],
        "code": {
          "coding": [
            {
              "code": "5794-3",
              "system": "http://loinc.org",
              "display": "Hemoglobin [Presence] in Urine by Test strip"
            }
          ],
          "text": "Hemoglobin [Presence] in Urine by Test strip"
        },
        "text": {
          "status": "generated",
          "div": "<div xmlns=\"http://www.w3.org/1999/xhtml\"><table class=\"hl7__eu__lab__report\"><tr><th>Test</th><th>11-Mar-2021</th><th>Reference&#xA0;Range</th><th>Unit</th></tr><tr><td>Hemoglobin [Presence] in Urine by Test strip</td></tr></table></div>"
        },
        "status": "final",
        "subject": {
          "reference": "urn:uuid:66efce77-d578-4dd3-824d-f795797ab097",
          "display": "Marthe Gallet"
        },
        "effectiveDateTime": "2021-03-11T19:05:43Z",
        "specimen": {
          "reference": "urn:uuid:01f0a907-0f4c-4e26-8be6-aca2f716994f"
        }
      }
    },
    {
      "fullUrl": "urn:uuid:7bedf516-6b74-48a7-a4e0-15df92207980",
      "resource": {
        "resourceType": "Observation",
        "id": "7bedf516-6b74-48a7-a4e0-15df92207980",
        "meta": {
          "profile": [
            "http://hl7.eu/fhir/laboratory/StructureDefinition/Observation-resultslab-eu-lab"
          ]
        },
        "performer": [
          {
            "display": "The Central European Lab"
          }
        ],
        "category": [
          {
            "coding": [
              {
                "system": "http://terminology.hl7.org/CodeSystem/observation-category",
                "code": "laboratory"
              }
            ]
          }
        ],
        "code": {
          "coding": [
            {
              "code": "5799-2",
              "system": "http://loinc.org",
              "display": "Leukocyte esterase [Presence] in Urine by Test strip"
            }
          ],
          "text": "Leukocyte esterase [Presence] in Urine by Test strip"
        },
        "text": {
          "status": "generated",
          "div": "<div xmlns=\"http://www.w3.org/1999/xhtml\"><table class=\"hl7__eu__lab__report\"><tr><th>Test</th><th>11-Mar-2021</th><th>Reference&#xA0;Range</th><th>Unit</th></tr><tr><td>Leukocyte esterase [Presence] in Urine by Test strip</td></tr></table></div>"
        },
        "status": "final",
        "subject": {
          "reference": "urn:uuid:66efce77-d578-4dd3-824d-f795797ab097",
          "display": "Marthe Gallet"
        },
        "effectiveDateTime": "2021-03-11T19:05:43Z",
        "specimen": {
          "reference": "urn:uuid:01f0a907-0f4c-4e26-8be6-aca2f716994f"
        }
      }
    },
    {
      "fullUrl": "urn:uuid:ad5476fd-f243-4a07-b7b4-a63088178755",
      "resource": {
        "resourceType": "Device",
        "id": "ad5476fd-f243-4a07-b7b4-a63088178755",
        "deviceName": [
          {
            "name": "SYNDERAI Synthetic Generator",
            "type": "manufacturer-name"
          }
        ],
        "version": [
          {
            "value": "5.0"
          }
        ],
        "text": {
          "status": "generated",
          "div": "<div xmlns=\"http://www.w3.org/1999/xhtml\">SYNDERAI Synthetic Generator v5.0</div>"
        },
        "status": "active\"",
        "distinctIdentifier": "synderai-generator-50",
        "manufacturer": "SYNDERAI Project"
      }
    },
    {
      "fullUrl": "urn:uuid:63be25ec-1450-4307-b09f-0440e36479c4",
      "resource": {
        "resourceType": "Provenance",
        "id": "63be25ec-1450-4307-b09f-0440e36479c4",
        "target": [
          {
            "reference": "Patient/66efce77-d578-4dd3-824d-f795797ab097"
          },
          {
            "reference": "Bundle/f0cc1fce-ec99-4e38-a991-fe851e8f63e9"
          },
          {
            "reference": "Composition/2d667b29-42cd-47d9-a9ef-6cb2537c4599"
          },
          {
            "reference": "PractitionerRole/f87a4e4d-73bc-4198-b756-8350141adda3"
          },
          {
            "reference": "Practitioner/16064cda-193b-4739-acde-30d036c3954e"
          },
          {
            "reference": "PractitionerRole/06af3ea6-aa1c-4dee-aeb8-2b4fc1bc73f4"
          },
          {
            "reference": "Organization/e0116591-e3ea-4061-9a60-e05c7fe98f98"
          }
        ],
        "activity": {
          "text": "Synthetic Example Data Generation"
        },
        "policy": [
          "https://synderai.net/synderai-synthetic-data-policy"
        ],
        "agent": [
          {
            "type": {
              "text": "author"
            },
            "who": {
              "reference": "Device/ad5476fd-f243-4a07-b7b4-a63088178755"
            }
          }
        ],
        "reason": [
          {
            "text": "Interoperability Testing and Training (non-clinical use)"
          }
        ],
        "text": {
          "status": "generated",
          "div": "<div xmlns=\"http://www.w3.org/1999/xhtml\">Provenance for SYNDERAI Synthetic Example Data Resource</div>"
        },
        "recorded": "2021-03-11T20:05:43Z"
      }
    },
    {
      "fullUrl": "urn:uuid:f87a4e4d-73bc-4198-b756-8350141adda3",
      "resource": {
        "resourceType": "PractitionerRole",
        "id": "f87a4e4d-73bc-4198-b756-8350141adda3",
        "meta": {
          "profile": [
            "http://hl7.eu/fhir/base/StructureDefinition/practitionerRole-eu"
          ]
        },
        "text": {
          "status": "generated",
          "div": "<div xmlns=\"http://www.w3.org/1999/xhtml\">Laboratory Role Id: f87a4e4d-73bc-4198-b756-8350141adda3</div>"
        },
        "practitioner": {
          "reference": "urn:uuid:16064cda-193b-4739-acde-30d036c3954e"
        }
      }
    },
    {
      "fullUrl": "urn:uuid:16064cda-193b-4739-acde-30d036c3954e",
      "resource": {
        "resourceType": "Practitioner",
        "id": "16064cda-193b-4739-acde-30d036c3954e",
        "meta": {
          "profile": [
            "http://hl7.eu/fhir/base/StructureDefinition/practitioner-eu"
          ]
        },
        "identifier": [
          {
            "assigner": {
              "display": "HL7 Europe"
            },
            "system": "urn:oid:2.16.840.1.113883.2.51.999",
            "value": "7c901c08-a9ea-4fe4-8816-a5df29239152"
          }
        ],
        "name": [
          {
            "prefix": [
              "dr"
            ],
            "given": [
              "Ex"
            ],
            "family": "Ample"
          }
        ],
        "address": [
          {
            "line": [
              "Laboratoire Central Européenne",
              "Boulevard du Jardin Botanique 32"
            ],
            "postalCode": "1000",
            "city": "Brussels",
            "country": "Belgium"
          }
        ],
        "text": {
          "status": "generated",
          "div": "<div xmlns=\"http://www.w3.org/1999/xhtml\">Laboratory: Laboratoire Central Européenne, 1000 Brussels, Belgium</div>"
        }
      }
    }
  ],
  "type": "document",
  "timestamp": "2021-03-11T20:05:43Z"
}
