{
  "resourceType": "Bundle",
  "id": "54a916f6-06ca-4cd2-964e-fda5ba58d369",
  "meta": {
    "profile": [
      "http://hl7.eu/fhir/laboratory/StructureDefinition/Bundle-eu-lab"
    ]
  },
  "identifier": {
    "assigner": {
      "display": "HL7 Europe"
    },
    "system": "urn:oid:2.16.840.1.113883.2.51.999",
    "value": "5a3bd4c1-a4ab-4989-9dcc-7fabcdce3db8"
  },
  "entry": [
    {
      "fullUrl": "urn:uuid:3f62ec4e-1c68-4553-a55c-6249fc26fa07",
      "resource": {
        "resourceType": "Composition",
        "id": "3f62ec4e-1c68-4553-a55c-6249fc26fa07",
        "meta": {
          "profile": [
            "http://hl7.eu/fhir/laboratory/StructureDefinition/Composition-eu-lab"
          ]
        },
        "identifier": {
          "assigner": {
            "display": "HL7 Europe"
          },
          "system": "urn:oid:2.16.840.1.113883.2.51.999",
          "value": "accd15e2-3c03-46e4-9c5b-9bf53d40fc94"
        },
        "author": [
          {
            "reference": "urn:uuid:acc79d8e-a3b7-4389-9fc7-40f7298eb38b"
          }
        ],
        "category": [
          {
            "coding": [
              {
                "code": "26436-6",
                "system": "http://loinc.org",
                "display": "Laboratory studies (set)"
              }
            ]
          }
        ],
        "type": {
          "coding": [
            {
              "code": "11502-2",
              "system": "http://loinc.org",
              "display": "Laboratory report"
            }
          ],
          "text": "Laboratory Report"
        },
        "section": [
          {
            "code": {
              "coding": [
                {
                  "code": "26436-6",
                  "system": "http://loinc.org",
                  "display": "Laboratory studies (set)"
                }
              ],
              "text": "Laboratory studies"
            },
            "section": [
              {
                "code": {
                  "coding": [
                    {
                      "code": "$18719-5",
                      "system": "http://loinc.org",
                      "display": "Chemistry studies (set)"
                    }
                  ],
                  "text": "Chemistry"
                },
                "entry": [
                  {
                    "reference": "urn:uuid:4387e3f9-494d-4b94-ac4a-3426fd32d270"
                  },
                  {
                    "reference": "urn:uuid:1aebffe2-770e-47a2-a754-b4017a655aaf"
                  },
                  {
                    "reference": "urn:uuid:1b370521-964c-4c89-9844-0e26d5dd4832"
                  },
                  {
                    "reference": "urn:uuid:7a668137-bf98-40f0-8f57-5f6d32e6da88"
                  },
                  {
                    "reference": "urn:uuid:563ac415-f860-4214-9a37-b012d4519871"
                  },
                  {
                    "reference": "urn:uuid:93f1827d-443f-4ec1-82c3-258b8ef13b8a"
                  },
                  {
                    "reference": "urn:uuid:1fb6bf8f-1631-4a97-9f09-9aecf6fa7d46"
                  },
                  {
                    "reference": "urn:uuid:d068bb4a-731b-4cda-a3fe-ed851ba373a2"
                  },
                  {
                    "reference": "urn:uuid:e2de0623-85dc-4790-89e8-3bf6149e9167"
                  }
                ],
                "text": {
                  "status": "generated",
                  "div": "<div xmlns=\"http://www.w3.org/1999/xhtml\"><h3>Chemistry</h3><table class=\"hl7__eu__lab__report\"><thead><tr><th>Test</th><th>07-FEB-2019</th><th>Reference&#xA0;Range</th><th>Unit</th></tr></thead><tbody><tr><td>Hemoglobin A1c/Hemoglobin.total in Blood</td><td>6.0</td><td>4 - 6</td><td>%</td></tr><tr><td>Glucose [Mass/volume] in Blood</td><td>70.2</td><td>70 - 140</td><td>mg/dL</td></tr><tr><td>Urea nitrogen [Mass/volume] in Blood</td><td>13.9</td><td>7 - 25</td><td>mg/dL</td></tr><tr><td>Creatinine [Mass/volume] in Blood</td><td>1.0</td><td>0.6 - 1.1</td><td>mg/dL</td></tr><tr><td>Calcium [Mass/volume] in Blood</td><td>8.7</td><td>8.5 - 10.4</td><td>mg/dL</td></tr><tr><td>Sodium [Moles/volume] in Blood</td><td>142.2</td><td>135 - 145</td><td>mmol/L</td></tr><tr><td>Potassium [Moles/volume] in Blood</td><td>3.7</td><td>3.5 - 5.1</td><td>mmol/L</td></tr><tr><td>Chloride [Moles/volume] in Blood</td><td>105.1</td><td>98 - 108</td><td>mmol/L</td></tr><tr><td>Carbon dioxide, total [Moles/volume] in Blood</td><td><strong>20.4 L</strong></td><td>22 - 29</td><td>mmol/L</td></tr></tbody></table></div>"
                },
                "title": "Chemistry"
              }
            ],
            "title": "Laboratory Report"
          },
          {
            "text": {
              "status": "generated",
              "div": "<div xmlns=\"http://www.w3.org/1999/xhtml\"><h3>Annotation</h3><table class=\"hl7__eu__lab__report\"><tr><th>Conclusion and Recommendations based on this report and previous findings known to us</th></tr><tr><td>All measured parameters are within normal limits except for a mildly decreased total carbon dioxide, which may suggest mild metabolic acidosis or compensated respiratory alkalosis. Glycemic control (HbA1c) is at the upper limit of normal. Renal function, electrolytes, and other values are unremarkable. Clinical correlation is recommended.</td></tr></table></div>"
            },
            "code": {
              "coding": [
                {
                  "system": "http://loinc.org",
                  "code": "48767-8",
                  "display": "Annotation comment"
                }
              ]
            },
            "title": "Annotation comment"
          }
        ],
        "status": "final",
        "subject": {
          "reference": "urn:uuid:8da815ca-6a35-4376-b9e8-9793b3314367",
          "display": "Vincenza Porzio"
        },
        "date": "2019-02-07T19:51:27Z",
        "title": "Laboratory Report",
        "confidentiality": "N"
      }
    },
    {
      "fullUrl": "urn:uuid:72425695-82ed-4029-baf6-db4f017dc961",
      "resource": {
        "resourceType": "DiagnosticReport",
        "id": "72425695-82ed-4029-baf6-db4f017dc961",
        "meta": {
          "profile": [
            "http://hl7.eu/fhir/laboratory/StructureDefinition/DiagnosticReport-eu-lab"
          ]
        },
        "identifier": [
          {
            "assigner": {
              "display": "HL7 Europe"
            },
            "system": "urn:oid:2.16.840.1.113883.2.51.999",
            "value": "a25a8b5c-62f9-4a6b-9d8d-19c5c870ed67"
          }
        ],
        "extension": [
          {
            "url": "http://hl7.org/fhir/5.0/StructureDefinition/extension-DiagnosticReport.composition",
            "valueReference": {
              "reference": "urn:uuid:accd15e2-3c03-46e4-9c5b-9bf53d40fc94"
            }
          }
        ],
        "category": [
          {
            "coding": [
              {
                "code": "26436-6",
                "system": "http://loinc.org",
                "display": "Laboratory studies (set)"
              }
            ]
          }
        ],
        "specimen": [
          {
            "reference": "urn:uuid:c38be91f-1b6d-4ec2-93a5-9852f7715b50"
          }
        ],
        "result": [
          {
            "reference": "urn:uuid:4387e3f9-494d-4b94-ac4a-3426fd32d270"
          },
          {
            "reference": "urn:uuid:1aebffe2-770e-47a2-a754-b4017a655aaf"
          },
          {
            "reference": "urn:uuid:1b370521-964c-4c89-9844-0e26d5dd4832"
          },
          {
            "reference": "urn:uuid:7a668137-bf98-40f0-8f57-5f6d32e6da88"
          },
          {
            "reference": "urn:uuid:563ac415-f860-4214-9a37-b012d4519871"
          },
          {
            "reference": "urn:uuid:93f1827d-443f-4ec1-82c3-258b8ef13b8a"
          },
          {
            "reference": "urn:uuid:1fb6bf8f-1631-4a97-9f09-9aecf6fa7d46"
          },
          {
            "reference": "urn:uuid:d068bb4a-731b-4cda-a3fe-ed851ba373a2"
          },
          {
            "reference": "urn:uuid:e2de0623-85dc-4790-89e8-3bf6149e9167"
          }
        ],
        "status": "registered",
        "code": {
          "coding": [
            {
              "code": "11502-2",
              "system": "http://loinc.org",
              "display": "Laboratory report"
            }
          ]
        },
        "subject": {
          "reference": "urn:uuid:8da815ca-6a35-4376-b9e8-9793b3314367",
          "display": "Vincenza Porzio"
        }
      }
    },
    {
      "fullUrl": "urn:uuid:8da815ca-6a35-4376-b9e8-9793b3314367",
      "resource": {
        "resourceType": "Patient",
        "id": "8da815ca-6a35-4376-b9e8-9793b3314367",
        "meta": {
          "security": [
            {
              "system": "http://terminology.hl7.org/CodeSystem/v3-ActReason",
              "code": "HTEST"
            },
            {
              "system": "http://terminology.hl7.org/CodeSystem/v3-ActReason",
              "code": "TRAIN"
            }
          ],
          "tag": [
            {
              "system": "https://synderai.net/fhir/CodeSystem/tags",
              "code": "synthetic",
              "display": "SYNDERAI Synthetic data"
            }
          ],
          "profile": [
            "http://hl7.eu/fhir/base/StructureDefinition/patient-eu-core"
          ]
        },
        "identifier": [
          {
            "type": {
              "coding": [
                {
                  "code": "PT",
                  "system": "http://terminology.hl7.org/CodeSystem/v2-0203"
                }
              ]
            },
            "system": "http://ec.europa.eu/identifier/eci",
            "value": "9988-341158-1"
          },
          {
            "type": {
              "coding": [
                {
                  "code": "MR",
                  "system": "http://terminology.hl7.org/CodeSystem/v2-0203"
                }
              ]
            },
            "system": "http://local.setting.eu/identifier",
            "value": "559a1acd-87c3-5b56-0345-4eaff6c5aa0a"
          }
        ],
        "name": [
          {
            "family": "Porzio"
          },
          {
            "given": [
              "Vincenza"
            ]
          },
          {
            "text": "Vincenza Porzio"
          }
        ],
        "address": [
          {
            "line": [
              "Piazza Allegra, 720"
            ],
            "use": "home",
            "type": "physical",
            "postalCode": "36040",
            "city": "Grumolo Pedemonte",
            "country": "Italy"
          }
        ],
        "telecom": [
          {
            "system": "phone",
            "value": "041007473"
          }
        ],
        "extension": [
          {
            "url": "http://hl7.org/fhir/StructureDefinition/patient-nationality",
            "valueCodeableConcept": {
              "coding": [
                {
                  "code": "IT",
                  "system": "http://hl7.org/fhir/ValueSet/country"
                }
              ]
            }
          }
        ],
        "text": {
          "status": "generated",
          "div": "<div xmlns=\"http://www.w3.org/1999/xhtml\"><table class=\"hl7__ips\"><tr><td>Vincenza Porzio</td><td>female</td><td>13-Sep-1965</td></tr></table></div>"
        },
        "gender": "female",
        "birthDate": "1965-09-13"
      }
    },
    {
      "fullUrl": "urn:uuid:45133ab3-7107-4333-ad1b-9d98d5e39776",
      "resource": {
        "resourceType": "ServiceRequest",
        "id": "45133ab3-7107-4333-ad1b-9d98d5e39776",
        "meta": {
          "profile": [
            "http://hl7.eu/fhir/laboratory/StructureDefinition/ServiceRequest-eu-lab"
          ]
        },
        "identifier": [
          {
            "system": "http://example.org",
            "value": "a020f6aa-3146-4051-b85a-1e64307a2243"
          }
        ],
        "specimen": [
          {
            "reference": "urn:uuid:c38be91f-1b6d-4ec2-93a5-9852f7715b50"
          }
        ],
        "reasonCode": [
          {
            "coding": [
              {
                "code": "40055000",
                "system": "http://snomed.info/sct",
                "display": "Chronic sinusitis"
              }
            ]
          },
          {
            "coding": [
              {
                "code": "15777000",
                "system": "http://snomed.info/sct",
                "display": "Prediabetes"
              }
            ]
          },
          {
            "coding": [
              {
                "code": "239873007",
                "system": "http://snomed.info/sct",
                "display": "Osteoarthritis of knee"
              }
            ]
          },
          {
            "coding": [
              {
                "code": "6525002",
                "system": "http://snomed.info/sct",
                "display": "Dependent drug abuse"
              }
            ]
          },
          {
            "coding": [
              {
                "code": "196416002",
                "system": "http://snomed.info/sct",
                "display": "Impacted molars"
              }
            ]
          },
          {
            "coding": [
              {
                "code": "124171000119105",
                "system": "http://snomed.info/sct",
                "display": "Chronic intractable migraine without aura"
              }
            ]
          }
        ],
        "status": "active",
        "intent": "order",
        "code": {
          "coding": [
            {
              "code": "108252007",
              "system": "http://snomed.info/sct",
              "display": "Laboratory procedure"
            }
          ]
        },
        "subject": {
          "reference": "urn:uuid:8da815ca-6a35-4376-b9e8-9793b3314367",
          "display": "Vincenza Porzio"
        },
        "requester": {
          "reference": "urn:uuid:3031ad9b-74f4-480c-86ec-4f5894b27698"
        }
      }
    },
    {
      "fullUrl": "urn:uuid:3031ad9b-74f4-480c-86ec-4f5894b27698",
      "resource": {
        "resourceType": "PractitionerRole",
        "id": "3031ad9b-74f4-480c-86ec-4f5894b27698",
        "meta": {
          "profile": [
            "http://hl7.eu/fhir/base/StructureDefinition/practitionerRole-eu"
          ]
        },
        "text": {
          "status": "generated",
          "div": "<div xmlns=\"http://www.w3.org/1999/xhtml\">Provider Role Id: 3031ad9b-74f4-480c-86ec-4f5894b27698</div>"
        },
        "organization": {
          "reference": "urn:uuid:8bf40e9e-da23-4fa7-8c86-def92bee6f03"
        }
      }
    },
    {
      "fullUrl": "urn:uuid:8bf40e9e-da23-4fa7-8c86-def92bee6f03",
      "resource": {
        "resourceType": "Organization",
        "id": "8bf40e9e-da23-4fa7-8c86-def92bee6f03",
        "meta": {
          "profile": [
            "http://hl7.eu/fhir/base/StructureDefinition/organization-eu"
          ]
        },
        "identifier": [
          {
            "assigner": {
              "display": "HL7 Europe"
            },
            "system": "urn:oid:2.16.840.1.113883.2.51.999",
            "value": "a4ab7d6f-8116-407d-a44c-aed2ad556991"
          }
        ],
        "address": [
          {
            "country": "Italy"
          }
        ],
        "text": {
          "status": "generated",
          "div": "<div xmlns=\"http://www.w3.org/1999/xhtml\">Provider Organization: Villa Margherita</div>"
        },
        "name": "Villa Margherita"
      }
    },
    {
      "fullUrl": "urn:uuid:c38be91f-1b6d-4ec2-93a5-9852f7715b50",
      "resource": {
        "resourceType": "Specimen",
        "id": "c38be91f-1b6d-4ec2-93a5-9852f7715b50",
        "meta": {
          "profile": [
            "http://hl7.eu/fhir/laboratory/StructureDefinition/Specimen-eu-lab"
          ]
        },
        "collection": {
          "collectedDateTime": "2019-02-07"
        },
        "text": {
          "status": "generated",
          "div": "<div xmlns=\"http://www.w3.org/1999/xhtml\"><table class=\"hl7__eu__lab__report\"><tr><th>Specimen</th><th>Collection Date</th></tr><tr><td>Whole blood specimen (specimen)</td><td><span class=\"nb\">07-Feb-2019</span></td></tr></table></div>"
        },
        "type": {
          "coding": [
            {
              "code": "258580003",
              "system": "http://snomed.info/sct",
              "display": "Whole blood specimen (specimen)"
            }
          ]
        }
      }
    },
    {
      "fullUrl": "urn:uuid:4387e3f9-494d-4b94-ac4a-3426fd32d270",
      "resource": {
        "resourceType": "Observation",
        "id": "4387e3f9-494d-4b94-ac4a-3426fd32d270",
        "meta": {
          "profile": [
            "http://hl7.eu/fhir/laboratory/StructureDefinition/Observation-resultslab-eu-lab"
          ]
        },
        "performer": [
          {
            "display": "The Central European Lab"
          }
        ],
        "category": [
          {
            "coding": [
              {
                "system": "http://terminology.hl7.org/CodeSystem/observation-category",
                "code": "laboratory"
              }
            ]
          }
        ],
        "code": {
          "coding": [
            {
              "code": "4548-4",
              "system": "http://loinc.org",
              "display": "Hemoglobin A1c/Hemoglobin.total in Blood"
            }
          ],
          "text": "Hemoglobin A1c/Hemoglobin.total in Blood"
        },
        "valueQuantity": {
          "system": "http://unitsofmeasure.org",
          "value": 6,
          "unit": "%",
          "code": "%"
        },
        "referenceRange": [
          {
            "low": {
              "value": 4,
              "code": "%",
              "system": "http://unitsofmeasure.org"
            }
          },
          {
            "high": {
              "value": 6,
              "code": "%",
              "system": "http://unitsofmeasure.org"
            }
          }
        ],
        "text": {
          "status": "generated",
          "div": "<div xmlns=\"http://www.w3.org/1999/xhtml\"><table class=\"hl7__eu__lab__report\"><tr><th>Test</th><th>07-Feb-2019</th><th>Reference&#xA0;Range</th><th>Unit</th></tr><tr><td>Hemoglobin A1c/Hemoglobin.total in Blood</td><td>6.0</td><td>4 - 6</td><td></td><td>%</td></tr></table></div>"
        },
        "status": "final",
        "subject": {
          "reference": "urn:uuid:8da815ca-6a35-4376-b9e8-9793b3314367",
          "display": "Vincenza Porzio"
        },
        "effectiveDateTime": "2019-02-07T18:51:27Z",
        "specimen": {
          "reference": "urn:uuid:c38be91f-1b6d-4ec2-93a5-9852f7715b50"
        }
      }
    },
    {
      "fullUrl": "urn:uuid:1aebffe2-770e-47a2-a754-b4017a655aaf",
      "resource": {
        "resourceType": "Observation",
        "id": "1aebffe2-770e-47a2-a754-b4017a655aaf",
        "meta": {
          "profile": [
            "http://hl7.eu/fhir/laboratory/StructureDefinition/Observation-resultslab-eu-lab"
          ]
        },
        "performer": [
          {
            "display": "The Central European Lab"
          }
        ],
        "category": [
          {
            "coding": [
              {
                "system": "http://terminology.hl7.org/CodeSystem/observation-category",
                "code": "laboratory"
              }
            ]
          }
        ],
        "code": {
          "coding": [
            {
              "code": "2339-0",
              "system": "http://loinc.org",
              "display": "Glucose [Mass/volume] in Blood"
            }
          ],
          "text": "Glucose [Mass/volume] in Blood"
        },
        "valueQuantity": {
          "system": "http://unitsofmeasure.org",
          "value": 70.2,
          "unit": "mg/dL",
          "code": "mg/dL"
        },
        "referenceRange": [
          {
            "low": {
              "value": 70,
              "code": "mg/dL",
              "system": "http://unitsofmeasure.org"
            }
          },
          {
            "high": {
              "value": 140,
              "code": "mg/dL",
              "system": "http://unitsofmeasure.org"
            }
          }
        ],
        "text": {
          "status": "generated",
          "div": "<div xmlns=\"http://www.w3.org/1999/xhtml\"><table class=\"hl7__eu__lab__report\"><tr><th>Test</th><th>07-Feb-2019</th><th>Reference&#xA0;Range</th><th>Unit</th></tr><tr><td>Glucose [Mass/volume] in Blood</td><td>70.2</td><td>70 - 140</td><td></td><td>mg/dL</td></tr></table></div>"
        },
        "status": "final",
        "subject": {
          "reference": "urn:uuid:8da815ca-6a35-4376-b9e8-9793b3314367",
          "display": "Vincenza Porzio"
        },
        "effectiveDateTime": "2019-02-07T18:51:27Z",
        "specimen": {
          "reference": "urn:uuid:c38be91f-1b6d-4ec2-93a5-9852f7715b50"
        }
      }
    },
    {
      "fullUrl": "urn:uuid:1b370521-964c-4c89-9844-0e26d5dd4832",
      "resource": {
        "resourceType": "Observation",
        "id": "1b370521-964c-4c89-9844-0e26d5dd4832",
        "meta": {
          "profile": [
            "http://hl7.eu/fhir/laboratory/StructureDefinition/Observation-resultslab-eu-lab"
          ]
        },
        "performer": [
          {
            "display": "The Central European Lab"
          }
        ],
        "category": [
          {
            "coding": [
              {
                "system": "http://terminology.hl7.org/CodeSystem/observation-category",
                "code": "laboratory"
              }
            ]
          }
        ],
        "code": {
          "coding": [
            {
              "code": "6299-2",
              "system": "http://loinc.org",
              "display": "Urea nitrogen [Mass/volume] in Blood"
            }
          ],
          "text": "Urea nitrogen [Mass/volume] in Blood"
        },
        "valueQuantity": {
          "system": "http://unitsofmeasure.org",
          "value": 13.9,
          "unit": "mg/dL",
          "code": "mg/dL"
        },
        "referenceRange": [
          {
            "low": {
              "value": 7,
              "code": "mg/dL",
              "system": "http://unitsofmeasure.org"
            }
          },
          {
            "high": {
              "value": 25,
              "code": "mg/dL",
              "system": "http://unitsofmeasure.org"
            }
          }
        ],
        "text": {
          "status": "generated",
          "div": "<div xmlns=\"http://www.w3.org/1999/xhtml\"><table class=\"hl7__eu__lab__report\"><tr><th>Test</th><th>07-Feb-2019</th><th>Reference&#xA0;Range</th><th>Unit</th></tr><tr><td>Urea nitrogen [Mass/volume] in Blood</td><td>13.9</td><td>7 - 25</td><td></td><td>mg/dL</td></tr></table></div>"
        },
        "status": "final",
        "subject": {
          "reference": "urn:uuid:8da815ca-6a35-4376-b9e8-9793b3314367",
          "display": "Vincenza Porzio"
        },
        "effectiveDateTime": "2019-02-07T18:51:27Z",
        "specimen": {
          "reference": "urn:uuid:c38be91f-1b6d-4ec2-93a5-9852f7715b50"
        }
      }
    },
    {
      "fullUrl": "urn:uuid:7a668137-bf98-40f0-8f57-5f6d32e6da88",
      "resource": {
        "resourceType": "Observation",
        "id": "7a668137-bf98-40f0-8f57-5f6d32e6da88",
        "meta": {
          "profile": [
            "http://hl7.eu/fhir/laboratory/StructureDefinition/Observation-resultslab-eu-lab"
          ]
        },
        "performer": [
          {
            "display": "The Central European Lab"
          }
        ],
        "category": [
          {
            "coding": [
              {
                "system": "http://terminology.hl7.org/CodeSystem/observation-category",
                "code": "laboratory"
              }
            ]
          }
        ],
        "code": {
          "coding": [
            {
              "code": "38483-4",
              "system": "http://loinc.org",
              "display": "Creatinine [Mass/volume] in Blood"
            }
          ],
          "text": "Creatinine [Mass/volume] in Blood"
        },
        "valueQuantity": {
          "system": "http://unitsofmeasure.org",
          "value": 1,
          "unit": "mg/dL",
          "code": "mg/dL"
        },
        "referenceRange": [
          {
            "low": {
              "value": 0.6,
              "code": "mg/dL",
              "system": "http://unitsofmeasure.org"
            }
          },
          {
            "high": {
              "value": 1.1,
              "code": "mg/dL",
              "system": "http://unitsofmeasure.org"
            }
          }
        ],
        "text": {
          "status": "generated",
          "div": "<div xmlns=\"http://www.w3.org/1999/xhtml\"><table class=\"hl7__eu__lab__report\"><tr><th>Test</th><th>07-Feb-2019</th><th>Reference&#xA0;Range</th><th>Unit</th></tr><tr><td>Creatinine [Mass/volume] in Blood</td><td>1.0</td><td>0.6 - 1.1</td><td></td><td>mg/dL</td></tr></table></div>"
        },
        "status": "final",
        "subject": {
          "reference": "urn:uuid:8da815ca-6a35-4376-b9e8-9793b3314367",
          "display": "Vincenza Porzio"
        },
        "effectiveDateTime": "2019-02-07T18:51:27Z",
        "specimen": {
          "reference": "urn:uuid:c38be91f-1b6d-4ec2-93a5-9852f7715b50"
        }
      }
    },
    {
      "fullUrl": "urn:uuid:563ac415-f860-4214-9a37-b012d4519871",
      "resource": {
        "resourceType": "Observation",
        "id": "563ac415-f860-4214-9a37-b012d4519871",
        "meta": {
          "profile": [
            "http://hl7.eu/fhir/laboratory/StructureDefinition/Observation-resultslab-eu-lab"
          ]
        },
        "performer": [
          {
            "display": "The Central European Lab"
          }
        ],
        "category": [
          {
            "coding": [
              {
                "system": "http://terminology.hl7.org/CodeSystem/observation-category",
                "code": "laboratory"
              }
            ]
          }
        ],
        "code": {
          "coding": [
            {
              "code": "49765-1",
              "system": "http://loinc.org",
              "display": "Calcium [Mass/volume] in Blood"
            }
          ],
          "text": "Calcium [Mass/volume] in Blood"
        },
        "valueQuantity": {
          "system": "http://unitsofmeasure.org",
          "value": 8.7,
          "unit": "mg/dL",
          "code": "mg/dL"
        },
        "referenceRange": [
          {
            "low": {
              "value": 8.5,
              "code": "mg/dL",
              "system": "http://unitsofmeasure.org"
            }
          },
          {
            "high": {
              "value": 10.4,
              "code": "mg/dL",
              "system": "http://unitsofmeasure.org"
            }
          }
        ],
        "text": {
          "status": "generated",
          "div": "<div xmlns=\"http://www.w3.org/1999/xhtml\"><table class=\"hl7__eu__lab__report\"><tr><th>Test</th><th>07-Feb-2019</th><th>Reference&#xA0;Range</th><th>Unit</th></tr><tr><td>Calcium [Mass/volume] in Blood</td><td>8.7</td><td>8.5 - 10.4</td><td></td><td>mg/dL</td></tr></table></div>"
        },
        "status": "final",
        "subject": {
          "reference": "urn:uuid:8da815ca-6a35-4376-b9e8-9793b3314367",
          "display": "Vincenza Porzio"
        },
        "effectiveDateTime": "2019-02-07T18:51:27Z",
        "specimen": {
          "reference": "urn:uuid:c38be91f-1b6d-4ec2-93a5-9852f7715b50"
        }
      }
    },
    {
      "fullUrl": "urn:uuid:93f1827d-443f-4ec1-82c3-258b8ef13b8a",
      "resource": {
        "resourceType": "Observation",
        "id": "93f1827d-443f-4ec1-82c3-258b8ef13b8a",
        "meta": {
          "profile": [
            "http://hl7.eu/fhir/laboratory/StructureDefinition/Observation-resultslab-eu-lab"
          ]
        },
        "performer": [
          {
            "display": "The Central European Lab"
          }
        ],
        "category": [
          {
            "coding": [
              {
                "system": "http://terminology.hl7.org/CodeSystem/observation-category",
                "code": "laboratory"
              }
            ]
          }
        ],
        "code": {
          "coding": [
            {
              "code": "2947-0",
              "system": "http://loinc.org",
              "display": "Sodium [Moles/volume] in Blood"
            }
          ],
          "text": "Sodium [Moles/volume] in Blood"
        },
        "valueQuantity": {
          "system": "http://unitsofmeasure.org",
          "value": 142.2,
          "unit": "mmol/L",
          "code": "mmol/L"
        },
        "referenceRange": [
          {
            "low": {
              "value": 135,
              "code": "mmol/L",
              "system": "http://unitsofmeasure.org"
            }
          },
          {
            "high": {
              "value": 145,
              "code": "mmol/L",
              "system": "http://unitsofmeasure.org"
            }
          }
        ],
        "text": {
          "status": "generated",
          "div": "<div xmlns=\"http://www.w3.org/1999/xhtml\"><table class=\"hl7__eu__lab__report\"><tr><th>Test</th><th>07-Feb-2019</th><th>Reference&#xA0;Range</th><th>Unit</th></tr><tr><td>Sodium [Moles/volume] in Blood</td><td>142.2</td><td>135 - 145</td><td></td><td>mmol/L</td></tr></table></div>"
        },
        "status": "final",
        "subject": {
          "reference": "urn:uuid:8da815ca-6a35-4376-b9e8-9793b3314367",
          "display": "Vincenza Porzio"
        },
        "effectiveDateTime": "2019-02-07T18:51:27Z",
        "specimen": {
          "reference": "urn:uuid:c38be91f-1b6d-4ec2-93a5-9852f7715b50"
        }
      }
    },
    {
      "fullUrl": "urn:uuid:1fb6bf8f-1631-4a97-9f09-9aecf6fa7d46",
      "resource": {
        "resourceType": "Observation",
        "id": "1fb6bf8f-1631-4a97-9f09-9aecf6fa7d46",
        "meta": {
          "profile": [
            "http://hl7.eu/fhir/laboratory/StructureDefinition/Observation-resultslab-eu-lab"
          ]
        },
        "performer": [
          {
            "display": "The Central European Lab"
          }
        ],
        "category": [
          {
            "coding": [
              {
                "system": "http://terminology.hl7.org/CodeSystem/observation-category",
                "code": "laboratory"
              }
            ]
          }
        ],
        "code": {
          "coding": [
            {
              "code": "6298-4",
              "system": "http://loinc.org",
              "display": "Potassium [Moles/volume] in Blood"
            }
          ],
          "text": "Potassium [Moles/volume] in Blood"
        },
        "valueQuantity": {
          "system": "http://unitsofmeasure.org",
          "value": 3.7,
          "unit": "mmol/L",
          "code": "mmol/L"
        },
        "referenceRange": [
          {
            "low": {
              "value": 3.5,
              "code": "mmol/L",
              "system": "http://unitsofmeasure.org"
            }
          },
          {
            "high": {
              "value": 5.1,
              "code": "mmol/L",
              "system": "http://unitsofmeasure.org"
            }
          }
        ],
        "text": {
          "status": "generated",
          "div": "<div xmlns=\"http://www.w3.org/1999/xhtml\"><table class=\"hl7__eu__lab__report\"><tr><th>Test</th><th>07-Feb-2019</th><th>Reference&#xA0;Range</th><th>Unit</th></tr><tr><td>Potassium [Moles/volume] in Blood</td><td>3.7</td><td>3.5 - 5.1</td><td></td><td>mmol/L</td></tr></table></div>"
        },
        "status": "final",
        "subject": {
          "reference": "urn:uuid:8da815ca-6a35-4376-b9e8-9793b3314367",
          "display": "Vincenza Porzio"
        },
        "effectiveDateTime": "2019-02-07T18:51:27Z",
        "specimen": {
          "reference": "urn:uuid:c38be91f-1b6d-4ec2-93a5-9852f7715b50"
        }
      }
    },
    {
      "fullUrl": "urn:uuid:d068bb4a-731b-4cda-a3fe-ed851ba373a2",
      "resource": {
        "resourceType": "Observation",
        "id": "d068bb4a-731b-4cda-a3fe-ed851ba373a2",
        "meta": {
          "profile": [
            "http://hl7.eu/fhir/laboratory/StructureDefinition/Observation-resultslab-eu-lab"
          ]
        },
        "performer": [
          {
            "display": "The Central European Lab"
          }
        ],
        "category": [
          {
            "coding": [
              {
                "system": "http://terminology.hl7.org/CodeSystem/observation-category",
                "code": "laboratory"
              }
            ]
          }
        ],
        "code": {
          "coding": [
            {
              "code": "2069-3",
              "system": "http://loinc.org",
              "display": "Chloride [Moles/volume] in Blood"
            }
          ],
          "text": "Chloride [Moles/volume] in Blood"
        },
        "valueQuantity": {
          "system": "http://unitsofmeasure.org",
          "value": 105.1,
          "unit": "mmol/L",
          "code": "mmol/L"
        },
        "referenceRange": [
          {
            "low": {
              "value": 98,
              "code": "mmol/L",
              "system": "http://unitsofmeasure.org"
            }
          },
          {
            "high": {
              "value": 108,
              "code": "mmol/L",
              "system": "http://unitsofmeasure.org"
            }
          }
        ],
        "text": {
          "status": "generated",
          "div": "<div xmlns=\"http://www.w3.org/1999/xhtml\"><table class=\"hl7__eu__lab__report\"><tr><th>Test</th><th>07-Feb-2019</th><th>Reference&#xA0;Range</th><th>Unit</th></tr><tr><td>Chloride [Moles/volume] in Blood</td><td>105.1</td><td>98 - 108</td><td></td><td>mmol/L</td></tr></table></div>"
        },
        "status": "final",
        "subject": {
          "reference": "urn:uuid:8da815ca-6a35-4376-b9e8-9793b3314367",
          "display": "Vincenza Porzio"
        },
        "effectiveDateTime": "2019-02-07T18:51:27Z",
        "specimen": {
          "reference": "urn:uuid:c38be91f-1b6d-4ec2-93a5-9852f7715b50"
        }
      }
    },
    {
      "fullUrl": "urn:uuid:e2de0623-85dc-4790-89e8-3bf6149e9167",
      "resource": {
        "resourceType": "Observation",
        "id": "e2de0623-85dc-4790-89e8-3bf6149e9167",
        "meta": {
          "profile": [
            "http://hl7.eu/fhir/laboratory/StructureDefinition/Observation-resultslab-eu-lab"
          ]
        },
        "performer": [
          {
            "display": "The Central European Lab"
          }
        ],
        "category": [
          {
            "coding": [
              {
                "system": "http://terminology.hl7.org/CodeSystem/observation-category",
                "code": "laboratory"
              }
            ]
          }
        ],
        "code": {
          "coding": [
            {
              "code": "20565-8",
              "system": "http://loinc.org",
              "display": "Carbon dioxide, total [Moles/volume] in Blood"
            }
          ],
          "text": "Carbon dioxide, total [Moles/volume] in Blood"
        },
        "valueQuantity": {
          "system": "http://unitsofmeasure.org",
          "value": 20.4,
          "unit": "mmol/L",
          "code": "mmol/L"
        },
        "referenceRange": [
          {
            "low": {
              "value": 22,
              "code": "mmol/L",
              "system": "http://unitsofmeasure.org"
            }
          },
          {
            "high": {
              "value": 29,
              "code": "mmol/L",
              "system": "http://unitsofmeasure.org"
            }
          }
        ],
        "interpretation": [
          {
            "coding": [
              {
                "code": "L",
                "system": "http://terminology.hl7.org/CodeSystem/v3-ObservationInterpretation",
                "display": "Low"
              }
            ]
          }
        ],
        "text": {
          "status": "generated",
          "div": "<div xmlns=\"http://www.w3.org/1999/xhtml\"><table class=\"hl7__eu__lab__report\"><tr><th>Test</th><th>07-Feb-2019</th><th>Reference&#xA0;Range</th><th>Unit</th></tr><tr><td>Carbon dioxide, total [Moles/volume] in Blood</td><td>20.4</td><td>22 - 29</td><td>L</td><td>mmol/L</td></tr></table></div>"
        },
        "status": "final",
        "subject": {
          "reference": "urn:uuid:8da815ca-6a35-4376-b9e8-9793b3314367",
          "display": "Vincenza Porzio"
        },
        "effectiveDateTime": "2019-02-07T18:51:27Z",
        "specimen": {
          "reference": "urn:uuid:c38be91f-1b6d-4ec2-93a5-9852f7715b50"
        }
      }
    },
    {
      "fullUrl": "urn:uuid:9ce29c9e-d804-4eda-81f1-144b2f8da1a6",
      "resource": {
        "resourceType": "Device",
        "id": "9ce29c9e-d804-4eda-81f1-144b2f8da1a6",
        "deviceName": [
          {
            "name": "SYNDERAI Synthetic Generator",
            "type": "manufacturer-name"
          }
        ],
        "version": [
          {
            "value": "5.0"
          }
        ],
        "text": {
          "status": "generated",
          "div": "<div xmlns=\"http://www.w3.org/1999/xhtml\">SYNDERAI Synthetic Generator v5.0</div>"
        },
        "status": "active\"",
        "distinctIdentifier": "synderai-generator-50",
        "manufacturer": "SYNDERAI Project"
      }
    },
    {
      "fullUrl": "urn:uuid:3743b40f-d7bf-423d-b77c-b8a1a8ac2f8a",
      "resource": {
        "resourceType": "Provenance",
        "id": "3743b40f-d7bf-423d-b77c-b8a1a8ac2f8a",
        "target": [
          {
            "reference": "Patient/8da815ca-6a35-4376-b9e8-9793b3314367"
          },
          {
            "reference": "Bundle/54a916f6-06ca-4cd2-964e-fda5ba58d369"
          },
          {
            "reference": "Composition/3f62ec4e-1c68-4553-a55c-6249fc26fa07"
          },
          {
            "reference": "PractitionerRole/acc79d8e-a3b7-4389-9fc7-40f7298eb38b"
          },
          {
            "reference": "Practitioner/c2bba698-3861-48d1-9194-5f7f622c715a"
          },
          {
            "reference": "PractitionerRole/3031ad9b-74f4-480c-86ec-4f5894b27698"
          },
          {
            "reference": "Organization/8bf40e9e-da23-4fa7-8c86-def92bee6f03"
          }
        ],
        "activity": {
          "text": "Synthetic Example Data Generation"
        },
        "policy": [
          "https://synderai.net/synderai-synthetic-data-policy"
        ],
        "agent": [
          {
            "type": {
              "text": "author"
            },
            "who": {
              "reference": "Device/9ce29c9e-d804-4eda-81f1-144b2f8da1a6"
            }
          }
        ],
        "reason": [
          {
            "text": "Interoperability Testing and Training (non-clinical use)"
          }
        ],
        "text": {
          "status": "generated",
          "div": "<div xmlns=\"http://www.w3.org/1999/xhtml\">Provenance for SYNDERAI Synthetic Example Data Resource</div>"
        },
        "recorded": "2019-02-07T19:51:27Z"
      }
    },
    {
      "fullUrl": "urn:uuid:acc79d8e-a3b7-4389-9fc7-40f7298eb38b",
      "resource": {
        "resourceType": "PractitionerRole",
        "id": "acc79d8e-a3b7-4389-9fc7-40f7298eb38b",
        "meta": {
          "profile": [
            "http://hl7.eu/fhir/base/StructureDefinition/practitionerRole-eu"
          ]
        },
        "text": {
          "status": "generated",
          "div": "<div xmlns=\"http://www.w3.org/1999/xhtml\">Laboratory Role Id: acc79d8e-a3b7-4389-9fc7-40f7298eb38b</div>"
        },
        "practitioner": {
          "reference": "urn:uuid:c2bba698-3861-48d1-9194-5f7f622c715a"
        }
      }
    },
    {
      "fullUrl": "urn:uuid:c2bba698-3861-48d1-9194-5f7f622c715a",
      "resource": {
        "resourceType": "Practitioner",
        "id": "c2bba698-3861-48d1-9194-5f7f622c715a",
        "meta": {
          "profile": [
            "http://hl7.eu/fhir/base/StructureDefinition/practitioner-eu"
          ]
        },
        "identifier": [
          {
            "assigner": {
              "display": "HL7 Europe"
            },
            "system": "urn:oid:2.16.840.1.113883.2.51.999",
            "value": "bb6612ae-1c2e-471f-92a3-3da80ae6bc3e"
          }
        ],
        "name": [
          {
            "prefix": [
              "dr"
            ],
            "given": [
              "Ex"
            ],
            "family": "Ample"
          }
        ],
        "address": [
          {
            "line": [
              "Laboratoire Central Européenne",
              "Boulevard du Jardin Botanique 32"
            ],
            "postalCode": "1000",
            "city": "Brussels",
            "country": "Belgium"
          }
        ],
        "text": {
          "status": "generated",
          "div": "<div xmlns=\"http://www.w3.org/1999/xhtml\">Laboratory: Laboratoire Central Européenne, 1000 Brussels, Belgium</div>"
        }
      }
    }
  ],
  "type": "document",
  "timestamp": "2019-02-07T19:51:27Z"
}
