{
  "resourceType": "Bundle",
  "id": "851fad55-6c3f-49c6-9d36-46afa4a3d028",
  "meta": {
    "profile": [
      "http://hl7.eu/fhir/laboratory/StructureDefinition/Bundle-eu-lab"
    ]
  },
  "identifier": {
    "assigner": {
      "display": "HL7 Europe"
    },
    "system": "urn:oid:2.16.840.1.113883.2.51.999",
    "value": "6188f8ce-9a4b-4f54-9188-d00e963402b4"
  },
  "entry": [
    {
      "fullUrl": "urn:uuid:07dd8cdf-32b6-4457-a26e-440c52e25537",
      "resource": {
        "resourceType": "Composition",
        "id": "07dd8cdf-32b6-4457-a26e-440c52e25537",
        "meta": {
          "profile": [
            "http://hl7.eu/fhir/laboratory/StructureDefinition/Composition-eu-lab"
          ]
        },
        "identifier": {
          "assigner": {
            "display": "HL7 Europe"
          },
          "system": "urn:oid:2.16.840.1.113883.2.51.999",
          "value": "7b86536d-afc4-430a-a121-228b9c839ab4"
        },
        "author": [
          {
            "reference": "urn:uuid:12b07121-8dfa-4ef5-ae15-d88f099895ad"
          }
        ],
        "category": [
          {
            "coding": [
              {
                "code": "26436-6",
                "system": "http://loinc.org",
                "display": "Laboratory studies (set)"
              }
            ]
          }
        ],
        "type": {
          "coding": [
            {
              "code": "11502-2",
              "system": "http://loinc.org",
              "display": "Laboratory report"
            }
          ],
          "text": "Laboratory Report"
        },
        "section": [
          {
            "code": {
              "coding": [
                {
                  "code": "26436-6",
                  "system": "http://loinc.org",
                  "display": "Laboratory studies (set)"
                }
              ],
              "text": "Laboratory studies"
            },
            "section": [
              {
                "code": {
                  "coding": [
                    {
                      "code": "$18719-5",
                      "system": "http://loinc.org",
                      "display": "Chemistry studies (set)"
                    }
                  ],
                  "text": "Chemistry"
                },
                "entry": [
                  {
                    "reference": "urn:uuid:955245bc-2ecb-4485-97e7-2ab076355679"
                  },
                  {
                    "reference": "urn:uuid:d5516a56-1ea9-43c7-ad93-99602763a500"
                  },
                  {
                    "reference": "urn:uuid:b61a6225-8978-4b1b-98fa-e39fe98a010b"
                  },
                  {
                    "reference": "urn:uuid:8359e44b-8953-44c6-9a87-b07ea24b7178"
                  },
                  {
                    "reference": "urn:uuid:c8caf741-3e03-4817-b144-e6b3ca128a2a"
                  },
                  {
                    "reference": "urn:uuid:779d1831-3da9-42f1-986a-5893046a5feb"
                  },
                  {
                    "reference": "urn:uuid:098929fc-de0c-4166-bbdb-84312ed43f77"
                  },
                  {
                    "reference": "urn:uuid:da9166c4-72cd-4cf7-8168-a5af2d7611da"
                  },
                  {
                    "reference": "urn:uuid:f555a2ba-4fe9-473a-adb1-4b3063c8b01a"
                  },
                  {
                    "reference": "urn:uuid:d24f9874-1a77-4155-acb9-9d3684c8b742"
                  },
                  {
                    "reference": "urn:uuid:da8a2a95-f93e-4ad3-8195-ac9f1ac09cf1"
                  },
                  {
                    "reference": "urn:uuid:e144a41a-7d25-4d65-9e7b-d4292fc45306"
                  },
                  {
                    "reference": "urn:uuid:e0538f8e-6fca-4667-b3b6-dac59286c262"
                  },
                  {
                    "reference": "urn:uuid:0d7aee4c-5ac1-4852-a8ae-b3770cc3eb03"
                  },
                  {
                    "reference": "urn:uuid:6ac85e53-8caf-458e-b3a6-395f6137ad74"
                  },
                  {
                    "reference": "urn:uuid:a9b206f9-7b5b-49b0-8692-27e62f51ac1b"
                  }
                ],
                "text": {
                  "status": "generated",
                  "div": "<div xmlns=\"http://www.w3.org/1999/xhtml\"><h3>Chemistry</h3><table class=\"hl7__eu__lab__report\"><thead><tr><th>Test</th><th>26-MAY-2017</th><th>Reference&#xA0;Range</th><th>Unit</th></tr></thead><tbody><tr><td>Glucose [Mass/volume] in Blood</td><td>80.2</td><td>70 - 140</td><td>mg/dL</td></tr><tr><td>Urea nitrogen [Mass/volume] in Blood</td><td>19.0</td><td>7 - 30</td><td>mg/dL</td></tr><tr><td>Creatinine [Mass/volume] in Blood</td><td><strong>3.0 H</strong></td><td>0.5 - 1.3</td><td>mg/dL</td></tr><tr><td>Calcium [Mass/volume] in Blood</td><td><strong>8.5 L</strong></td><td>8.6 - 10.2</td><td>mg/dL</td></tr><tr><td>Sodium [Moles/volume] in Blood</td><td>141.3</td><td>135 - 145</td><td>mmol/L</td></tr><tr><td>Potassium [Moles/volume] in Blood</td><td>4.2</td><td>3.5 - 5.1</td><td>mmol/L</td></tr><tr><td>Chloride [Moles/volume] in Blood</td><td>108.0</td><td>98 - 114</td><td>mmol/L</td></tr><tr><td>Carbon dioxide, total [Moles/volume] in Blood</td><td><strong>21.6 L</strong></td><td>22 - 32</td><td>mmol/L</td></tr><tr><td>Protein [Mass/volume] in Serum or Plasma</td><td>7.2</td><td>6 - 8.3</td><td>g/dL</td></tr><tr><td>Albumin [Mass/volume] in Serum or Plasma</td><td>4.3</td><td>3.5 - 5.5</td><td>g/dL</td></tr><tr><td>Globulin [Mass/volume] in Serum by calculation</td><td>2.6</td><td>2 - 3.5</td><td>g/L</td></tr><tr><td>Bilirubin.total [Mass/volume] in Serum or Plasma</td><td>0.7</td><td>0.3 - 1.2</td><td>mg/dL</td></tr><tr><td>Alkaline phosphatase [Enzymatic activity/volume] in Serum or Plasma</td><td><strong>42.4 L</strong></td><td>44 - 142</td><td>U/L</td></tr><tr><td>Alanine aminotransferase [Enzymatic activity/volume] in Serum or Plasma</td><td><strong>51.0 H</strong></td><td>7 - 40</td><td>U/L</td></tr><tr><td>Aspartate aminotransferase [Enzymatic activity/volume] in Serum or Plasma</td><td>16.6</td><td>10 - 40</td><td>U/L</td></tr><tr><td>Ketones [Presence] in Urine by Test strip</td><td>Urine ketone test = +++</td><td></td><td></td></tr></tbody></table></div>"
                },
                "title": "Chemistry"
              },
              {
                "code": {
                  "coding": [
                    {
                      "code": "$18729-4",
                      "system": "http://loinc.org",
                      "display": "Urinalysis studies (set)"
                    }
                  ],
                  "text": "Urinalysis"
                },
                "entry": [
                  {
                    "reference": "urn:uuid:3c7ff922-bb73-43e9-90f4-972050328d22"
                  },
                  {
                    "reference": "urn:uuid:02629f66-b170-4754-b5cc-fcaeba03482a"
                  },
                  {
                    "reference": "urn:uuid:aa42955e-8c1c-463c-87e5-6a52bc213d5e"
                  },
                  {
                    "reference": "urn:uuid:20187d77-f67f-4d08-ba78-fa66c09882ff"
                  },
                  {
                    "reference": "urn:uuid:a6c37cfb-fa56-4a74-b3cc-3dd77e58414a"
                  },
                  {
                    "reference": "urn:uuid:dceea471-7003-48ca-866e-11e8e561b473"
                  },
                  {
                    "reference": "urn:uuid:6174c386-743d-4096-bb41-750b790a2d59"
                  },
                  {
                    "reference": "urn:uuid:6bc21483-b9d4-44a0-9da7-cd6929bf9836"
                  },
                  {
                    "reference": "urn:uuid:2d94695f-6a45-495b-a200-d3d7b8ed8f93"
                  },
                  {
                    "reference": "urn:uuid:ee38b843-9500-44e7-b8a3-a9eacb95a5c1"
                  },
                  {
                    "reference": "urn:uuid:30252794-7606-4548-bbe6-1764d6ea5671"
                  },
                  {
                    "reference": "urn:uuid:95ae3b33-0edc-49f4-bb94-d4661790fc84"
                  }
                ],
                "text": {
                  "status": "generated",
                  "div": "<div xmlns=\"http://www.w3.org/1999/xhtml\"><h3>Urinalysis</h3><table class=\"hl7__eu__lab__report\"><thead><tr><th>Test</th><th>26-MAY-2017</th><th>Reference&#xA0;Range</th><th>Unit</th></tr></thead><tbody><tr><td>Glucose [Mass/volume] in Urine by Test strip</td><td><strong>1.9 H</strong></td><td>0.8 - 0</td><td>mg/dL</td></tr><tr><td>Glucose [Presence] in Urine by Test strip</td><td>++</td><td></td><td></td></tr><tr><td>Bilirubin.total [Mass/volume] in Urine by Test strip</td><td>0.3</td><td>0 - 1.5</td><td>mg/dL</td></tr><tr><td>Bilirubin.total [Presence] in Urine by Test strip</td><td>Finding of bilirubin in urine</td><td></td><td></td></tr><tr><td>Ketones [Mass/volume] in Urine by Test strip</td><td><strong>17.5 H</strong></td><td>0 - 8</td><td>mg/dL</td></tr><tr><td>Specific gravity of Urine by Test strip</td><td><strong>1.0 L</strong></td><td>1.01 - 1.03</td><td>{nominal}</td></tr><tr><td>pH of Urine by Test strip</td><td>6.5</td><td>4.6 - 7.5</td><td>pH</td></tr><tr><td>Protein [Mass/volume] in Urine by Test strip</td><td><strong>344.5 H</strong></td><td>0 - 14</td><td>mg/dL</td></tr><tr><td>Protein [Presence] in Urine by Test strip</td><td>Urine protein test = +++</td><td></td><td></td></tr><tr><td>Nitrite [Presence] in Urine by Test strip</td><td>Urine nitrite negative</td><td></td><td></td></tr><tr><td>Hemoglobin [Presence] in Urine by Test strip</td><td>Urine blood test = negative</td><td></td><td></td></tr><tr><td>Leukocyte esterase [Presence] in Urine by Test strip</td><td>Urine leukocyte test negative</td><td></td><td></td></tr></tbody></table></div>"
                },
                "title": "Urinalysis"
              },
              {
                "code": {
                  "coding": [
                    {
                      "code": "$LP7846-1",
                      "system": "http://loinc.org",
                      "display": "Specimen information"
                    }
                  ],
                  "text": "Specimen information"
                },
                "entry": [
                  {
                    "reference": "urn:uuid:1a82d1d4-59af-4060-b3bc-ae06e00505cd"
                  },
                  {
                    "reference": "urn:uuid:080ae504-3fe6-4455-8355-3785f0e13b83"
                  },
                  {
                    "reference": "urn:uuid:67bfe211-4d95-4630-95de-f1744e5f9360"
                  },
                  {
                    "reference": "urn:uuid:45188963-cbcd-46e3-8867-7b8652783c2b"
                  }
                ],
                "text": {
                  "status": "generated",
                  "div": "<div xmlns=\"http://www.w3.org/1999/xhtml\"><h3>Specimen information</h3><table class=\"hl7__eu__lab__report\"><thead><tr><th>Test</th><th>26-MAY-2017</th><th>Specimen</th><th></th></tr></thead><tbody><tr><td>Appearance of Urine</td><td>Cloudy urine</td><td>Urine</td><td></td></tr><tr><td>Odor of Urine</td><td>Urine smell ammoniacal</td><td>Urine</td><td></td></tr><tr><td>Clarity of Urine</td><td>Translucent</td><td>Urine</td><td></td></tr><tr><td>Color of Urine</td><td>Brown color</td><td>Urine</td><td></td></tr></tbody></table></div>"
                },
                "title": "Specimen information"
              }
            ],
            "title": "Laboratory Report"
          },
          {
            "text": {
              "status": "generated",
              "div": "<div xmlns=\"http://www.w3.org/1999/xhtml\"><h3>Annotation</h3><table class=\"hl7__eu__lab__report\"><tr><th>Conclusion and Recommendations based on this report and previous findings known to us</th></tr><tr><td>The patient shows markedly elevated creatinine, proteinuria, glucosuria, and ketonuria, suggesting significant renal impairment and possible diabetic ketoacidosis. Mildly low calcium, low total CO₂, and elevated ALT indicate possible metabolic acidosis and mild liver involvement. Urine is cloudy, brown, with low specific gravity, but no evidence of infection. Prompt clinical evaluation for acute or chronic kidney disease and metabolic derangements is recommended.</td></tr></table></div>"
            },
            "code": {
              "coding": [
                {
                  "system": "http://loinc.org",
                  "code": "48767-8",
                  "display": "Annotation comment"
                }
              ]
            },
            "title": "Annotation comment"
          }
        ],
        "status": "final",
        "subject": {
          "reference": "urn:uuid:de14cc27-e427-44b3-a719-ed7e79afd6dd",
          "display": "Maria Nohlmans"
        },
        "date": "2017-05-26T11:25:39Z",
        "title": "Laboratory Report",
        "confidentiality": "N"
      }
    },
    {
      "fullUrl": "urn:uuid:217bc0c6-0989-4ef8-bcbb-dc33a824f923",
      "resource": {
        "resourceType": "DiagnosticReport",
        "id": "217bc0c6-0989-4ef8-bcbb-dc33a824f923",
        "meta": {
          "profile": [
            "http://hl7.eu/fhir/laboratory/StructureDefinition/DiagnosticReport-eu-lab"
          ]
        },
        "identifier": [
          {
            "assigner": {
              "display": "HL7 Europe"
            },
            "system": "urn:oid:2.16.840.1.113883.2.51.999",
            "value": "829c45f9-b38b-4d5c-b4dc-14eefcbbd20e"
          }
        ],
        "extension": [
          {
            "url": "http://hl7.org/fhir/5.0/StructureDefinition/extension-DiagnosticReport.composition",
            "valueReference": {
              "reference": "urn:uuid:7b86536d-afc4-430a-a121-228b9c839ab4"
            }
          }
        ],
        "category": [
          {
            "coding": [
              {
                "code": "26436-6",
                "system": "http://loinc.org",
                "display": "Laboratory studies (set)"
              }
            ]
          }
        ],
        "specimen": [
          {
            "reference": "urn:uuid:48f2260f-1fdd-42e6-a6be-64ebacd2549b"
          },
          {
            "reference": "urn:uuid:8dee14d1-ff76-4607-99ab-1d477e4e3008"
          },
          {
            "reference": "urn:uuid:5b642c1a-6d58-4cf8-af7b-ed6e51d4e350"
          },
          {
            "reference": "urn:uuid:41f2861d-c6f9-4cfe-91a3-1b0eba17fb62"
          }
        ],
        "result": [
          {
            "reference": "urn:uuid:955245bc-2ecb-4485-97e7-2ab076355679"
          },
          {
            "reference": "urn:uuid:d5516a56-1ea9-43c7-ad93-99602763a500"
          },
          {
            "reference": "urn:uuid:b61a6225-8978-4b1b-98fa-e39fe98a010b"
          },
          {
            "reference": "urn:uuid:8359e44b-8953-44c6-9a87-b07ea24b7178"
          },
          {
            "reference": "urn:uuid:c8caf741-3e03-4817-b144-e6b3ca128a2a"
          },
          {
            "reference": "urn:uuid:779d1831-3da9-42f1-986a-5893046a5feb"
          },
          {
            "reference": "urn:uuid:098929fc-de0c-4166-bbdb-84312ed43f77"
          },
          {
            "reference": "urn:uuid:da9166c4-72cd-4cf7-8168-a5af2d7611da"
          },
          {
            "reference": "urn:uuid:f555a2ba-4fe9-473a-adb1-4b3063c8b01a"
          },
          {
            "reference": "urn:uuid:d24f9874-1a77-4155-acb9-9d3684c8b742"
          },
          {
            "reference": "urn:uuid:da8a2a95-f93e-4ad3-8195-ac9f1ac09cf1"
          },
          {
            "reference": "urn:uuid:e144a41a-7d25-4d65-9e7b-d4292fc45306"
          },
          {
            "reference": "urn:uuid:e0538f8e-6fca-4667-b3b6-dac59286c262"
          },
          {
            "reference": "urn:uuid:0d7aee4c-5ac1-4852-a8ae-b3770cc3eb03"
          },
          {
            "reference": "urn:uuid:6ac85e53-8caf-458e-b3a6-395f6137ad74"
          },
          {
            "reference": "urn:uuid:1a82d1d4-59af-4060-b3bc-ae06e00505cd"
          },
          {
            "reference": "urn:uuid:080ae504-3fe6-4455-8355-3785f0e13b83"
          },
          {
            "reference": "urn:uuid:67bfe211-4d95-4630-95de-f1744e5f9360"
          },
          {
            "reference": "urn:uuid:45188963-cbcd-46e3-8867-7b8652783c2b"
          },
          {
            "reference": "urn:uuid:3c7ff922-bb73-43e9-90f4-972050328d22"
          },
          {
            "reference": "urn:uuid:02629f66-b170-4754-b5cc-fcaeba03482a"
          },
          {
            "reference": "urn:uuid:aa42955e-8c1c-463c-87e5-6a52bc213d5e"
          },
          {
            "reference": "urn:uuid:20187d77-f67f-4d08-ba78-fa66c09882ff"
          },
          {
            "reference": "urn:uuid:a6c37cfb-fa56-4a74-b3cc-3dd77e58414a"
          },
          {
            "reference": "urn:uuid:a9b206f9-7b5b-49b0-8692-27e62f51ac1b"
          },
          {
            "reference": "urn:uuid:dceea471-7003-48ca-866e-11e8e561b473"
          },
          {
            "reference": "urn:uuid:6174c386-743d-4096-bb41-750b790a2d59"
          },
          {
            "reference": "urn:uuid:6bc21483-b9d4-44a0-9da7-cd6929bf9836"
          },
          {
            "reference": "urn:uuid:2d94695f-6a45-495b-a200-d3d7b8ed8f93"
          },
          {
            "reference": "urn:uuid:ee38b843-9500-44e7-b8a3-a9eacb95a5c1"
          },
          {
            "reference": "urn:uuid:30252794-7606-4548-bbe6-1764d6ea5671"
          },
          {
            "reference": "urn:uuid:95ae3b33-0edc-49f4-bb94-d4661790fc84"
          }
        ],
        "status": "registered",
        "code": {
          "coding": [
            {
              "code": "11502-2",
              "system": "http://loinc.org",
              "display": "Laboratory report"
            }
          ]
        },
        "subject": {
          "reference": "urn:uuid:de14cc27-e427-44b3-a719-ed7e79afd6dd",
          "display": "Maria Nohlmans"
        }
      }
    },
    {
      "fullUrl": "urn:uuid:de14cc27-e427-44b3-a719-ed7e79afd6dd",
      "resource": {
        "resourceType": "Patient",
        "id": "de14cc27-e427-44b3-a719-ed7e79afd6dd",
        "meta": {
          "security": [
            {
              "system": "http://terminology.hl7.org/CodeSystem/v3-ActReason",
              "code": "HTEST"
            },
            {
              "system": "http://terminology.hl7.org/CodeSystem/v3-ActReason",
              "code": "TRAIN"
            }
          ],
          "tag": [
            {
              "system": "https://synderai.net/fhir/CodeSystem/tags",
              "code": "synthetic",
              "display": "SYNDERAI Synthetic data"
            }
          ],
          "profile": [
            "http://hl7.eu/fhir/base/StructureDefinition/patient-eu-core"
          ]
        },
        "identifier": [
          {
            "type": {
              "coding": [
                {
                  "code": "PT",
                  "system": "http://terminology.hl7.org/CodeSystem/v2-0203"
                }
              ]
            },
            "system": "http://ec.europa.eu/identifier/eci",
            "value": "6886-506417-1"
          },
          {
            "type": {
              "coding": [
                {
                  "code": "MR",
                  "system": "http://terminology.hl7.org/CodeSystem/v2-0203"
                }
              ]
            },
            "system": "http://local.setting.eu/identifier",
            "value": "2cb21ed6-b617-b1f3-2290-589a710de5ee"
          }
        ],
        "name": [
          {
            "family": "Nohlmans"
          },
          {
            "given": [
              "Maria"
            ]
          },
          {
            "text": "Maria Nohlmans"
          }
        ],
        "address": [
          {
            "line": [
              "Alfons-Wulff-Weg 1"
            ],
            "use": "home",
            "type": "physical",
            "postalCode": "25813",
            "city": "Husum",
            "country": "Germany"
          }
        ],
        "telecom": [
          {
            "system": "phone",
            "value": "+49(0)1911 105501"
          }
        ],
        "extension": [
          {
            "url": "http://hl7.org/fhir/StructureDefinition/patient-nationality",
            "valueCodeableConcept": {
              "coding": [
                {
                  "code": "DE",
                  "system": "http://hl7.org/fhir/ValueSet/country"
                }
              ]
            }
          }
        ],
        "text": {
          "status": "generated",
          "div": "<div xmlns=\"http://www.w3.org/1999/xhtml\"><table class=\"hl7__ips\"><tr><td>Maria Nohlmans</td><td>female</td><td>11-Jun-1947</td></tr></table></div>"
        },
        "gender": "female",
        "birthDate": "1947-06-11"
      }
    },
    {
      "fullUrl": "urn:uuid:f373e3e1-629c-4485-865a-0d63989117f1",
      "resource": {
        "resourceType": "ServiceRequest",
        "id": "f373e3e1-629c-4485-865a-0d63989117f1",
        "meta": {
          "profile": [
            "http://hl7.eu/fhir/laboratory/StructureDefinition/ServiceRequest-eu-lab"
          ]
        },
        "identifier": [
          {
            "system": "http://example.org",
            "value": "d69fd956-9aac-4cbe-9968-5a6d792a19f2"
          }
        ],
        "specimen": [
          {
            "reference": "urn:uuid:48f2260f-1fdd-42e6-a6be-64ebacd2549b"
          },
          {
            "reference": "urn:uuid:8dee14d1-ff76-4607-99ab-1d477e4e3008"
          },
          {
            "reference": "urn:uuid:5b642c1a-6d58-4cf8-af7b-ed6e51d4e350"
          },
          {
            "reference": "urn:uuid:41f2861d-c6f9-4cfe-91a3-1b0eba17fb62"
          }
        ],
        "reasonCode": [
          {
            "coding": [
              {
                "code": "401314000",
                "system": "http://snomed.info/sct",
                "display": "Acute non-ST segment elevation myocardial infarction"
              }
            ]
          },
          {
            "coding": [
              {
                "code": "157141000119108",
                "system": "http://snomed.info/sct",
                "display": "Proteinuria due to type 2 diabetes mellitus"
              }
            ]
          },
          {
            "coding": [
              {
                "code": "237602007",
                "system": "http://snomed.info/sct",
                "display": "Metabolic syndrome X"
              }
            ]
          },
          {
            "coding": [
              {
                "code": "90781000119102",
                "system": "http://snomed.info/sct",
                "display": "Microalbuminuria due to type 2 diabetes mellitus"
              }
            ]
          },
          {
            "coding": [
              {
                "code": "127013003",
                "system": "http://snomed.info/sct",
                "display": "Disorder of kidney due to diabetes mellitus"
              }
            ]
          },
          {
            "coding": [
              {
                "code": "59621000",
                "system": "http://snomed.info/sct",
                "display": "Essential hypertension"
              }
            ]
          },
          {
            "coding": [
              {
                "code": "271737000",
                "system": "http://snomed.info/sct",
                "display": "Anemia"
              }
            ]
          },
          {
            "coding": [
              {
                "code": "15777000",
                "system": "http://snomed.info/sct",
                "display": "Prediabetes"
              }
            ]
          }
        ],
        "status": "active",
        "intent": "order",
        "code": {
          "coding": [
            {
              "code": "108252007",
              "system": "http://snomed.info/sct",
              "display": "Laboratory procedure"
            }
          ]
        },
        "subject": {
          "reference": "urn:uuid:de14cc27-e427-44b3-a719-ed7e79afd6dd",
          "display": "Maria Nohlmans"
        },
        "requester": {
          "reference": "urn:uuid:fa3cd995-2c35-4b2f-bb81-aa312c1a1075"
        }
      }
    },
    {
      "fullUrl": "urn:uuid:fa3cd995-2c35-4b2f-bb81-aa312c1a1075",
      "resource": {
        "resourceType": "PractitionerRole",
        "id": "fa3cd995-2c35-4b2f-bb81-aa312c1a1075",
        "meta": {
          "profile": [
            "http://hl7.eu/fhir/base/StructureDefinition/practitionerRole-eu"
          ]
        },
        "text": {
          "status": "generated",
          "div": "<div xmlns=\"http://www.w3.org/1999/xhtml\">Provider Role Id: fa3cd995-2c35-4b2f-bb81-aa312c1a1075</div>"
        },
        "organization": {
          "reference": "urn:uuid:c95822ff-5e94-46be-a935-e2691a48d011"
        }
      }
    },
    {
      "fullUrl": "urn:uuid:c95822ff-5e94-46be-a935-e2691a48d011",
      "resource": {
        "resourceType": "Organization",
        "id": "c95822ff-5e94-46be-a935-e2691a48d011",
        "meta": {
          "profile": [
            "http://hl7.eu/fhir/base/StructureDefinition/organization-eu"
          ]
        },
        "identifier": [
          {
            "assigner": {
              "display": "HL7 Europe"
            },
            "system": "urn:oid:2.16.840.1.113883.2.51.999",
            "value": "87b99b1d-c784-4339-8b93-004685a70139"
          }
        ],
        "address": [
          {
            "line": [
              "Brinckmannstraße 35"
            ],
            "city": "Husum",
            "postalCode": "25813",
            "country": "Germany"
          }
        ],
        "text": {
          "status": "generated",
          "div": "<div xmlns=\"http://www.w3.org/1999/xhtml\">Provider Organization: Dr. Wolfram Hussels Kieferorthopäde</div>"
        },
        "name": "Dr. Wolfram Hussels Kieferorthopäde"
      }
    },
    {
      "fullUrl": "urn:uuid:48f2260f-1fdd-42e6-a6be-64ebacd2549b",
      "resource": {
        "resourceType": "Specimen",
        "id": "48f2260f-1fdd-42e6-a6be-64ebacd2549b",
        "meta": {
          "profile": [
            "http://hl7.eu/fhir/laboratory/StructureDefinition/Specimen-eu-lab"
          ]
        },
        "collection": {
          "collectedDateTime": "2017-05-26"
        },
        "text": {
          "status": "generated",
          "div": "<div xmlns=\"http://www.w3.org/1999/xhtml\"><table class=\"hl7__eu__lab__report\"><tr><th>Specimen</th><th>Collection Date</th></tr><tr><td>Whole blood specimen (specimen)</td><td><span class=\"nb\">26-May-2017</span></td></tr></table></div>"
        },
        "type": {
          "coding": [
            {
              "code": "258580003",
              "system": "http://snomed.info/sct",
              "display": "Whole blood specimen (specimen)"
            }
          ]
        }
      }
    },
    {
      "fullUrl": "urn:uuid:8dee14d1-ff76-4607-99ab-1d477e4e3008",
      "resource": {
        "resourceType": "Specimen",
        "id": "8dee14d1-ff76-4607-99ab-1d477e4e3008",
        "meta": {
          "profile": [
            "http://hl7.eu/fhir/laboratory/StructureDefinition/Specimen-eu-lab"
          ]
        },
        "collection": {
          "collectedDateTime": "2017-05-26"
        },
        "text": {
          "status": "generated",
          "div": "<div xmlns=\"http://www.w3.org/1999/xhtml\"><table class=\"hl7__eu__lab__report\"><tr><th>Specimen</th><th>Collection Date</th></tr><tr><td>Acellular blood (serum or plasma) specimen</td><td><span class=\"nb\">26-May-2017</span></td></tr></table></div>"
        },
        "type": {
          "coding": [
            {
              "code": "122592007",
              "system": "http://snomed.info/sct",
              "display": "Acellular blood (serum or plasma) specimen"
            }
          ]
        }
      }
    },
    {
      "fullUrl": "urn:uuid:5b642c1a-6d58-4cf8-af7b-ed6e51d4e350",
      "resource": {
        "resourceType": "Specimen",
        "id": "5b642c1a-6d58-4cf8-af7b-ed6e51d4e350",
        "meta": {
          "profile": [
            "http://hl7.eu/fhir/laboratory/StructureDefinition/Specimen-eu-lab"
          ]
        },
        "collection": {
          "collectedDateTime": "2017-05-26"
        },
        "text": {
          "status": "generated",
          "div": "<div xmlns=\"http://www.w3.org/1999/xhtml\"><table class=\"hl7__eu__lab__report\"><tr><th>Specimen</th><th>Collection Date</th></tr><tr><td>Serum specimen</td><td><span class=\"nb\">26-May-2017</span></td></tr></table></div>"
        },
        "type": {
          "coding": [
            {
              "code": "119364003",
              "system": "http://snomed.info/sct",
              "display": "Serum specimen"
            }
          ]
        }
      }
    },
    {
      "fullUrl": "urn:uuid:41f2861d-c6f9-4cfe-91a3-1b0eba17fb62",
      "resource": {
        "resourceType": "Specimen",
        "id": "41f2861d-c6f9-4cfe-91a3-1b0eba17fb62",
        "meta": {
          "profile": [
            "http://hl7.eu/fhir/laboratory/StructureDefinition/Specimen-eu-lab"
          ]
        },
        "collection": {
          "collectedDateTime": "2017-05-26"
        },
        "text": {
          "status": "generated",
          "div": "<div xmlns=\"http://www.w3.org/1999/xhtml\"><table class=\"hl7__eu__lab__report\"><tr><th>Specimen</th><th>Collection Date</th></tr><tr><td>Urine specimen</td><td><span class=\"nb\">26-May-2017</span></td></tr></table></div>"
        },
        "type": {
          "coding": [
            {
              "code": "122575003",
              "system": "http://snomed.info/sct",
              "display": "Urine specimen"
            }
          ]
        }
      }
    },
    {
      "fullUrl": "urn:uuid:955245bc-2ecb-4485-97e7-2ab076355679",
      "resource": {
        "resourceType": "Observation",
        "id": "955245bc-2ecb-4485-97e7-2ab076355679",
        "meta": {
          "profile": [
            "http://hl7.eu/fhir/laboratory/StructureDefinition/Observation-resultslab-eu-lab"
          ]
        },
        "performer": [
          {
            "display": "The Central European Lab"
          }
        ],
        "category": [
          {
            "coding": [
              {
                "system": "http://terminology.hl7.org/CodeSystem/observation-category",
                "code": "laboratory"
              }
            ]
          }
        ],
        "code": {
          "coding": [
            {
              "code": "2339-0",
              "system": "http://loinc.org",
              "display": "Glucose [Mass/volume] in Blood"
            }
          ],
          "text": "Glucose [Mass/volume] in Blood"
        },
        "valueQuantity": {
          "system": "http://unitsofmeasure.org",
          "value": 80.2,
          "unit": "mg/dL",
          "code": "mg/dL"
        },
        "referenceRange": [
          {
            "low": {
              "value": 70,
              "code": "mg/dL",
              "system": "http://unitsofmeasure.org"
            }
          },
          {
            "high": {
              "value": 140,
              "code": "mg/dL",
              "system": "http://unitsofmeasure.org"
            }
          }
        ],
        "text": {
          "status": "generated",
          "div": "<div xmlns=\"http://www.w3.org/1999/xhtml\"><table class=\"hl7__eu__lab__report\"><tr><th>Test</th><th>26-May-2017</th><th>Reference&#xA0;Range</th><th>Unit</th></tr><tr><td>Glucose [Mass/volume] in Blood</td><td>80.2</td><td>70 - 140</td><td></td><td>mg/dL</td></tr></table></div>"
        },
        "status": "final",
        "subject": {
          "reference": "urn:uuid:de14cc27-e427-44b3-a719-ed7e79afd6dd",
          "display": "Maria Nohlmans"
        },
        "effectiveDateTime": "2017-05-26T09:25:39Z",
        "specimen": {
          "reference": "urn:uuid:48f2260f-1fdd-42e6-a6be-64ebacd2549b"
        }
      }
    },
    {
      "fullUrl": "urn:uuid:d5516a56-1ea9-43c7-ad93-99602763a500",
      "resource": {
        "resourceType": "Observation",
        "id": "d5516a56-1ea9-43c7-ad93-99602763a500",
        "meta": {
          "profile": [
            "http://hl7.eu/fhir/laboratory/StructureDefinition/Observation-resultslab-eu-lab"
          ]
        },
        "performer": [
          {
            "display": "The Central European Lab"
          }
        ],
        "category": [
          {
            "coding": [
              {
                "system": "http://terminology.hl7.org/CodeSystem/observation-category",
                "code": "laboratory"
              }
            ]
          }
        ],
        "code": {
          "coding": [
            {
              "code": "6299-2",
              "system": "http://loinc.org",
              "display": "Urea nitrogen [Mass/volume] in Blood"
            }
          ],
          "text": "Urea nitrogen [Mass/volume] in Blood"
        },
        "valueQuantity": {
          "system": "http://unitsofmeasure.org",
          "value": 19,
          "unit": "mg/dL",
          "code": "mg/dL"
        },
        "referenceRange": [
          {
            "low": {
              "value": 7,
              "code": "mg/dL",
              "system": "http://unitsofmeasure.org"
            }
          },
          {
            "high": {
              "value": 30,
              "code": "mg/dL",
              "system": "http://unitsofmeasure.org"
            }
          }
        ],
        "text": {
          "status": "generated",
          "div": "<div xmlns=\"http://www.w3.org/1999/xhtml\"><table class=\"hl7__eu__lab__report\"><tr><th>Test</th><th>26-May-2017</th><th>Reference&#xA0;Range</th><th>Unit</th></tr><tr><td>Urea nitrogen [Mass/volume] in Blood</td><td>19.0</td><td>7 - 30</td><td></td><td>mg/dL</td></tr></table></div>"
        },
        "status": "final",
        "subject": {
          "reference": "urn:uuid:de14cc27-e427-44b3-a719-ed7e79afd6dd",
          "display": "Maria Nohlmans"
        },
        "effectiveDateTime": "2017-05-26T09:25:39Z",
        "specimen": {
          "reference": "urn:uuid:48f2260f-1fdd-42e6-a6be-64ebacd2549b"
        }
      }
    },
    {
      "fullUrl": "urn:uuid:b61a6225-8978-4b1b-98fa-e39fe98a010b",
      "resource": {
        "resourceType": "Observation",
        "id": "b61a6225-8978-4b1b-98fa-e39fe98a010b",
        "meta": {
          "profile": [
            "http://hl7.eu/fhir/laboratory/StructureDefinition/Observation-resultslab-eu-lab"
          ]
        },
        "performer": [
          {
            "display": "The Central European Lab"
          }
        ],
        "category": [
          {
            "coding": [
              {
                "system": "http://terminology.hl7.org/CodeSystem/observation-category",
                "code": "laboratory"
              }
            ]
          }
        ],
        "code": {
          "coding": [
            {
              "code": "38483-4",
              "system": "http://loinc.org",
              "display": "Creatinine [Mass/volume] in Blood"
            }
          ],
          "text": "Creatinine [Mass/volume] in Blood"
        },
        "valueQuantity": {
          "system": "http://unitsofmeasure.org",
          "value": 3,
          "unit": "mg/dL",
          "code": "mg/dL"
        },
        "referenceRange": [
          {
            "low": {
              "value": 0.5,
              "code": "mg/dL",
              "system": "http://unitsofmeasure.org"
            }
          },
          {
            "high": {
              "value": 1.3,
              "code": "mg/dL",
              "system": "http://unitsofmeasure.org"
            }
          }
        ],
        "interpretation": [
          {
            "coding": [
              {
                "code": "H",
                "system": "http://terminology.hl7.org/CodeSystem/v3-ObservationInterpretation",
                "display": "High"
              }
            ]
          }
        ],
        "text": {
          "status": "generated",
          "div": "<div xmlns=\"http://www.w3.org/1999/xhtml\"><table class=\"hl7__eu__lab__report\"><tr><th>Test</th><th>26-May-2017</th><th>Reference&#xA0;Range</th><th>Unit</th></tr><tr><td>Creatinine [Mass/volume] in Blood</td><td>3.0</td><td>0.5 - 1.3</td><td>H</td><td>mg/dL</td></tr></table></div>"
        },
        "status": "final",
        "subject": {
          "reference": "urn:uuid:de14cc27-e427-44b3-a719-ed7e79afd6dd",
          "display": "Maria Nohlmans"
        },
        "effectiveDateTime": "2017-05-26T09:25:39Z",
        "specimen": {
          "reference": "urn:uuid:48f2260f-1fdd-42e6-a6be-64ebacd2549b"
        }
      }
    },
    {
      "fullUrl": "urn:uuid:8359e44b-8953-44c6-9a87-b07ea24b7178",
      "resource": {
        "resourceType": "Observation",
        "id": "8359e44b-8953-44c6-9a87-b07ea24b7178",
        "meta": {
          "profile": [
            "http://hl7.eu/fhir/laboratory/StructureDefinition/Observation-resultslab-eu-lab"
          ]
        },
        "performer": [
          {
            "display": "The Central European Lab"
          }
        ],
        "category": [
          {
            "coding": [
              {
                "system": "http://terminology.hl7.org/CodeSystem/observation-category",
                "code": "laboratory"
              }
            ]
          }
        ],
        "code": {
          "coding": [
            {
              "code": "49765-1",
              "system": "http://loinc.org",
              "display": "Calcium [Mass/volume] in Blood"
            }
          ],
          "text": "Calcium [Mass/volume] in Blood"
        },
        "valueQuantity": {
          "system": "http://unitsofmeasure.org",
          "value": 8.5,
          "unit": "mg/dL",
          "code": "mg/dL"
        },
        "referenceRange": [
          {
            "low": {
              "value": 8.6,
              "code": "mg/dL",
              "system": "http://unitsofmeasure.org"
            }
          },
          {
            "high": {
              "value": 10.2,
              "code": "mg/dL",
              "system": "http://unitsofmeasure.org"
            }
          }
        ],
        "interpretation": [
          {
            "coding": [
              {
                "code": "L",
                "system": "http://terminology.hl7.org/CodeSystem/v3-ObservationInterpretation",
                "display": "Low"
              }
            ]
          }
        ],
        "text": {
          "status": "generated",
          "div": "<div xmlns=\"http://www.w3.org/1999/xhtml\"><table class=\"hl7__eu__lab__report\"><tr><th>Test</th><th>26-May-2017</th><th>Reference&#xA0;Range</th><th>Unit</th></tr><tr><td>Calcium [Mass/volume] in Blood</td><td>8.5</td><td>8.6 - 10.2</td><td>L</td><td>mg/dL</td></tr></table></div>"
        },
        "status": "final",
        "subject": {
          "reference": "urn:uuid:de14cc27-e427-44b3-a719-ed7e79afd6dd",
          "display": "Maria Nohlmans"
        },
        "effectiveDateTime": "2017-05-26T09:25:39Z",
        "specimen": {
          "reference": "urn:uuid:48f2260f-1fdd-42e6-a6be-64ebacd2549b"
        }
      }
    },
    {
      "fullUrl": "urn:uuid:c8caf741-3e03-4817-b144-e6b3ca128a2a",
      "resource": {
        "resourceType": "Observation",
        "id": "c8caf741-3e03-4817-b144-e6b3ca128a2a",
        "meta": {
          "profile": [
            "http://hl7.eu/fhir/laboratory/StructureDefinition/Observation-resultslab-eu-lab"
          ]
        },
        "performer": [
          {
            "display": "The Central European Lab"
          }
        ],
        "category": [
          {
            "coding": [
              {
                "system": "http://terminology.hl7.org/CodeSystem/observation-category",
                "code": "laboratory"
              }
            ]
          }
        ],
        "code": {
          "coding": [
            {
              "code": "2947-0",
              "system": "http://loinc.org",
              "display": "Sodium [Moles/volume] in Blood"
            }
          ],
          "text": "Sodium [Moles/volume] in Blood"
        },
        "valueQuantity": {
          "system": "http://unitsofmeasure.org",
          "value": 141.3,
          "unit": "mmol/L",
          "code": "mmol/L"
        },
        "referenceRange": [
          {
            "low": {
              "value": 135,
              "code": "mmol/L",
              "system": "http://unitsofmeasure.org"
            }
          },
          {
            "high": {
              "value": 145,
              "code": "mmol/L",
              "system": "http://unitsofmeasure.org"
            }
          }
        ],
        "text": {
          "status": "generated",
          "div": "<div xmlns=\"http://www.w3.org/1999/xhtml\"><table class=\"hl7__eu__lab__report\"><tr><th>Test</th><th>26-May-2017</th><th>Reference&#xA0;Range</th><th>Unit</th></tr><tr><td>Sodium [Moles/volume] in Blood</td><td>141.3</td><td>135 - 145</td><td></td><td>mmol/L</td></tr></table></div>"
        },
        "status": "final",
        "subject": {
          "reference": "urn:uuid:de14cc27-e427-44b3-a719-ed7e79afd6dd",
          "display": "Maria Nohlmans"
        },
        "effectiveDateTime": "2017-05-26T09:25:39Z",
        "specimen": {
          "reference": "urn:uuid:48f2260f-1fdd-42e6-a6be-64ebacd2549b"
        }
      }
    },
    {
      "fullUrl": "urn:uuid:779d1831-3da9-42f1-986a-5893046a5feb",
      "resource": {
        "resourceType": "Observation",
        "id": "779d1831-3da9-42f1-986a-5893046a5feb",
        "meta": {
          "profile": [
            "http://hl7.eu/fhir/laboratory/StructureDefinition/Observation-resultslab-eu-lab"
          ]
        },
        "performer": [
          {
            "display": "The Central European Lab"
          }
        ],
        "category": [
          {
            "coding": [
              {
                "system": "http://terminology.hl7.org/CodeSystem/observation-category",
                "code": "laboratory"
              }
            ]
          }
        ],
        "code": {
          "coding": [
            {
              "code": "6298-4",
              "system": "http://loinc.org",
              "display": "Potassium [Moles/volume] in Blood"
            }
          ],
          "text": "Potassium [Moles/volume] in Blood"
        },
        "valueQuantity": {
          "system": "http://unitsofmeasure.org",
          "value": 4.2,
          "unit": "mmol/L",
          "code": "mmol/L"
        },
        "referenceRange": [
          {
            "low": {
              "value": 3.5,
              "code": "mmol/L",
              "system": "http://unitsofmeasure.org"
            }
          },
          {
            "high": {
              "value": 5.1,
              "code": "mmol/L",
              "system": "http://unitsofmeasure.org"
            }
          }
        ],
        "text": {
          "status": "generated",
          "div": "<div xmlns=\"http://www.w3.org/1999/xhtml\"><table class=\"hl7__eu__lab__report\"><tr><th>Test</th><th>26-May-2017</th><th>Reference&#xA0;Range</th><th>Unit</th></tr><tr><td>Potassium [Moles/volume] in Blood</td><td>4.2</td><td>3.5 - 5.1</td><td></td><td>mmol/L</td></tr></table></div>"
        },
        "status": "final",
        "subject": {
          "reference": "urn:uuid:de14cc27-e427-44b3-a719-ed7e79afd6dd",
          "display": "Maria Nohlmans"
        },
        "effectiveDateTime": "2017-05-26T09:25:39Z",
        "specimen": {
          "reference": "urn:uuid:48f2260f-1fdd-42e6-a6be-64ebacd2549b"
        }
      }
    },
    {
      "fullUrl": "urn:uuid:098929fc-de0c-4166-bbdb-84312ed43f77",
      "resource": {
        "resourceType": "Observation",
        "id": "098929fc-de0c-4166-bbdb-84312ed43f77",
        "meta": {
          "profile": [
            "http://hl7.eu/fhir/laboratory/StructureDefinition/Observation-resultslab-eu-lab"
          ]
        },
        "performer": [
          {
            "display": "The Central European Lab"
          }
        ],
        "category": [
          {
            "coding": [
              {
                "system": "http://terminology.hl7.org/CodeSystem/observation-category",
                "code": "laboratory"
              }
            ]
          }
        ],
        "code": {
          "coding": [
            {
              "code": "2069-3",
              "system": "http://loinc.org",
              "display": "Chloride [Moles/volume] in Blood"
            }
          ],
          "text": "Chloride [Moles/volume] in Blood"
        },
        "valueQuantity": {
          "system": "http://unitsofmeasure.org",
          "value": 108,
          "unit": "mmol/L",
          "code": "mmol/L"
        },
        "referenceRange": [
          {
            "low": {
              "value": 98,
              "code": "mmol/L",
              "system": "http://unitsofmeasure.org"
            }
          },
          {
            "high": {
              "value": 114,
              "code": "mmol/L",
              "system": "http://unitsofmeasure.org"
            }
          }
        ],
        "text": {
          "status": "generated",
          "div": "<div xmlns=\"http://www.w3.org/1999/xhtml\"><table class=\"hl7__eu__lab__report\"><tr><th>Test</th><th>26-May-2017</th><th>Reference&#xA0;Range</th><th>Unit</th></tr><tr><td>Chloride [Moles/volume] in Blood</td><td>108.0</td><td>98 - 114</td><td></td><td>mmol/L</td></tr></table></div>"
        },
        "status": "final",
        "subject": {
          "reference": "urn:uuid:de14cc27-e427-44b3-a719-ed7e79afd6dd",
          "display": "Maria Nohlmans"
        },
        "effectiveDateTime": "2017-05-26T09:25:39Z",
        "specimen": {
          "reference": "urn:uuid:48f2260f-1fdd-42e6-a6be-64ebacd2549b"
        }
      }
    },
    {
      "fullUrl": "urn:uuid:da9166c4-72cd-4cf7-8168-a5af2d7611da",
      "resource": {
        "resourceType": "Observation",
        "id": "da9166c4-72cd-4cf7-8168-a5af2d7611da",
        "meta": {
          "profile": [
            "http://hl7.eu/fhir/laboratory/StructureDefinition/Observation-resultslab-eu-lab"
          ]
        },
        "performer": [
          {
            "display": "The Central European Lab"
          }
        ],
        "category": [
          {
            "coding": [
              {
                "system": "http://terminology.hl7.org/CodeSystem/observation-category",
                "code": "laboratory"
              }
            ]
          }
        ],
        "code": {
          "coding": [
            {
              "code": "20565-8",
              "system": "http://loinc.org",
              "display": "Carbon dioxide, total [Moles/volume] in Blood"
            }
          ],
          "text": "Carbon dioxide, total [Moles/volume] in Blood"
        },
        "valueQuantity": {
          "system": "http://unitsofmeasure.org",
          "value": 21.6,
          "unit": "mmol/L",
          "code": "mmol/L"
        },
        "referenceRange": [
          {
            "low": {
              "value": 22,
              "code": "mmol/L",
              "system": "http://unitsofmeasure.org"
            }
          },
          {
            "high": {
              "value": 32,
              "code": "mmol/L",
              "system": "http://unitsofmeasure.org"
            }
          }
        ],
        "interpretation": [
          {
            "coding": [
              {
                "code": "L",
                "system": "http://terminology.hl7.org/CodeSystem/v3-ObservationInterpretation",
                "display": "Low"
              }
            ]
          }
        ],
        "text": {
          "status": "generated",
          "div": "<div xmlns=\"http://www.w3.org/1999/xhtml\"><table class=\"hl7__eu__lab__report\"><tr><th>Test</th><th>26-May-2017</th><th>Reference&#xA0;Range</th><th>Unit</th></tr><tr><td>Carbon dioxide, total [Moles/volume] in Blood</td><td>21.6</td><td>22 - 32</td><td>L</td><td>mmol/L</td></tr></table></div>"
        },
        "status": "final",
        "subject": {
          "reference": "urn:uuid:de14cc27-e427-44b3-a719-ed7e79afd6dd",
          "display": "Maria Nohlmans"
        },
        "effectiveDateTime": "2017-05-26T09:25:39Z",
        "specimen": {
          "reference": "urn:uuid:48f2260f-1fdd-42e6-a6be-64ebacd2549b"
        }
      }
    },
    {
      "fullUrl": "urn:uuid:f555a2ba-4fe9-473a-adb1-4b3063c8b01a",
      "resource": {
        "resourceType": "Observation",
        "id": "f555a2ba-4fe9-473a-adb1-4b3063c8b01a",
        "meta": {
          "profile": [
            "http://hl7.eu/fhir/laboratory/StructureDefinition/Observation-resultslab-eu-lab"
          ]
        },
        "performer": [
          {
            "display": "The Central European Lab"
          }
        ],
        "category": [
          {
            "coding": [
              {
                "system": "http://terminology.hl7.org/CodeSystem/observation-category",
                "code": "laboratory"
              }
            ]
          }
        ],
        "code": {
          "coding": [
            {
              "code": "2885-2",
              "system": "http://loinc.org",
              "display": "Protein [Mass/volume] in Serum or Plasma"
            }
          ],
          "text": "Protein [Mass/volume] in Serum or Plasma"
        },
        "valueQuantity": {
          "system": "http://unitsofmeasure.org",
          "value": 7.2,
          "unit": "g/dL",
          "code": "g/dL"
        },
        "referenceRange": [
          {
            "low": {
              "value": 6,
              "code": "g/dL",
              "system": "http://unitsofmeasure.org"
            }
          },
          {
            "high": {
              "value": 8.3,
              "code": "g/dL",
              "system": "http://unitsofmeasure.org"
            }
          }
        ],
        "text": {
          "status": "generated",
          "div": "<div xmlns=\"http://www.w3.org/1999/xhtml\"><table class=\"hl7__eu__lab__report\"><tr><th>Test</th><th>26-May-2017</th><th>Reference&#xA0;Range</th><th>Unit</th></tr><tr><td>Protein [Mass/volume] in Serum or Plasma</td><td>7.2</td><td>6 - 8.3</td><td></td><td>g/dL</td></tr></table></div>"
        },
        "status": "final",
        "subject": {
          "reference": "urn:uuid:de14cc27-e427-44b3-a719-ed7e79afd6dd",
          "display": "Maria Nohlmans"
        },
        "effectiveDateTime": "2017-05-26T09:25:39Z",
        "specimen": {
          "reference": "urn:uuid:8dee14d1-ff76-4607-99ab-1d477e4e3008"
        }
      }
    },
    {
      "fullUrl": "urn:uuid:d24f9874-1a77-4155-acb9-9d3684c8b742",
      "resource": {
        "resourceType": "Observation",
        "id": "d24f9874-1a77-4155-acb9-9d3684c8b742",
        "meta": {
          "profile": [
            "http://hl7.eu/fhir/laboratory/StructureDefinition/Observation-resultslab-eu-lab"
          ]
        },
        "performer": [
          {
            "display": "The Central European Lab"
          }
        ],
        "category": [
          {
            "coding": [
              {
                "system": "http://terminology.hl7.org/CodeSystem/observation-category",
                "code": "laboratory"
              }
            ]
          }
        ],
        "code": {
          "coding": [
            {
              "code": "1751-7",
              "system": "http://loinc.org",
              "display": "Albumin [Mass/volume] in Serum or Plasma"
            }
          ],
          "text": "Albumin [Mass/volume] in Serum or Plasma"
        },
        "valueQuantity": {
          "system": "http://unitsofmeasure.org",
          "value": 4.3,
          "unit": "g/dL",
          "code": "g/dL"
        },
        "referenceRange": [
          {
            "low": {
              "value": 3.5,
              "code": "g/dL",
              "system": "http://unitsofmeasure.org"
            }
          },
          {
            "high": {
              "value": 5.5,
              "code": "g/dL",
              "system": "http://unitsofmeasure.org"
            }
          }
        ],
        "text": {
          "status": "generated",
          "div": "<div xmlns=\"http://www.w3.org/1999/xhtml\"><table class=\"hl7__eu__lab__report\"><tr><th>Test</th><th>26-May-2017</th><th>Reference&#xA0;Range</th><th>Unit</th></tr><tr><td>Albumin [Mass/volume] in Serum or Plasma</td><td>4.3</td><td>3.5 - 5.5</td><td></td><td>g/dL</td></tr></table></div>"
        },
        "status": "final",
        "subject": {
          "reference": "urn:uuid:de14cc27-e427-44b3-a719-ed7e79afd6dd",
          "display": "Maria Nohlmans"
        },
        "effectiveDateTime": "2017-05-26T09:25:39Z",
        "specimen": {
          "reference": "urn:uuid:8dee14d1-ff76-4607-99ab-1d477e4e3008"
        }
      }
    },
    {
      "fullUrl": "urn:uuid:da8a2a95-f93e-4ad3-8195-ac9f1ac09cf1",
      "resource": {
        "resourceType": "Observation",
        "id": "da8a2a95-f93e-4ad3-8195-ac9f1ac09cf1",
        "meta": {
          "profile": [
            "http://hl7.eu/fhir/laboratory/StructureDefinition/Observation-resultslab-eu-lab"
          ]
        },
        "performer": [
          {
            "display": "The Central European Lab"
          }
        ],
        "category": [
          {
            "coding": [
              {
                "system": "http://terminology.hl7.org/CodeSystem/observation-category",
                "code": "laboratory"
              }
            ]
          }
        ],
        "code": {
          "coding": [
            {
              "code": "10834-0",
              "system": "http://loinc.org",
              "display": "Globulin [Mass/volume] in Serum by calculation"
            }
          ],
          "text": "Globulin [Mass/volume] in Serum by calculation"
        },
        "valueQuantity": {
          "system": "http://unitsofmeasure.org",
          "value": 2.6,
          "unit": "g/L",
          "code": "g/L"
        },
        "referenceRange": [
          {
            "low": {
              "value": 2,
              "code": "g/L",
              "system": "http://unitsofmeasure.org"
            }
          },
          {
            "high": {
              "value": 3.5,
              "code": "g/L",
              "system": "http://unitsofmeasure.org"
            }
          }
        ],
        "text": {
          "status": "generated",
          "div": "<div xmlns=\"http://www.w3.org/1999/xhtml\"><table class=\"hl7__eu__lab__report\"><tr><th>Test</th><th>26-May-2017</th><th>Reference&#xA0;Range</th><th>Unit</th></tr><tr><td>Globulin [Mass/volume] in Serum by calculation</td><td>2.6</td><td>2 - 3.5</td><td></td><td>g/L</td></tr></table></div>"
        },
        "status": "final",
        "subject": {
          "reference": "urn:uuid:de14cc27-e427-44b3-a719-ed7e79afd6dd",
          "display": "Maria Nohlmans"
        },
        "effectiveDateTime": "2017-05-26T09:25:39Z",
        "specimen": {
          "reference": "urn:uuid:5b642c1a-6d58-4cf8-af7b-ed6e51d4e350"
        }
      }
    },
    {
      "fullUrl": "urn:uuid:e144a41a-7d25-4d65-9e7b-d4292fc45306",
      "resource": {
        "resourceType": "Observation",
        "id": "e144a41a-7d25-4d65-9e7b-d4292fc45306",
        "meta": {
          "profile": [
            "http://hl7.eu/fhir/laboratory/StructureDefinition/Observation-resultslab-eu-lab"
          ]
        },
        "performer": [
          {
            "display": "The Central European Lab"
          }
        ],
        "category": [
          {
            "coding": [
              {
                "system": "http://terminology.hl7.org/CodeSystem/observation-category",
                "code": "laboratory"
              }
            ]
          }
        ],
        "code": {
          "coding": [
            {
              "code": "1975-2",
              "system": "http://loinc.org",
              "display": "Bilirubin.total [Mass/volume] in Serum or Plasma"
            }
          ],
          "text": "Bilirubin.total [Mass/volume] in Serum or Plasma"
        },
        "valueQuantity": {
          "system": "http://unitsofmeasure.org",
          "value": 0.7,
          "unit": "mg/dL",
          "code": "mg/dL"
        },
        "referenceRange": [
          {
            "low": {
              "value": 0.3,
              "code": "mg/dL",
              "system": "http://unitsofmeasure.org"
            }
          },
          {
            "high": {
              "value": 1.2,
              "code": "mg/dL",
              "system": "http://unitsofmeasure.org"
            }
          }
        ],
        "text": {
          "status": "generated",
          "div": "<div xmlns=\"http://www.w3.org/1999/xhtml\"><table class=\"hl7__eu__lab__report\"><tr><th>Test</th><th>26-May-2017</th><th>Reference&#xA0;Range</th><th>Unit</th></tr><tr><td>Bilirubin.total [Mass/volume] in Serum or Plasma</td><td>0.7</td><td>0.3 - 1.2</td><td></td><td>mg/dL</td></tr></table></div>"
        },
        "status": "final",
        "subject": {
          "reference": "urn:uuid:de14cc27-e427-44b3-a719-ed7e79afd6dd",
          "display": "Maria Nohlmans"
        },
        "effectiveDateTime": "2017-05-26T09:25:39Z",
        "specimen": {
          "reference": "urn:uuid:8dee14d1-ff76-4607-99ab-1d477e4e3008"
        }
      }
    },
    {
      "fullUrl": "urn:uuid:e0538f8e-6fca-4667-b3b6-dac59286c262",
      "resource": {
        "resourceType": "Observation",
        "id": "e0538f8e-6fca-4667-b3b6-dac59286c262",
        "meta": {
          "profile": [
            "http://hl7.eu/fhir/laboratory/StructureDefinition/Observation-resultslab-eu-lab"
          ]
        },
        "performer": [
          {
            "display": "The Central European Lab"
          }
        ],
        "category": [
          {
            "coding": [
              {
                "system": "http://terminology.hl7.org/CodeSystem/observation-category",
                "code": "laboratory"
              }
            ]
          }
        ],
        "code": {
          "coding": [
            {
              "code": "6768-6",
              "system": "http://loinc.org",
              "display": "Alkaline phosphatase [Enzymatic activity/volume] in Serum or Plasma"
            }
          ],
          "text": "Alkaline phosphatase [Enzymatic activity/volume] in Serum or Plasma"
        },
        "valueQuantity": {
          "system": "http://unitsofmeasure.org",
          "value": 42.4,
          "unit": "U/L",
          "code": "U/L"
        },
        "referenceRange": [
          {
            "low": {
              "value": 44,
              "code": "U/L",
              "system": "http://unitsofmeasure.org"
            }
          },
          {
            "high": {
              "value": 142,
              "code": "U/L",
              "system": "http://unitsofmeasure.org"
            }
          }
        ],
        "interpretation": [
          {
            "coding": [
              {
                "code": "L",
                "system": "http://terminology.hl7.org/CodeSystem/v3-ObservationInterpretation",
                "display": "Low"
              }
            ]
          }
        ],
        "text": {
          "status": "generated",
          "div": "<div xmlns=\"http://www.w3.org/1999/xhtml\"><table class=\"hl7__eu__lab__report\"><tr><th>Test</th><th>26-May-2017</th><th>Reference&#xA0;Range</th><th>Unit</th></tr><tr><td>Alkaline phosphatase [Enzymatic activity/volume] in Serum or Plasma</td><td>42.4</td><td>44 - 142</td><td>L</td><td>U/L</td></tr></table></div>"
        },
        "status": "final",
        "subject": {
          "reference": "urn:uuid:de14cc27-e427-44b3-a719-ed7e79afd6dd",
          "display": "Maria Nohlmans"
        },
        "effectiveDateTime": "2017-05-26T09:25:39Z",
        "specimen": {
          "reference": "urn:uuid:8dee14d1-ff76-4607-99ab-1d477e4e3008"
        }
      }
    },
    {
      "fullUrl": "urn:uuid:0d7aee4c-5ac1-4852-a8ae-b3770cc3eb03",
      "resource": {
        "resourceType": "Observation",
        "id": "0d7aee4c-5ac1-4852-a8ae-b3770cc3eb03",
        "meta": {
          "profile": [
            "http://hl7.eu/fhir/laboratory/StructureDefinition/Observation-resultslab-eu-lab"
          ]
        },
        "performer": [
          {
            "display": "The Central European Lab"
          }
        ],
        "category": [
          {
            "coding": [
              {
                "system": "http://terminology.hl7.org/CodeSystem/observation-category",
                "code": "laboratory"
              }
            ]
          }
        ],
        "code": {
          "coding": [
            {
              "code": "1742-6",
              "system": "http://loinc.org",
              "display": "Alanine aminotransferase [Enzymatic activity/volume] in Serum or Plasma"
            }
          ],
          "text": "Alanine aminotransferase [Enzymatic activity/volume] in Serum or Plasma"
        },
        "valueQuantity": {
          "system": "http://unitsofmeasure.org",
          "value": 51,
          "unit": "U/L",
          "code": "U/L"
        },
        "referenceRange": [
          {
            "low": {
              "value": 7,
              "code": "U/L",
              "system": "http://unitsofmeasure.org"
            }
          },
          {
            "high": {
              "value": 40,
              "code": "U/L",
              "system": "http://unitsofmeasure.org"
            }
          }
        ],
        "interpretation": [
          {
            "coding": [
              {
                "code": "H",
                "system": "http://terminology.hl7.org/CodeSystem/v3-ObservationInterpretation",
                "display": "High"
              }
            ]
          }
        ],
        "text": {
          "status": "generated",
          "div": "<div xmlns=\"http://www.w3.org/1999/xhtml\"><table class=\"hl7__eu__lab__report\"><tr><th>Test</th><th>26-May-2017</th><th>Reference&#xA0;Range</th><th>Unit</th></tr><tr><td>Alanine aminotransferase [Enzymatic activity/volume] in Serum or Plasma</td><td>51.0</td><td>7 - 40</td><td>H</td><td>U/L</td></tr></table></div>"
        },
        "status": "final",
        "subject": {
          "reference": "urn:uuid:de14cc27-e427-44b3-a719-ed7e79afd6dd",
          "display": "Maria Nohlmans"
        },
        "effectiveDateTime": "2017-05-26T09:25:39Z",
        "specimen": {
          "reference": "urn:uuid:8dee14d1-ff76-4607-99ab-1d477e4e3008"
        }
      }
    },
    {
      "fullUrl": "urn:uuid:6ac85e53-8caf-458e-b3a6-395f6137ad74",
      "resource": {
        "resourceType": "Observation",
        "id": "6ac85e53-8caf-458e-b3a6-395f6137ad74",
        "meta": {
          "profile": [
            "http://hl7.eu/fhir/laboratory/StructureDefinition/Observation-resultslab-eu-lab"
          ]
        },
        "performer": [
          {
            "display": "The Central European Lab"
          }
        ],
        "category": [
          {
            "coding": [
              {
                "system": "http://terminology.hl7.org/CodeSystem/observation-category",
                "code": "laboratory"
              }
            ]
          }
        ],
        "code": {
          "coding": [
            {
              "code": "1920-8",
              "system": "http://loinc.org",
              "display": "Aspartate aminotransferase [Enzymatic activity/volume] in Serum or Plasma"
            }
          ],
          "text": "Aspartate aminotransferase [Enzymatic activity/volume] in Serum or Plasma"
        },
        "valueQuantity": {
          "system": "http://unitsofmeasure.org",
          "value": 16.6,
          "unit": "U/L",
          "code": "U/L"
        },
        "referenceRange": [
          {
            "low": {
              "value": 10,
              "code": "U/L",
              "system": "http://unitsofmeasure.org"
            }
          },
          {
            "high": {
              "value": 40,
              "code": "U/L",
              "system": "http://unitsofmeasure.org"
            }
          }
        ],
        "text": {
          "status": "generated",
          "div": "<div xmlns=\"http://www.w3.org/1999/xhtml\"><table class=\"hl7__eu__lab__report\"><tr><th>Test</th><th>26-May-2017</th><th>Reference&#xA0;Range</th><th>Unit</th></tr><tr><td>Aspartate aminotransferase [Enzymatic activity/volume] in Serum or Plasma</td><td>16.6</td><td>10 - 40</td><td></td><td>U/L</td></tr></table></div>"
        },
        "status": "final",
        "subject": {
          "reference": "urn:uuid:de14cc27-e427-44b3-a719-ed7e79afd6dd",
          "display": "Maria Nohlmans"
        },
        "effectiveDateTime": "2017-05-26T09:25:39Z",
        "specimen": {
          "reference": "urn:uuid:8dee14d1-ff76-4607-99ab-1d477e4e3008"
        }
      }
    },
    {
      "fullUrl": "urn:uuid:1a82d1d4-59af-4060-b3bc-ae06e00505cd",
      "resource": {
        "resourceType": "Observation",
        "id": "1a82d1d4-59af-4060-b3bc-ae06e00505cd",
        "meta": {
          "profile": [
            "http://hl7.eu/fhir/laboratory/StructureDefinition/Observation-resultslab-eu-lab"
          ]
        },
        "performer": [
          {
            "display": "The Central European Lab"
          }
        ],
        "category": [
          {
            "coding": [
              {
                "system": "http://terminology.hl7.org/CodeSystem/observation-category",
                "code": "laboratory"
              }
            ]
          }
        ],
        "code": {
          "coding": [
            {
              "code": "5767-9",
              "system": "http://loinc.org",
              "display": "Appearance of Urine"
            }
          ],
          "text": "Appearance of Urine"
        },
        "text": {
          "status": "generated",
          "div": "<div xmlns=\"http://www.w3.org/1999/xhtml\"><table class=\"hl7__eu__lab__report\"><tr><th>Test</th><th>26-May-2017</th><th>Reference&#xA0;Range</th><th>Unit</th></tr><tr><td>Appearance of Urine</td></tr></table></div>"
        },
        "status": "final",
        "subject": {
          "reference": "urn:uuid:de14cc27-e427-44b3-a719-ed7e79afd6dd",
          "display": "Maria Nohlmans"
        },
        "effectiveDateTime": "2017-05-26T09:25:39Z",
        "specimen": {
          "reference": "urn:uuid:41f2861d-c6f9-4cfe-91a3-1b0eba17fb62"
        }
      }
    },
    {
      "fullUrl": "urn:uuid:080ae504-3fe6-4455-8355-3785f0e13b83",
      "resource": {
        "resourceType": "Observation",
        "id": "080ae504-3fe6-4455-8355-3785f0e13b83",
        "meta": {
          "profile": [
            "http://hl7.eu/fhir/laboratory/StructureDefinition/Observation-resultslab-eu-lab"
          ]
        },
        "performer": [
          {
            "display": "The Central European Lab"
          }
        ],
        "category": [
          {
            "coding": [
              {
                "system": "http://terminology.hl7.org/CodeSystem/observation-category",
                "code": "laboratory"
              }
            ]
          }
        ],
        "code": {
          "coding": [
            {
              "code": "34533-0",
              "system": "http://loinc.org",
              "display": "Odor of Urine"
            }
          ],
          "text": "Odor of Urine"
        },
        "text": {
          "status": "generated",
          "div": "<div xmlns=\"http://www.w3.org/1999/xhtml\"><table class=\"hl7__eu__lab__report\"><tr><th>Test</th><th>26-May-2017</th><th>Reference&#xA0;Range</th><th>Unit</th></tr><tr><td>Odor of Urine</td></tr></table></div>"
        },
        "status": "final",
        "subject": {
          "reference": "urn:uuid:de14cc27-e427-44b3-a719-ed7e79afd6dd",
          "display": "Maria Nohlmans"
        },
        "effectiveDateTime": "2017-05-26T09:25:39Z",
        "specimen": {
          "reference": "urn:uuid:41f2861d-c6f9-4cfe-91a3-1b0eba17fb62"
        }
      }
    },
    {
      "fullUrl": "urn:uuid:67bfe211-4d95-4630-95de-f1744e5f9360",
      "resource": {
        "resourceType": "Observation",
        "id": "67bfe211-4d95-4630-95de-f1744e5f9360",
        "meta": {
          "profile": [
            "http://hl7.eu/fhir/laboratory/StructureDefinition/Observation-resultslab-eu-lab"
          ]
        },
        "performer": [
          {
            "display": "The Central European Lab"
          }
        ],
        "category": [
          {
            "coding": [
              {
                "system": "http://terminology.hl7.org/CodeSystem/observation-category",
                "code": "laboratory"
              }
            ]
          }
        ],
        "code": {
          "coding": [
            {
              "code": "32167-9",
              "system": "http://loinc.org",
              "display": "Clarity of Urine"
            }
          ],
          "text": "Clarity of Urine"
        },
        "text": {
          "status": "generated",
          "div": "<div xmlns=\"http://www.w3.org/1999/xhtml\"><table class=\"hl7__eu__lab__report\"><tr><th>Test</th><th>26-May-2017</th><th>Reference&#xA0;Range</th><th>Unit</th></tr><tr><td>Clarity of Urine</td></tr></table></div>"
        },
        "status": "final",
        "subject": {
          "reference": "urn:uuid:de14cc27-e427-44b3-a719-ed7e79afd6dd",
          "display": "Maria Nohlmans"
        },
        "effectiveDateTime": "2017-05-26T09:25:39Z",
        "specimen": {
          "reference": "urn:uuid:41f2861d-c6f9-4cfe-91a3-1b0eba17fb62"
        }
      }
    },
    {
      "fullUrl": "urn:uuid:45188963-cbcd-46e3-8867-7b8652783c2b",
      "resource": {
        "resourceType": "Observation",
        "id": "45188963-cbcd-46e3-8867-7b8652783c2b",
        "meta": {
          "profile": [
            "http://hl7.eu/fhir/laboratory/StructureDefinition/Observation-resultslab-eu-lab"
          ]
        },
        "performer": [
          {
            "display": "The Central European Lab"
          }
        ],
        "category": [
          {
            "coding": [
              {
                "system": "http://terminology.hl7.org/CodeSystem/observation-category",
                "code": "laboratory"
              }
            ]
          }
        ],
        "code": {
          "coding": [
            {
              "code": "5778-6",
              "system": "http://loinc.org",
              "display": "Color of Urine"
            }
          ],
          "text": "Color of Urine"
        },
        "text": {
          "status": "generated",
          "div": "<div xmlns=\"http://www.w3.org/1999/xhtml\"><table class=\"hl7__eu__lab__report\"><tr><th>Test</th><th>26-May-2017</th><th>Reference&#xA0;Range</th><th>Unit</th></tr><tr><td>Color of Urine</td></tr></table></div>"
        },
        "status": "final",
        "subject": {
          "reference": "urn:uuid:de14cc27-e427-44b3-a719-ed7e79afd6dd",
          "display": "Maria Nohlmans"
        },
        "effectiveDateTime": "2017-05-26T09:25:39Z",
        "specimen": {
          "reference": "urn:uuid:41f2861d-c6f9-4cfe-91a3-1b0eba17fb62"
        }
      }
    },
    {
      "fullUrl": "urn:uuid:3c7ff922-bb73-43e9-90f4-972050328d22",
      "resource": {
        "resourceType": "Observation",
        "id": "3c7ff922-bb73-43e9-90f4-972050328d22",
        "meta": {
          "profile": [
            "http://hl7.eu/fhir/laboratory/StructureDefinition/Observation-resultslab-eu-lab"
          ]
        },
        "performer": [
          {
            "display": "The Central European Lab"
          }
        ],
        "category": [
          {
            "coding": [
              {
                "system": "http://terminology.hl7.org/CodeSystem/observation-category",
                "code": "laboratory"
              }
            ]
          }
        ],
        "code": {
          "coding": [
            {
              "code": "5792-7",
              "system": "http://loinc.org",
              "display": "Glucose [Mass/volume] in Urine by Test strip"
            }
          ],
          "text": "Glucose [Mass/volume] in Urine by Test strip"
        },
        "valueQuantity": {
          "system": "http://unitsofmeasure.org",
          "value": 1.9,
          "unit": "mg/dL",
          "code": "mg/dL"
        },
        "referenceRange": [
          {
            "low": {
              "value": 0.8,
              "code": "mg/dL",
              "system": "http://unitsofmeasure.org"
            }
          },
          {
            "high": {
              "value": 0,
              "code": "mg/dL",
              "system": "http://unitsofmeasure.org"
            }
          }
        ],
        "interpretation": [
          {
            "coding": [
              {
                "code": "H",
                "system": "http://terminology.hl7.org/CodeSystem/v3-ObservationInterpretation",
                "display": "High"
              }
            ]
          }
        ],
        "text": {
          "status": "generated",
          "div": "<div xmlns=\"http://www.w3.org/1999/xhtml\"><table class=\"hl7__eu__lab__report\"><tr><th>Test</th><th>26-May-2017</th><th>Reference&#xA0;Range</th><th>Unit</th></tr><tr><td>Glucose [Mass/volume] in Urine by Test strip</td><td>1.9</td><td>0.8 - 0</td><td>H</td><td>mg/dL</td></tr></table></div>"
        },
        "status": "final",
        "subject": {
          "reference": "urn:uuid:de14cc27-e427-44b3-a719-ed7e79afd6dd",
          "display": "Maria Nohlmans"
        },
        "effectiveDateTime": "2017-05-26T09:25:39Z",
        "specimen": {
          "reference": "urn:uuid:41f2861d-c6f9-4cfe-91a3-1b0eba17fb62"
        }
      }
    },
    {
      "fullUrl": "urn:uuid:02629f66-b170-4754-b5cc-fcaeba03482a",
      "resource": {
        "resourceType": "Observation",
        "id": "02629f66-b170-4754-b5cc-fcaeba03482a",
        "meta": {
          "profile": [
            "http://hl7.eu/fhir/laboratory/StructureDefinition/Observation-resultslab-eu-lab"
          ]
        },
        "performer": [
          {
            "display": "The Central European Lab"
          }
        ],
        "category": [
          {
            "coding": [
              {
                "system": "http://terminology.hl7.org/CodeSystem/observation-category",
                "code": "laboratory"
              }
            ]
          }
        ],
        "code": {
          "coding": [
            {
              "code": "25428-4",
              "system": "http://loinc.org",
              "display": "Glucose [Presence] in Urine by Test strip"
            }
          ],
          "text": "Glucose [Presence] in Urine by Test strip"
        },
        "text": {
          "status": "generated",
          "div": "<div xmlns=\"http://www.w3.org/1999/xhtml\"><table class=\"hl7__eu__lab__report\"><tr><th>Test</th><th>26-May-2017</th><th>Reference&#xA0;Range</th><th>Unit</th></tr><tr><td>Glucose [Presence] in Urine by Test strip</td></tr></table></div>"
        },
        "status": "final",
        "subject": {
          "reference": "urn:uuid:de14cc27-e427-44b3-a719-ed7e79afd6dd",
          "display": "Maria Nohlmans"
        },
        "effectiveDateTime": "2017-05-26T09:25:39Z",
        "specimen": {
          "reference": "urn:uuid:41f2861d-c6f9-4cfe-91a3-1b0eba17fb62"
        }
      }
    },
    {
      "fullUrl": "urn:uuid:aa42955e-8c1c-463c-87e5-6a52bc213d5e",
      "resource": {
        "resourceType": "Observation",
        "id": "aa42955e-8c1c-463c-87e5-6a52bc213d5e",
        "meta": {
          "profile": [
            "http://hl7.eu/fhir/laboratory/StructureDefinition/Observation-resultslab-eu-lab"
          ]
        },
        "performer": [
          {
            "display": "The Central European Lab"
          }
        ],
        "category": [
          {
            "coding": [
              {
                "system": "http://terminology.hl7.org/CodeSystem/observation-category",
                "code": "laboratory"
              }
            ]
          }
        ],
        "code": {
          "coding": [
            {
              "code": "20505-4",
              "system": "http://loinc.org",
              "display": "Bilirubin.total [Mass/volume] in Urine by Test strip"
            }
          ],
          "text": "Bilirubin.total [Mass/volume] in Urine by Test strip"
        },
        "valueQuantity": {
          "system": "http://unitsofmeasure.org",
          "value": 0.3,
          "unit": "mg/dL",
          "code": "mg/dL"
        },
        "referenceRange": [
          {
            "low": {
              "value": 0,
              "code": "mg/dL",
              "system": "http://unitsofmeasure.org"
            }
          },
          {
            "high": {
              "value": 1.5,
              "code": "mg/dL",
              "system": "http://unitsofmeasure.org"
            }
          }
        ],
        "text": {
          "status": "generated",
          "div": "<div xmlns=\"http://www.w3.org/1999/xhtml\"><table class=\"hl7__eu__lab__report\"><tr><th>Test</th><th>26-May-2017</th><th>Reference&#xA0;Range</th><th>Unit</th></tr><tr><td>Bilirubin.total [Mass/volume] in Urine by Test strip</td><td>0.3</td><td>0 - 1.5</td><td></td><td>mg/dL</td></tr></table></div>"
        },
        "status": "final",
        "subject": {
          "reference": "urn:uuid:de14cc27-e427-44b3-a719-ed7e79afd6dd",
          "display": "Maria Nohlmans"
        },
        "effectiveDateTime": "2017-05-26T09:25:39Z",
        "specimen": {
          "reference": "urn:uuid:41f2861d-c6f9-4cfe-91a3-1b0eba17fb62"
        }
      }
    },
    {
      "fullUrl": "urn:uuid:20187d77-f67f-4d08-ba78-fa66c09882ff",
      "resource": {
        "resourceType": "Observation",
        "id": "20187d77-f67f-4d08-ba78-fa66c09882ff",
        "meta": {
          "profile": [
            "http://hl7.eu/fhir/laboratory/StructureDefinition/Observation-resultslab-eu-lab"
          ]
        },
        "performer": [
          {
            "display": "The Central European Lab"
          }
        ],
        "category": [
          {
            "coding": [
              {
                "system": "http://terminology.hl7.org/CodeSystem/observation-category",
                "code": "laboratory"
              }
            ]
          }
        ],
        "code": {
          "coding": [
            {
              "code": "5770-3",
              "system": "http://loinc.org",
              "display": "Bilirubin.total [Presence] in Urine by Test strip"
            }
          ],
          "text": "Bilirubin.total [Presence] in Urine by Test strip"
        },
        "text": {
          "status": "generated",
          "div": "<div xmlns=\"http://www.w3.org/1999/xhtml\"><table class=\"hl7__eu__lab__report\"><tr><th>Test</th><th>26-May-2017</th><th>Reference&#xA0;Range</th><th>Unit</th></tr><tr><td>Bilirubin.total [Presence] in Urine by Test strip</td></tr></table></div>"
        },
        "status": "final",
        "subject": {
          "reference": "urn:uuid:de14cc27-e427-44b3-a719-ed7e79afd6dd",
          "display": "Maria Nohlmans"
        },
        "effectiveDateTime": "2017-05-26T09:25:39Z",
        "specimen": {
          "reference": "urn:uuid:41f2861d-c6f9-4cfe-91a3-1b0eba17fb62"
        }
      }
    },
    {
      "fullUrl": "urn:uuid:a6c37cfb-fa56-4a74-b3cc-3dd77e58414a",
      "resource": {
        "resourceType": "Observation",
        "id": "a6c37cfb-fa56-4a74-b3cc-3dd77e58414a",
        "meta": {
          "profile": [
            "http://hl7.eu/fhir/laboratory/StructureDefinition/Observation-resultslab-eu-lab"
          ]
        },
        "performer": [
          {
            "display": "The Central European Lab"
          }
        ],
        "category": [
          {
            "coding": [
              {
                "system": "http://terminology.hl7.org/CodeSystem/observation-category",
                "code": "laboratory"
              }
            ]
          }
        ],
        "code": {
          "coding": [
            {
              "code": "5797-6",
              "system": "http://loinc.org",
              "display": "Ketones [Mass/volume] in Urine by Test strip"
            }
          ],
          "text": "Ketones [Mass/volume] in Urine by Test strip"
        },
        "valueQuantity": {
          "system": "http://unitsofmeasure.org",
          "value": 17.5,
          "unit": "mg/dL",
          "code": "mg/dL"
        },
        "referenceRange": [
          {
            "low": {
              "value": 0,
              "code": "mg/dL",
              "system": "http://unitsofmeasure.org"
            }
          },
          {
            "high": {
              "value": 8,
              "code": "mg/dL",
              "system": "http://unitsofmeasure.org"
            }
          }
        ],
        "interpretation": [
          {
            "coding": [
              {
                "code": "H",
                "system": "http://terminology.hl7.org/CodeSystem/v3-ObservationInterpretation",
                "display": "High"
              }
            ]
          }
        ],
        "text": {
          "status": "generated",
          "div": "<div xmlns=\"http://www.w3.org/1999/xhtml\"><table class=\"hl7__eu__lab__report\"><tr><th>Test</th><th>26-May-2017</th><th>Reference&#xA0;Range</th><th>Unit</th></tr><tr><td>Ketones [Mass/volume] in Urine by Test strip</td><td>17.5</td><td>0 - 8</td><td>H</td><td>mg/dL</td></tr></table></div>"
        },
        "status": "final",
        "subject": {
          "reference": "urn:uuid:de14cc27-e427-44b3-a719-ed7e79afd6dd",
          "display": "Maria Nohlmans"
        },
        "effectiveDateTime": "2017-05-26T09:25:39Z",
        "specimen": {
          "reference": "urn:uuid:41f2861d-c6f9-4cfe-91a3-1b0eba17fb62"
        }
      }
    },
    {
      "fullUrl": "urn:uuid:a9b206f9-7b5b-49b0-8692-27e62f51ac1b",
      "resource": {
        "resourceType": "Observation",
        "id": "a9b206f9-7b5b-49b0-8692-27e62f51ac1b",
        "meta": {
          "profile": [
            "http://hl7.eu/fhir/laboratory/StructureDefinition/Observation-resultslab-eu-lab"
          ]
        },
        "performer": [
          {
            "display": "The Central European Lab"
          }
        ],
        "category": [
          {
            "coding": [
              {
                "system": "http://terminology.hl7.org/CodeSystem/observation-category",
                "code": "laboratory"
              }
            ]
          }
        ],
        "code": {
          "coding": [
            {
              "code": "2514-8",
              "system": "http://loinc.org",
              "display": "Ketones [Presence] in Urine by Test strip"
            }
          ],
          "text": "Ketones [Presence] in Urine by Test strip"
        },
        "text": {
          "status": "generated",
          "div": "<div xmlns=\"http://www.w3.org/1999/xhtml\"><table class=\"hl7__eu__lab__report\"><tr><th>Test</th><th>26-May-2017</th><th>Reference&#xA0;Range</th><th>Unit</th></tr><tr><td>Ketones [Presence] in Urine by Test strip</td></tr></table></div>"
        },
        "status": "final",
        "subject": {
          "reference": "urn:uuid:de14cc27-e427-44b3-a719-ed7e79afd6dd",
          "display": "Maria Nohlmans"
        },
        "effectiveDateTime": "2017-05-26T09:25:39Z",
        "specimen": {
          "reference": "urn:uuid:41f2861d-c6f9-4cfe-91a3-1b0eba17fb62"
        }
      }
    },
    {
      "fullUrl": "urn:uuid:dceea471-7003-48ca-866e-11e8e561b473",
      "resource": {
        "resourceType": "Observation",
        "id": "dceea471-7003-48ca-866e-11e8e561b473",
        "meta": {
          "profile": [
            "http://hl7.eu/fhir/laboratory/StructureDefinition/Observation-resultslab-eu-lab"
          ]
        },
        "performer": [
          {
            "display": "The Central European Lab"
          }
        ],
        "category": [
          {
            "coding": [
              {
                "system": "http://terminology.hl7.org/CodeSystem/observation-category",
                "code": "laboratory"
              }
            ]
          }
        ],
        "code": {
          "coding": [
            {
              "code": "5811-5",
              "system": "http://loinc.org",
              "display": "Specific gravity of Urine by Test strip"
            }
          ],
          "text": "Specific gravity of Urine by Test strip"
        },
        "valueQuantity": {
          "system": "http://unitsofmeasure.org",
          "value": 1,
          "unit": "{nominal}",
          "code": "{nominal}"
        },
        "referenceRange": [
          {
            "low": {
              "value": 1.01,
              "code": "g/mL",
              "system": "http://unitsofmeasure.org"
            }
          },
          {
            "high": {
              "value": 1.03,
              "code": "g/mL",
              "system": "http://unitsofmeasure.org"
            }
          }
        ],
        "interpretation": [
          {
            "coding": [
              {
                "code": "L",
                "system": "http://terminology.hl7.org/CodeSystem/v3-ObservationInterpretation",
                "display": "Low"
              }
            ]
          }
        ],
        "text": {
          "status": "generated",
          "div": "<div xmlns=\"http://www.w3.org/1999/xhtml\"><table class=\"hl7__eu__lab__report\"><tr><th>Test</th><th>26-May-2017</th><th>Reference&#xA0;Range</th><th>Unit</th></tr><tr><td>Specific gravity of Urine by Test strip</td><td>1.0</td><td>1.01 - 1.03</td><td>L</td><td>{nominal}</td></tr></table></div>"
        },
        "status": "final",
        "subject": {
          "reference": "urn:uuid:de14cc27-e427-44b3-a719-ed7e79afd6dd",
          "display": "Maria Nohlmans"
        },
        "effectiveDateTime": "2017-05-26T09:25:39Z",
        "specimen": {
          "reference": "urn:uuid:41f2861d-c6f9-4cfe-91a3-1b0eba17fb62"
        }
      }
    },
    {
      "fullUrl": "urn:uuid:6174c386-743d-4096-bb41-750b790a2d59",
      "resource": {
        "resourceType": "Observation",
        "id": "6174c386-743d-4096-bb41-750b790a2d59",
        "meta": {
          "profile": [
            "http://hl7.eu/fhir/laboratory/StructureDefinition/Observation-resultslab-eu-lab"
          ]
        },
        "performer": [
          {
            "display": "The Central European Lab"
          }
        ],
        "category": [
          {
            "coding": [
              {
                "system": "http://terminology.hl7.org/CodeSystem/observation-category",
                "code": "laboratory"
              }
            ]
          }
        ],
        "code": {
          "coding": [
            {
              "code": "5803-2",
              "system": "http://loinc.org",
              "display": "pH of Urine by Test strip"
            }
          ],
          "text": "pH of Urine by Test strip"
        },
        "valueQuantity": {
          "system": "http://unitsofmeasure.org",
          "value": 6.5,
          "unit": "pH",
          "code": "pH"
        },
        "referenceRange": [
          {
            "low": {
              "value": 4.6,
              "code": "pH",
              "system": "http://unitsofmeasure.org"
            }
          },
          {
            "high": {
              "value": 7.5,
              "code": "pH",
              "system": "http://unitsofmeasure.org"
            }
          }
        ],
        "text": {
          "status": "generated",
          "div": "<div xmlns=\"http://www.w3.org/1999/xhtml\"><table class=\"hl7__eu__lab__report\"><tr><th>Test</th><th>26-May-2017</th><th>Reference&#xA0;Range</th><th>Unit</th></tr><tr><td>pH of Urine by Test strip</td><td>6.5</td><td>4.6 - 7.5</td><td></td><td>pH</td></tr></table></div>"
        },
        "status": "final",
        "subject": {
          "reference": "urn:uuid:de14cc27-e427-44b3-a719-ed7e79afd6dd",
          "display": "Maria Nohlmans"
        },
        "effectiveDateTime": "2017-05-26T09:25:39Z",
        "specimen": {
          "reference": "urn:uuid:41f2861d-c6f9-4cfe-91a3-1b0eba17fb62"
        }
      }
    },
    {
      "fullUrl": "urn:uuid:6bc21483-b9d4-44a0-9da7-cd6929bf9836",
      "resource": {
        "resourceType": "Observation",
        "id": "6bc21483-b9d4-44a0-9da7-cd6929bf9836",
        "meta": {
          "profile": [
            "http://hl7.eu/fhir/laboratory/StructureDefinition/Observation-resultslab-eu-lab"
          ]
        },
        "performer": [
          {
            "display": "The Central European Lab"
          }
        ],
        "category": [
          {
            "coding": [
              {
                "system": "http://terminology.hl7.org/CodeSystem/observation-category",
                "code": "laboratory"
              }
            ]
          }
        ],
        "code": {
          "coding": [
            {
              "code": "5804-0",
              "system": "http://loinc.org",
              "display": "Protein [Mass/volume] in Urine by Test strip"
            }
          ],
          "text": "Protein [Mass/volume] in Urine by Test strip"
        },
        "valueQuantity": {
          "system": "http://unitsofmeasure.org",
          "value": 344.5,
          "unit": "mg/dL",
          "code": "mg/dL"
        },
        "referenceRange": [
          {
            "low": {
              "value": 0,
              "code": "mg/dL",
              "system": "http://unitsofmeasure.org"
            }
          },
          {
            "high": {
              "value": 14,
              "code": "mg/dL",
              "system": "http://unitsofmeasure.org"
            }
          }
        ],
        "interpretation": [
          {
            "coding": [
              {
                "code": "H",
                "system": "http://terminology.hl7.org/CodeSystem/v3-ObservationInterpretation",
                "display": "High"
              }
            ]
          }
        ],
        "text": {
          "status": "generated",
          "div": "<div xmlns=\"http://www.w3.org/1999/xhtml\"><table class=\"hl7__eu__lab__report\"><tr><th>Test</th><th>26-May-2017</th><th>Reference&#xA0;Range</th><th>Unit</th></tr><tr><td>Protein [Mass/volume] in Urine by Test strip</td><td>344.5</td><td>0 - 14</td><td>H</td><td>mg/dL</td></tr></table></div>"
        },
        "status": "final",
        "subject": {
          "reference": "urn:uuid:de14cc27-e427-44b3-a719-ed7e79afd6dd",
          "display": "Maria Nohlmans"
        },
        "effectiveDateTime": "2017-05-26T09:25:39Z",
        "specimen": {
          "reference": "urn:uuid:41f2861d-c6f9-4cfe-91a3-1b0eba17fb62"
        }
      }
    },
    {
      "fullUrl": "urn:uuid:2d94695f-6a45-495b-a200-d3d7b8ed8f93",
      "resource": {
        "resourceType": "Observation",
        "id": "2d94695f-6a45-495b-a200-d3d7b8ed8f93",
        "meta": {
          "profile": [
            "http://hl7.eu/fhir/laboratory/StructureDefinition/Observation-resultslab-eu-lab"
          ]
        },
        "performer": [
          {
            "display": "The Central European Lab"
          }
        ],
        "category": [
          {
            "coding": [
              {
                "system": "http://terminology.hl7.org/CodeSystem/observation-category",
                "code": "laboratory"
              }
            ]
          }
        ],
        "code": {
          "coding": [
            {
              "code": "20454-5",
              "system": "http://loinc.org",
              "display": "Protein [Presence] in Urine by Test strip"
            }
          ],
          "text": "Protein [Presence] in Urine by Test strip"
        },
        "text": {
          "status": "generated",
          "div": "<div xmlns=\"http://www.w3.org/1999/xhtml\"><table class=\"hl7__eu__lab__report\"><tr><th>Test</th><th>26-May-2017</th><th>Reference&#xA0;Range</th><th>Unit</th></tr><tr><td>Protein [Presence] in Urine by Test strip</td></tr></table></div>"
        },
        "status": "final",
        "subject": {
          "reference": "urn:uuid:de14cc27-e427-44b3-a719-ed7e79afd6dd",
          "display": "Maria Nohlmans"
        },
        "effectiveDateTime": "2017-05-26T09:25:39Z",
        "specimen": {
          "reference": "urn:uuid:41f2861d-c6f9-4cfe-91a3-1b0eba17fb62"
        }
      }
    },
    {
      "fullUrl": "urn:uuid:ee38b843-9500-44e7-b8a3-a9eacb95a5c1",
      "resource": {
        "resourceType": "Observation",
        "id": "ee38b843-9500-44e7-b8a3-a9eacb95a5c1",
        "meta": {
          "profile": [
            "http://hl7.eu/fhir/laboratory/StructureDefinition/Observation-resultslab-eu-lab"
          ]
        },
        "performer": [
          {
            "display": "The Central European Lab"
          }
        ],
        "category": [
          {
            "coding": [
              {
                "system": "http://terminology.hl7.org/CodeSystem/observation-category",
                "code": "laboratory"
              }
            ]
          }
        ],
        "code": {
          "coding": [
            {
              "code": "5802-4",
              "system": "http://loinc.org",
              "display": "Nitrite [Presence] in Urine by Test strip"
            }
          ],
          "text": "Nitrite [Presence] in Urine by Test strip"
        },
        "text": {
          "status": "generated",
          "div": "<div xmlns=\"http://www.w3.org/1999/xhtml\"><table class=\"hl7__eu__lab__report\"><tr><th>Test</th><th>26-May-2017</th><th>Reference&#xA0;Range</th><th>Unit</th></tr><tr><td>Nitrite [Presence] in Urine by Test strip</td></tr></table></div>"
        },
        "status": "final",
        "subject": {
          "reference": "urn:uuid:de14cc27-e427-44b3-a719-ed7e79afd6dd",
          "display": "Maria Nohlmans"
        },
        "effectiveDateTime": "2017-05-26T09:25:39Z",
        "specimen": {
          "reference": "urn:uuid:41f2861d-c6f9-4cfe-91a3-1b0eba17fb62"
        }
      }
    },
    {
      "fullUrl": "urn:uuid:30252794-7606-4548-bbe6-1764d6ea5671",
      "resource": {
        "resourceType": "Observation",
        "id": "30252794-7606-4548-bbe6-1764d6ea5671",
        "meta": {
          "profile": [
            "http://hl7.eu/fhir/laboratory/StructureDefinition/Observation-resultslab-eu-lab"
          ]
        },
        "performer": [
          {
            "display": "The Central European Lab"
          }
        ],
        "category": [
          {
            "coding": [
              {
                "system": "http://terminology.hl7.org/CodeSystem/observation-category",
                "code": "laboratory"
              }
            ]
          }
        ],
        "code": {
          "coding": [
            {
              "code": "5794-3",
              "system": "http://loinc.org",
              "display": "Hemoglobin [Presence] in Urine by Test strip"
            }
          ],
          "text": "Hemoglobin [Presence] in Urine by Test strip"
        },
        "text": {
          "status": "generated",
          "div": "<div xmlns=\"http://www.w3.org/1999/xhtml\"><table class=\"hl7__eu__lab__report\"><tr><th>Test</th><th>26-May-2017</th><th>Reference&#xA0;Range</th><th>Unit</th></tr><tr><td>Hemoglobin [Presence] in Urine by Test strip</td></tr></table></div>"
        },
        "status": "final",
        "subject": {
          "reference": "urn:uuid:de14cc27-e427-44b3-a719-ed7e79afd6dd",
          "display": "Maria Nohlmans"
        },
        "effectiveDateTime": "2017-05-26T09:25:39Z",
        "specimen": {
          "reference": "urn:uuid:41f2861d-c6f9-4cfe-91a3-1b0eba17fb62"
        }
      }
    },
    {
      "fullUrl": "urn:uuid:95ae3b33-0edc-49f4-bb94-d4661790fc84",
      "resource": {
        "resourceType": "Observation",
        "id": "95ae3b33-0edc-49f4-bb94-d4661790fc84",
        "meta": {
          "profile": [
            "http://hl7.eu/fhir/laboratory/StructureDefinition/Observation-resultslab-eu-lab"
          ]
        },
        "performer": [
          {
            "display": "The Central European Lab"
          }
        ],
        "category": [
          {
            "coding": [
              {
                "system": "http://terminology.hl7.org/CodeSystem/observation-category",
                "code": "laboratory"
              }
            ]
          }
        ],
        "code": {
          "coding": [
            {
              "code": "5799-2",
              "system": "http://loinc.org",
              "display": "Leukocyte esterase [Presence] in Urine by Test strip"
            }
          ],
          "text": "Leukocyte esterase [Presence] in Urine by Test strip"
        },
        "text": {
          "status": "generated",
          "div": "<div xmlns=\"http://www.w3.org/1999/xhtml\"><table class=\"hl7__eu__lab__report\"><tr><th>Test</th><th>26-May-2017</th><th>Reference&#xA0;Range</th><th>Unit</th></tr><tr><td>Leukocyte esterase [Presence] in Urine by Test strip</td></tr></table></div>"
        },
        "status": "final",
        "subject": {
          "reference": "urn:uuid:de14cc27-e427-44b3-a719-ed7e79afd6dd",
          "display": "Maria Nohlmans"
        },
        "effectiveDateTime": "2017-05-26T09:25:39Z",
        "specimen": {
          "reference": "urn:uuid:41f2861d-c6f9-4cfe-91a3-1b0eba17fb62"
        }
      }
    },
    {
      "fullUrl": "urn:uuid:1a0781fa-b3a4-40c9-854b-34a551751efe",
      "resource": {
        "resourceType": "Device",
        "id": "1a0781fa-b3a4-40c9-854b-34a551751efe",
        "deviceName": [
          {
            "name": "SYNDERAI Synthetic Generator",
            "type": "manufacturer-name"
          }
        ],
        "version": [
          {
            "value": "5.0"
          }
        ],
        "text": {
          "status": "generated",
          "div": "<div xmlns=\"http://www.w3.org/1999/xhtml\">SYNDERAI Synthetic Generator v5.0</div>"
        },
        "status": "active\"",
        "distinctIdentifier": "synderai-generator-50",
        "manufacturer": "SYNDERAI Project"
      }
    },
    {
      "fullUrl": "urn:uuid:3c4836e0-63af-4005-b25e-b5f8cf064877",
      "resource": {
        "resourceType": "Provenance",
        "id": "3c4836e0-63af-4005-b25e-b5f8cf064877",
        "target": [
          {
            "reference": "Patient/de14cc27-e427-44b3-a719-ed7e79afd6dd"
          },
          {
            "reference": "Bundle/851fad55-6c3f-49c6-9d36-46afa4a3d028"
          },
          {
            "reference": "Composition/07dd8cdf-32b6-4457-a26e-440c52e25537"
          },
          {
            "reference": "PractitionerRole/12b07121-8dfa-4ef5-ae15-d88f099895ad"
          },
          {
            "reference": "Practitioner/c6aa9537-08b5-4db0-be44-9056dd4b2a66"
          },
          {
            "reference": "PractitionerRole/fa3cd995-2c35-4b2f-bb81-aa312c1a1075"
          },
          {
            "reference": "Organization/c95822ff-5e94-46be-a935-e2691a48d011"
          }
        ],
        "activity": {
          "text": "Synthetic Example Data Generation"
        },
        "policy": [
          "https://synderai.net/synderai-synthetic-data-policy"
        ],
        "agent": [
          {
            "type": {
              "text": "author"
            },
            "who": {
              "reference": "Device/1a0781fa-b3a4-40c9-854b-34a551751efe"
            }
          }
        ],
        "reason": [
          {
            "text": "Interoperability Testing and Training (non-clinical use)"
          }
        ],
        "text": {
          "status": "generated",
          "div": "<div xmlns=\"http://www.w3.org/1999/xhtml\">Provenance for SYNDERAI Synthetic Example Data Resource</div>"
        },
        "recorded": "2017-05-26T11:25:39Z"
      }
    },
    {
      "fullUrl": "urn:uuid:12b07121-8dfa-4ef5-ae15-d88f099895ad",
      "resource": {
        "resourceType": "PractitionerRole",
        "id": "12b07121-8dfa-4ef5-ae15-d88f099895ad",
        "meta": {
          "profile": [
            "http://hl7.eu/fhir/base/StructureDefinition/practitionerRole-eu"
          ]
        },
        "text": {
          "status": "generated",
          "div": "<div xmlns=\"http://www.w3.org/1999/xhtml\">Laboratory Role Id: 12b07121-8dfa-4ef5-ae15-d88f099895ad</div>"
        },
        "practitioner": {
          "reference": "urn:uuid:c6aa9537-08b5-4db0-be44-9056dd4b2a66"
        }
      }
    },
    {
      "fullUrl": "urn:uuid:c6aa9537-08b5-4db0-be44-9056dd4b2a66",
      "resource": {
        "resourceType": "Practitioner",
        "id": "c6aa9537-08b5-4db0-be44-9056dd4b2a66",
        "meta": {
          "profile": [
            "http://hl7.eu/fhir/base/StructureDefinition/practitioner-eu"
          ]
        },
        "identifier": [
          {
            "assigner": {
              "display": "HL7 Europe"
            },
            "system": "urn:oid:2.16.840.1.113883.2.51.999",
            "value": "41bdee0a-e40f-454a-b32a-4b120668b41a"
          }
        ],
        "name": [
          {
            "prefix": [
              "dr"
            ],
            "given": [
              "Ex"
            ],
            "family": "Ample"
          }
        ],
        "address": [
          {
            "line": [
              "Laboratoire Central Européenne",
              "Boulevard du Jardin Botanique 32"
            ],
            "postalCode": "1000",
            "city": "Brussels",
            "country": "Belgium"
          }
        ],
        "text": {
          "status": "generated",
          "div": "<div xmlns=\"http://www.w3.org/1999/xhtml\">Laboratory: Laboratoire Central Européenne, 1000 Brussels, Belgium</div>"
        }
      }
    }
  ],
  "type": "document",
  "timestamp": "2017-05-26T11:25:39Z"
}
