{
  "resourceType": "Bundle",
  "id": "378465cf-9185-4fca-bdc0-e91b28f81ff3",
  "meta": {
    "profile": [
      "http://hl7.eu/fhir/laboratory/StructureDefinition/Bundle-eu-lab"
    ]
  },
  "identifier": {
    "assigner": {
      "display": "HL7 Europe"
    },
    "system": "urn:oid:2.16.840.1.113883.2.51.999",
    "value": "87d41c53-2e60-49c2-abc2-47bbcbd08245"
  },
  "entry": [
    {
      "fullUrl": "urn:uuid:2d6b01c4-1bfe-4d03-b0bd-5ed73ac4d763",
      "resource": {
        "resourceType": "Composition",
        "id": "2d6b01c4-1bfe-4d03-b0bd-5ed73ac4d763",
        "meta": {
          "profile": [
            "http://hl7.eu/fhir/laboratory/StructureDefinition/Composition-eu-lab"
          ]
        },
        "identifier": {
          "assigner": {
            "display": "HL7 Europe"
          },
          "system": "urn:oid:2.16.840.1.113883.2.51.999",
          "value": "18e069cf-45da-4939-8b7c-430193e76a9f"
        },
        "author": [
          {
            "reference": "urn:uuid:efa8bef2-5602-41d6-8a6d-fa6cde43c155"
          }
        ],
        "category": [
          {
            "coding": [
              {
                "code": "26436-6",
                "system": "http://loinc.org",
                "display": "Laboratory studies (set)"
              }
            ]
          }
        ],
        "type": {
          "coding": [
            {
              "code": "11502-2",
              "system": "http://loinc.org",
              "display": "Laboratory report"
            }
          ],
          "text": "Laboratory Report"
        },
        "section": [
          {
            "code": {
              "coding": [
                {
                  "code": "26436-6",
                  "system": "http://loinc.org",
                  "display": "Laboratory studies (set)"
                }
              ],
              "text": "Laboratory studies"
            },
            "section": [
              {
                "code": {
                  "coding": [
                    {
                      "code": "$18719-5",
                      "system": "http://loinc.org",
                      "display": "Chemistry studies (set)"
                    }
                  ],
                  "text": "Chemistry"
                },
                "entry": [
                  {
                    "reference": "urn:uuid:4129c5a6-ecc9-4bf9-a3a0-3285f4b63c29"
                  },
                  {
                    "reference": "urn:uuid:8c59ce04-4b0a-47ac-9eb7-a325c6daa100"
                  },
                  {
                    "reference": "urn:uuid:e869f464-163a-468a-bca9-4055a65349c2"
                  },
                  {
                    "reference": "urn:uuid:8f9deeec-a9aa-4aa4-8aba-c0c4cea872dc"
                  },
                  {
                    "reference": "urn:uuid:d6388ee9-52ca-4704-a271-1bcc69f59442"
                  },
                  {
                    "reference": "urn:uuid:1a87f266-6401-4d8e-bf50-f46ba307fdbd"
                  },
                  {
                    "reference": "urn:uuid:92505597-639a-447b-b0c2-33d60c96e884"
                  },
                  {
                    "reference": "urn:uuid:8023048d-b956-46a6-bb2a-82663dc29360"
                  },
                  {
                    "reference": "urn:uuid:3ef7ae16-9f05-4bc4-a42e-636254fb6af3"
                  },
                  {
                    "reference": "urn:uuid:8a302937-b95e-4e31-9ea4-71389766085f"
                  },
                  {
                    "reference": "urn:uuid:09a32bfa-222e-41ff-af6e-d9bc5c8531cf"
                  },
                  {
                    "reference": "urn:uuid:fa73cd47-02f2-4493-b803-0009d37dfdbb"
                  },
                  {
                    "reference": "urn:uuid:28bde9cd-744e-48ff-849f-99bb45d8a449"
                  },
                  {
                    "reference": "urn:uuid:8f69d4e5-faa3-4668-abed-4031c7c76b7f"
                  },
                  {
                    "reference": "urn:uuid:135de177-0ec6-47e5-beed-8310c27712d0"
                  },
                  {
                    "reference": "urn:uuid:efb8fbb0-0e0f-4e88-bfc1-92cec1587cad"
                  },
                  {
                    "reference": "urn:uuid:69881ecc-4a6c-4b39-bc25-b52e5149496f"
                  },
                  {
                    "reference": "urn:uuid:959f458f-c2ae-4958-8295-4fb30e964874"
                  }
                ],
                "text": {
                  "status": "generated",
                  "div": "<div xmlns=\"http://www.w3.org/1999/xhtml\"><h3>Chemistry</h3><table class=\"hl7__eu__lab__report\"><thead><tr><th>Test</th><th>21-AUG-2022</th><th>Reference&#xA0;Range</th><th>Unit</th></tr></thead><tbody><tr><td>Glucose [Mass/volume] in Serum or Plasma</td><td><strong>67.6 L</strong></td><td>70 - 99</td><td>mg/dL</td></tr><tr><td>Urea nitrogen [Mass/volume] in Serum or Plasma</td><td>17.1</td><td>7 - 20</td><td>mg/dL</td></tr><tr><td>Creatinine [Mass/volume] in Serum or Plasma</td><td><strong>2.0 H</strong></td><td>0.6 - 1.3</td><td>mg/dL</td></tr><tr><td>Calcium [Mass/volume] in Serum or Plasma</td><td>9.9</td><td>8.6 - 10.4</td><td>mg/dL</td></tr><tr><td>Sodium [Moles/volume] in Serum or Plasma</td><td>142.5</td><td>135 - 145</td><td>mmol/L</td></tr><tr><td>Potassium [Moles/volume] in Serum or Plasma</td><td><strong>5.1 H</strong></td><td>3.5 - 5</td><td>mmol/L</td></tr><tr><td>Chloride [Moles/volume] in Serum or Plasma</td><td><strong>107.6 H</strong></td><td>98 - 106</td><td>mmol/L</td></tr><tr><td>Carbon dioxide, total [Moles/volume] in Serum or Plasma</td><td>27.4</td><td>22 - 29</td><td>mmol/L</td></tr><tr><td>Ketones [Presence] in Urine by Test strip</td><td>Urine ketone test = +</td><td></td><td></td></tr><tr><td>Hemoglobin A1c/Hemoglobin.total in Blood</td><td><strong>2.9 L</strong></td><td>4 - 6</td><td>%</td></tr><tr><td>Glucose [Mass/volume] in Blood</td><td><strong>67.6 L</strong></td><td>70 - 140</td><td>mg/dL</td></tr><tr><td>Urea nitrogen [Mass/volume] in Blood</td><td>17.1</td><td>7 - 25</td><td>mg/dL</td></tr><tr><td>Creatinine [Mass/volume] in Blood</td><td><strong>2.0 H</strong></td><td>0.6 - 1.1</td><td>mg/dL</td></tr><tr><td>Calcium [Mass/volume] in Blood</td><td>9.9</td><td>8.6 - 10.4</td><td>mg/dL</td></tr><tr><td>Sodium [Moles/volume] in Blood</td><td>142.5</td><td>135 - 145</td><td>mmol/L</td></tr><tr><td>Potassium [Moles/volume] in Blood</td><td>5.1</td><td>3.5 - 5.1</td><td>mmol/L</td></tr><tr><td>Chloride [Moles/volume] in Blood</td><td>107.6</td><td>98 - 110</td><td>mmol/L</td></tr><tr><td>Carbon dioxide, total [Moles/volume] in Blood</td><td>27.4</td><td>22 - 29</td><td>mmol/L</td></tr></tbody></table></div>"
                },
                "title": "Chemistry"
              },
              {
                "code": {
                  "coding": [
                    {
                      "code": "$18729-4",
                      "system": "http://loinc.org",
                      "display": "Urinalysis studies (set)"
                    }
                  ],
                  "text": "Urinalysis"
                },
                "entry": [
                  {
                    "reference": "urn:uuid:963eb083-a36f-4354-9db4-82a8ed3a92f7"
                  },
                  {
                    "reference": "urn:uuid:726d5369-6c55-460c-a0bb-73e969e87a51"
                  },
                  {
                    "reference": "urn:uuid:038bd58a-7291-48e7-890b-2c067604a9e6"
                  },
                  {
                    "reference": "urn:uuid:73f0ad10-251f-4663-9c4e-a091bc19ef79"
                  },
                  {
                    "reference": "urn:uuid:93aa2568-3955-4730-a385-973ecc550fcc"
                  },
                  {
                    "reference": "urn:uuid:50427d34-0fa1-47c4-9008-ba6acf208a67"
                  },
                  {
                    "reference": "urn:uuid:a58b1ae4-fdfd-4778-bfef-a799ab314566"
                  },
                  {
                    "reference": "urn:uuid:2e260acc-2a7d-4f77-84e9-728d9d5f1dc7"
                  },
                  {
                    "reference": "urn:uuid:24ec20f1-f327-4fe2-8691-b6c63357dea2"
                  },
                  {
                    "reference": "urn:uuid:1470d0a4-be5a-49d6-9899-792bbfaedda2"
                  },
                  {
                    "reference": "urn:uuid:efa925c7-748f-4ed4-b959-aa4b77c62efa"
                  },
                  {
                    "reference": "urn:uuid:9f57ac6c-9a46-4ccf-a0a4-1199f34b8b27"
                  }
                ],
                "text": {
                  "status": "generated",
                  "div": "<div xmlns=\"http://www.w3.org/1999/xhtml\"><h3>Urinalysis</h3><table class=\"hl7__eu__lab__report\"><thead><tr><th>Test</th><th>21-AUG-2022</th><th>Reference&#xA0;Range</th><th>Unit</th></tr></thead><tbody><tr><td>Glucose [Mass/volume] in Urine by Test strip</td><td><strong>1.8 H</strong></td><td>0 - 0.8</td><td>mg/dL</td></tr><tr><td>Glucose [Presence] in Urine by Test strip</td><td>++</td><td></td><td></td></tr><tr><td>Bilirubin.total [Mass/volume] in Urine by Test strip</td><td><strong>1.2 H</strong></td><td>0 - 1</td><td>mg/dL</td></tr><tr><td>Bilirubin.total [Presence] in Urine by Test strip</td><td>Finding of bilirubin in urine</td><td></td><td></td></tr><tr><td>Ketones [Mass/volume] in Urine by Test strip</td><td><strong>10.4 H</strong></td><td>0 - 4</td><td>mg/dL</td></tr><tr><td>Specific gravity of Urine by Test strip</td><td><strong>1.0 L</strong></td><td>1.005 - 1.03</td><td>{nominal}</td></tr><tr><td>pH of Urine by Test strip</td><td>6.1</td><td>4.5 - 7</td><td>pH</td></tr><tr><td>Protein [Mass/volume] in Urine by Test strip</td><td><strong>226.7 H</strong></td><td>0 - 145</td><td>mg/dL</td></tr><tr><td>Protein [Presence] in Urine by Test strip</td><td>Urine protein test = ++</td><td></td><td></td></tr><tr><td>Nitrite [Presence] in Urine by Test strip</td><td>Urine nitrite negative</td><td></td><td></td></tr><tr><td>Hemoglobin [Presence] in Urine by Test strip</td><td>Urine blood test = negative</td><td></td><td></td></tr><tr><td>Leukocyte esterase [Presence] in Urine by Test strip</td><td>Urine leukocyte test negative</td><td></td><td></td></tr></tbody></table></div>"
                },
                "title": "Urinalysis"
              },
              {
                "code": {
                  "coding": [
                    {
                      "code": "$LP7846-1",
                      "system": "http://loinc.org",
                      "display": "Specimen information"
                    }
                  ],
                  "text": "Specimen information"
                },
                "entry": [
                  {
                    "reference": "urn:uuid:776c9f85-a32b-4aa0-bb3f-3b911da1d811"
                  },
                  {
                    "reference": "urn:uuid:c5e98b51-706d-483c-ad86-26d513ab0bd5"
                  },
                  {
                    "reference": "urn:uuid:c8bbb42e-a75d-493c-9732-9554635d3b0a"
                  },
                  {
                    "reference": "urn:uuid:1f7b3621-c2db-4c7e-b207-a8ea686ca833"
                  }
                ],
                "text": {
                  "status": "generated",
                  "div": "<div xmlns=\"http://www.w3.org/1999/xhtml\"><h3>Specimen information</h3><table class=\"hl7__eu__lab__report\"><thead><tr><th>Test</th><th>21-AUG-2022</th><th>Specimen</th><th></th></tr></thead><tbody><tr><td>Appearance of Urine</td><td>Cloudy urine</td><td>Urine</td><td></td></tr><tr><td>Odor of Urine</td><td>Urine smell ammoniacal</td><td>Urine</td><td></td></tr><tr><td>Clarity of Urine</td><td>Translucent</td><td>Urine</td><td></td></tr><tr><td>Color of Urine</td><td>Brown color</td><td>Urine</td><td></td></tr></tbody></table></div>"
                },
                "title": "Specimen information"
              }
            ],
            "title": "Laboratory Report"
          },
          {
            "text": {
              "status": "generated",
              "div": "<div xmlns=\"http://www.w3.org/1999/xhtml\"><h3>Annotation</h3><table class=\"hl7__eu__lab__report\"><tr><th>Conclusion and Recommendations based on this report and previous findings known to us</th></tr><tr><td>The patient shows elevated creatinine, proteinuria, and abnormal urine findings (cloudy, brown, low specific gravity), suggesting possible renal dysfunction. Mild hyperkalemia and hyperchloremia are present. Blood glucose and HbA1c are low, with glycosuria and ketonuria, raising concern for hypoglycemia and possible metabolic derangement. No evidence of urinary infection. Recommend urgent clinical correlation for renal impairment and metabolic status.</td></tr></table></div>"
            },
            "code": {
              "coding": [
                {
                  "system": "http://loinc.org",
                  "code": "48767-8",
                  "display": "Annotation comment"
                }
              ]
            },
            "title": "Annotation comment"
          }
        ],
        "status": "final",
        "subject": {
          "reference": "urn:uuid:00299ea9-1dc1-41f0-a52c-1ac43943c8d4",
          "display": "Iva Kratochvílová"
        },
        "date": "2022-08-21T18:10:29Z",
        "title": "Laboratory Report",
        "confidentiality": "N"
      }
    },
    {
      "fullUrl": "urn:uuid:baa8350a-ac60-40f8-9aff-7c0031faea65",
      "resource": {
        "resourceType": "DiagnosticReport",
        "id": "baa8350a-ac60-40f8-9aff-7c0031faea65",
        "meta": {
          "profile": [
            "http://hl7.eu/fhir/laboratory/StructureDefinition/DiagnosticReport-eu-lab"
          ]
        },
        "identifier": [
          {
            "assigner": {
              "display": "HL7 Europe"
            },
            "system": "urn:oid:2.16.840.1.113883.2.51.999",
            "value": "348ce7a2-ea22-4a84-a1ca-2b11cc754541"
          }
        ],
        "extension": [
          {
            "url": "http://hl7.org/fhir/5.0/StructureDefinition/extension-DiagnosticReport.composition",
            "valueReference": {
              "reference": "urn:uuid:18e069cf-45da-4939-8b7c-430193e76a9f"
            }
          }
        ],
        "category": [
          {
            "coding": [
              {
                "code": "26436-6",
                "system": "http://loinc.org",
                "display": "Laboratory studies (set)"
              }
            ]
          }
        ],
        "specimen": [
          {
            "reference": "urn:uuid:1db4e668-4f2d-496b-98cb-da47c96a4c8f"
          },
          {
            "reference": "urn:uuid:15a69012-11ab-486c-b010-72b983519853"
          },
          {
            "reference": "urn:uuid:075587cf-e982-4822-b2de-09e6fedae289"
          }
        ],
        "result": [
          {
            "reference": "urn:uuid:4129c5a6-ecc9-4bf9-a3a0-3285f4b63c29"
          },
          {
            "reference": "urn:uuid:8c59ce04-4b0a-47ac-9eb7-a325c6daa100"
          },
          {
            "reference": "urn:uuid:e869f464-163a-468a-bca9-4055a65349c2"
          },
          {
            "reference": "urn:uuid:8f9deeec-a9aa-4aa4-8aba-c0c4cea872dc"
          },
          {
            "reference": "urn:uuid:d6388ee9-52ca-4704-a271-1bcc69f59442"
          },
          {
            "reference": "urn:uuid:1a87f266-6401-4d8e-bf50-f46ba307fdbd"
          },
          {
            "reference": "urn:uuid:92505597-639a-447b-b0c2-33d60c96e884"
          },
          {
            "reference": "urn:uuid:8023048d-b956-46a6-bb2a-82663dc29360"
          },
          {
            "reference": "urn:uuid:776c9f85-a32b-4aa0-bb3f-3b911da1d811"
          },
          {
            "reference": "urn:uuid:c5e98b51-706d-483c-ad86-26d513ab0bd5"
          },
          {
            "reference": "urn:uuid:c8bbb42e-a75d-493c-9732-9554635d3b0a"
          },
          {
            "reference": "urn:uuid:1f7b3621-c2db-4c7e-b207-a8ea686ca833"
          },
          {
            "reference": "urn:uuid:963eb083-a36f-4354-9db4-82a8ed3a92f7"
          },
          {
            "reference": "urn:uuid:726d5369-6c55-460c-a0bb-73e969e87a51"
          },
          {
            "reference": "urn:uuid:038bd58a-7291-48e7-890b-2c067604a9e6"
          },
          {
            "reference": "urn:uuid:73f0ad10-251f-4663-9c4e-a091bc19ef79"
          },
          {
            "reference": "urn:uuid:93aa2568-3955-4730-a385-973ecc550fcc"
          },
          {
            "reference": "urn:uuid:3ef7ae16-9f05-4bc4-a42e-636254fb6af3"
          },
          {
            "reference": "urn:uuid:50427d34-0fa1-47c4-9008-ba6acf208a67"
          },
          {
            "reference": "urn:uuid:a58b1ae4-fdfd-4778-bfef-a799ab314566"
          },
          {
            "reference": "urn:uuid:2e260acc-2a7d-4f77-84e9-728d9d5f1dc7"
          },
          {
            "reference": "urn:uuid:24ec20f1-f327-4fe2-8691-b6c63357dea2"
          },
          {
            "reference": "urn:uuid:1470d0a4-be5a-49d6-9899-792bbfaedda2"
          },
          {
            "reference": "urn:uuid:efa925c7-748f-4ed4-b959-aa4b77c62efa"
          },
          {
            "reference": "urn:uuid:9f57ac6c-9a46-4ccf-a0a4-1199f34b8b27"
          },
          {
            "reference": "urn:uuid:8a302937-b95e-4e31-9ea4-71389766085f"
          },
          {
            "reference": "urn:uuid:09a32bfa-222e-41ff-af6e-d9bc5c8531cf"
          },
          {
            "reference": "urn:uuid:fa73cd47-02f2-4493-b803-0009d37dfdbb"
          },
          {
            "reference": "urn:uuid:28bde9cd-744e-48ff-849f-99bb45d8a449"
          },
          {
            "reference": "urn:uuid:8f69d4e5-faa3-4668-abed-4031c7c76b7f"
          },
          {
            "reference": "urn:uuid:135de177-0ec6-47e5-beed-8310c27712d0"
          },
          {
            "reference": "urn:uuid:efb8fbb0-0e0f-4e88-bfc1-92cec1587cad"
          },
          {
            "reference": "urn:uuid:69881ecc-4a6c-4b39-bc25-b52e5149496f"
          },
          {
            "reference": "urn:uuid:959f458f-c2ae-4958-8295-4fb30e964874"
          }
        ],
        "status": "registered",
        "code": {
          "coding": [
            {
              "code": "11502-2",
              "system": "http://loinc.org",
              "display": "Laboratory report"
            }
          ]
        },
        "subject": {
          "reference": "urn:uuid:00299ea9-1dc1-41f0-a52c-1ac43943c8d4",
          "display": "Iva Kratochvílová"
        }
      }
    },
    {
      "fullUrl": "urn:uuid:00299ea9-1dc1-41f0-a52c-1ac43943c8d4",
      "resource": {
        "resourceType": "Patient",
        "id": "00299ea9-1dc1-41f0-a52c-1ac43943c8d4",
        "meta": {
          "security": [
            {
              "system": "http://terminology.hl7.org/CodeSystem/v3-ActReason",
              "code": "HTEST"
            },
            {
              "system": "http://terminology.hl7.org/CodeSystem/v3-ActReason",
              "code": "TRAIN"
            }
          ],
          "tag": [
            {
              "system": "https://synderai.net/fhir/CodeSystem/tags",
              "code": "synthetic",
              "display": "SYNDERAI Synthetic data"
            }
          ],
          "profile": [
            "http://hl7.eu/fhir/base/StructureDefinition/patient-eu-core"
          ]
        },
        "identifier": [
          {
            "type": {
              "coding": [
                {
                  "code": "PT",
                  "system": "http://terminology.hl7.org/CodeSystem/v2-0203"
                }
              ]
            },
            "system": "http://ec.europa.eu/identifier/eci",
            "value": "4380-389488-0"
          },
          {
            "type": {
              "coding": [
                {
                  "code": "MR",
                  "system": "http://terminology.hl7.org/CodeSystem/v2-0203"
                }
              ]
            },
            "system": "http://local.setting.eu/identifier",
            "value": "f8f9ebdc-03dd-2fc0-819c-affa4ffd7f67"
          }
        ],
        "name": [
          {
            "family": "Kratochvílová"
          },
          {
            "given": [
              "Iva"
            ]
          },
          {
            "text": "Iva Kratochvílová"
          }
        ],
        "address": [
          {
            "line": [
              "Žofie Podlipské 4"
            ],
            "use": "home",
            "type": "physical",
            "postalCode": "27324",
            "city": "Postoloprty",
            "country": "Czechia"
          }
        ],
        "telecom": [
          {
            "system": "phone",
            "value": "00420 607 985 072"
          }
        ],
        "extension": [
          {
            "url": "http://hl7.org/fhir/StructureDefinition/patient-nationality",
            "valueCodeableConcept": {
              "coding": [
                {
                  "code": "CZ",
                  "system": "http://hl7.org/fhir/ValueSet/country"
                }
              ]
            }
          }
        ],
        "text": {
          "status": "generated",
          "div": "<div xmlns=\"http://www.w3.org/1999/xhtml\"><table class=\"hl7__ips\"><tr><td>Iva Kratochvílová</td><td>female</td><td>17-Sep-1964</td></tr></table></div>"
        },
        "gender": "female",
        "birthDate": "1964-09-17"
      }
    },
    {
      "fullUrl": "urn:uuid:ddc04332-dc60-40e4-8ff1-e368fc5acc74",
      "resource": {
        "resourceType": "ServiceRequest",
        "id": "ddc04332-dc60-40e4-8ff1-e368fc5acc74",
        "meta": {
          "profile": [
            "http://hl7.eu/fhir/laboratory/StructureDefinition/ServiceRequest-eu-lab"
          ]
        },
        "identifier": [
          {
            "system": "http://example.org",
            "value": "9466b6d2-0a26-480e-b090-413aeb518240"
          }
        ],
        "specimen": [
          {
            "reference": "urn:uuid:1db4e668-4f2d-496b-98cb-da47c96a4c8f"
          },
          {
            "reference": "urn:uuid:15a69012-11ab-486c-b010-72b983519853"
          },
          {
            "reference": "urn:uuid:075587cf-e982-4822-b2de-09e6fedae289"
          }
        ],
        "reasonCode": [
          {
            "coding": [
              {
                "code": "431856006",
                "system": "http://snomed.info/sct",
                "display": "Chronic kidney disease stage 2"
              }
            ]
          },
          {
            "coding": [
              {
                "code": "431855005",
                "system": "http://snomed.info/sct",
                "display": "Chronic kidney disease stage 1"
              }
            ]
          },
          {
            "coding": [
              {
                "code": "237602007",
                "system": "http://snomed.info/sct",
                "display": "Metabolic syndrome X"
              }
            ]
          },
          {
            "coding": [
              {
                "code": "91302008",
                "system": "http://snomed.info/sct",
                "display": "Sepsis"
              }
            ]
          },
          {
            "coding": [
              {
                "code": "271737000",
                "system": "http://snomed.info/sct",
                "display": "Anemia"
              }
            ]
          },
          {
            "coding": [
              {
                "code": "15777000",
                "system": "http://snomed.info/sct",
                "display": "Prediabetes"
              }
            ]
          },
          {
            "coding": [
              {
                "code": "157141000119108",
                "system": "http://snomed.info/sct",
                "display": "Proteinuria due to type 2 diabetes mellitus"
              }
            ]
          },
          {
            "coding": [
              {
                "code": "90781000119102",
                "system": "http://snomed.info/sct",
                "display": "Microalbuminuria due to type 2 diabetes mellitus"
              }
            ]
          },
          {
            "coding": [
              {
                "code": "239872002",
                "system": "http://snomed.info/sct",
                "display": "Osteoarthritis of hip"
              }
            ]
          },
          {
            "coding": [
              {
                "code": "40055000",
                "system": "http://snomed.info/sct",
                "display": "Chronic sinusitis"
              }
            ]
          },
          {
            "coding": [
              {
                "code": "127013003",
                "system": "http://snomed.info/sct",
                "display": "Disorder of kidney due to diabetes mellitus"
              }
            ]
          },
          {
            "coding": [
              {
                "code": "59621000",
                "system": "http://snomed.info/sct",
                "display": "Essential hypertension"
              }
            ]
          }
        ],
        "status": "active",
        "intent": "order",
        "code": {
          "coding": [
            {
              "code": "108252007",
              "system": "http://snomed.info/sct",
              "display": "Laboratory procedure"
            }
          ]
        },
        "subject": {
          "reference": "urn:uuid:00299ea9-1dc1-41f0-a52c-1ac43943c8d4",
          "display": "Iva Kratochvílová"
        },
        "requester": {
          "reference": "urn:uuid:413725ee-de1e-4f0e-999e-83317b07e2db"
        }
      }
    },
    {
      "fullUrl": "urn:uuid:413725ee-de1e-4f0e-999e-83317b07e2db",
      "resource": {
        "resourceType": "PractitionerRole",
        "id": "413725ee-de1e-4f0e-999e-83317b07e2db",
        "meta": {
          "profile": [
            "http://hl7.eu/fhir/base/StructureDefinition/practitionerRole-eu"
          ]
        },
        "text": {
          "status": "generated",
          "div": "<div xmlns=\"http://www.w3.org/1999/xhtml\">Provider Role Id: 413725ee-de1e-4f0e-999e-83317b07e2db</div>"
        },
        "organization": {
          "reference": "urn:uuid:57565103-a6c2-4d01-a406-2c2e35c37428"
        }
      }
    },
    {
      "fullUrl": "urn:uuid:57565103-a6c2-4d01-a406-2c2e35c37428",
      "resource": {
        "resourceType": "Organization",
        "id": "57565103-a6c2-4d01-a406-2c2e35c37428",
        "meta": {
          "profile": [
            "http://hl7.eu/fhir/base/StructureDefinition/organization-eu"
          ]
        },
        "identifier": [
          {
            "assigner": {
              "display": "HL7 Europe"
            },
            "system": "urn:oid:2.16.840.1.113883.2.51.999",
            "value": "475c861c-e435-44bd-ae20-f8d3ccc9264d"
          }
        ],
        "address": [
          {
            "city": "Kadaň",
            "postalCode": "432 01",
            "country": "Czechia"
          }
        ],
        "text": {
          "status": "generated",
          "div": "<div xmlns=\"http://www.w3.org/1999/xhtml\">Provider Organization: Nemocnice s poliklinikou Kadaň</div>"
        },
        "name": "Nemocnice s poliklinikou Kadaň"
      }
    },
    {
      "fullUrl": "urn:uuid:1db4e668-4f2d-496b-98cb-da47c96a4c8f",
      "resource": {
        "resourceType": "Specimen",
        "id": "1db4e668-4f2d-496b-98cb-da47c96a4c8f",
        "meta": {
          "profile": [
            "http://hl7.eu/fhir/laboratory/StructureDefinition/Specimen-eu-lab"
          ]
        },
        "collection": {
          "collectedDateTime": "2022-08-21"
        },
        "text": {
          "status": "generated",
          "div": "<div xmlns=\"http://www.w3.org/1999/xhtml\"><table class=\"hl7__eu__lab__report\"><tr><th>Specimen</th><th>Collection Date</th></tr><tr><td>Acellular blood (serum or plasma) specimen</td><td><span class=\"nb\">21-Aug-2022</span></td></tr></table></div>"
        },
        "type": {
          "coding": [
            {
              "code": "122592007",
              "system": "http://snomed.info/sct",
              "display": "Acellular blood (serum or plasma) specimen"
            }
          ]
        }
      }
    },
    {
      "fullUrl": "urn:uuid:15a69012-11ab-486c-b010-72b983519853",
      "resource": {
        "resourceType": "Specimen",
        "id": "15a69012-11ab-486c-b010-72b983519853",
        "meta": {
          "profile": [
            "http://hl7.eu/fhir/laboratory/StructureDefinition/Specimen-eu-lab"
          ]
        },
        "collection": {
          "collectedDateTime": "2022-08-21"
        },
        "text": {
          "status": "generated",
          "div": "<div xmlns=\"http://www.w3.org/1999/xhtml\"><table class=\"hl7__eu__lab__report\"><tr><th>Specimen</th><th>Collection Date</th></tr><tr><td>Urine specimen</td><td><span class=\"nb\">21-Aug-2022</span></td></tr></table></div>"
        },
        "type": {
          "coding": [
            {
              "code": "122575003",
              "system": "http://snomed.info/sct",
              "display": "Urine specimen"
            }
          ]
        }
      }
    },
    {
      "fullUrl": "urn:uuid:075587cf-e982-4822-b2de-09e6fedae289",
      "resource": {
        "resourceType": "Specimen",
        "id": "075587cf-e982-4822-b2de-09e6fedae289",
        "meta": {
          "profile": [
            "http://hl7.eu/fhir/laboratory/StructureDefinition/Specimen-eu-lab"
          ]
        },
        "collection": {
          "collectedDateTime": "2022-08-21"
        },
        "text": {
          "status": "generated",
          "div": "<div xmlns=\"http://www.w3.org/1999/xhtml\"><table class=\"hl7__eu__lab__report\"><tr><th>Specimen</th><th>Collection Date</th></tr><tr><td>Whole blood specimen (specimen)</td><td><span class=\"nb\">21-Aug-2022</span></td></tr></table></div>"
        },
        "type": {
          "coding": [
            {
              "code": "258580003",
              "system": "http://snomed.info/sct",
              "display": "Whole blood specimen (specimen)"
            }
          ]
        }
      }
    },
    {
      "fullUrl": "urn:uuid:4129c5a6-ecc9-4bf9-a3a0-3285f4b63c29",
      "resource": {
        "resourceType": "Observation",
        "id": "4129c5a6-ecc9-4bf9-a3a0-3285f4b63c29",
        "meta": {
          "profile": [
            "http://hl7.eu/fhir/laboratory/StructureDefinition/Observation-resultslab-eu-lab"
          ]
        },
        "performer": [
          {
            "display": "The Central European Lab"
          }
        ],
        "category": [
          {
            "coding": [
              {
                "system": "http://terminology.hl7.org/CodeSystem/observation-category",
                "code": "laboratory"
              }
            ]
          }
        ],
        "code": {
          "coding": [
            {
              "code": "2345-7",
              "system": "http://loinc.org",
              "display": "Glucose [Mass/volume] in Serum or Plasma"
            }
          ],
          "text": "Glucose [Mass/volume] in Serum or Plasma"
        },
        "valueQuantity": {
          "system": "http://unitsofmeasure.org",
          "value": 67.6,
          "unit": "mg/dL",
          "code": "mg/dL"
        },
        "referenceRange": [
          {
            "low": {
              "value": 70,
              "code": "mg/dL",
              "system": "http://unitsofmeasure.org"
            }
          },
          {
            "high": {
              "value": 99,
              "code": "mg/dL",
              "system": "http://unitsofmeasure.org"
            }
          }
        ],
        "interpretation": [
          {
            "coding": [
              {
                "code": "L",
                "system": "http://terminology.hl7.org/CodeSystem/v3-ObservationInterpretation",
                "display": "Low"
              }
            ]
          }
        ],
        "text": {
          "status": "generated",
          "div": "<div xmlns=\"http://www.w3.org/1999/xhtml\"><table class=\"hl7__eu__lab__report\"><tr><th>Test</th><th>21-Aug-2022</th><th>Reference&#xA0;Range</th><th>Unit</th></tr><tr><td>Glucose [Mass/volume] in Serum or Plasma</td><td>67.6</td><td>70 - 99</td><td>L</td><td>mg/dL</td></tr></table></div>"
        },
        "status": "final",
        "subject": {
          "reference": "urn:uuid:00299ea9-1dc1-41f0-a52c-1ac43943c8d4",
          "display": "Iva Kratochvílová"
        },
        "effectiveDateTime": "2022-08-21T16:10:29Z",
        "specimen": {
          "reference": "urn:uuid:1db4e668-4f2d-496b-98cb-da47c96a4c8f"
        }
      }
    },
    {
      "fullUrl": "urn:uuid:8c59ce04-4b0a-47ac-9eb7-a325c6daa100",
      "resource": {
        "resourceType": "Observation",
        "id": "8c59ce04-4b0a-47ac-9eb7-a325c6daa100",
        "meta": {
          "profile": [
            "http://hl7.eu/fhir/laboratory/StructureDefinition/Observation-resultslab-eu-lab"
          ]
        },
        "performer": [
          {
            "display": "The Central European Lab"
          }
        ],
        "category": [
          {
            "coding": [
              {
                "system": "http://terminology.hl7.org/CodeSystem/observation-category",
                "code": "laboratory"
              }
            ]
          }
        ],
        "code": {
          "coding": [
            {
              "code": "3094-0",
              "system": "http://loinc.org",
              "display": "Urea nitrogen [Mass/volume] in Serum or Plasma"
            }
          ],
          "text": "Urea nitrogen [Mass/volume] in Serum or Plasma"
        },
        "valueQuantity": {
          "system": "http://unitsofmeasure.org",
          "value": 17.1,
          "unit": "mg/dL",
          "code": "mg/dL"
        },
        "referenceRange": [
          {
            "low": {
              "value": 7,
              "code": "mg/dL",
              "system": "http://unitsofmeasure.org"
            }
          },
          {
            "high": {
              "value": 20,
              "code": "mg/dL",
              "system": "http://unitsofmeasure.org"
            }
          }
        ],
        "text": {
          "status": "generated",
          "div": "<div xmlns=\"http://www.w3.org/1999/xhtml\"><table class=\"hl7__eu__lab__report\"><tr><th>Test</th><th>21-Aug-2022</th><th>Reference&#xA0;Range</th><th>Unit</th></tr><tr><td>Urea nitrogen [Mass/volume] in Serum or Plasma</td><td>17.1</td><td>7 - 20</td><td></td><td>mg/dL</td></tr></table></div>"
        },
        "status": "final",
        "subject": {
          "reference": "urn:uuid:00299ea9-1dc1-41f0-a52c-1ac43943c8d4",
          "display": "Iva Kratochvílová"
        },
        "effectiveDateTime": "2022-08-21T16:10:29Z",
        "specimen": {
          "reference": "urn:uuid:1db4e668-4f2d-496b-98cb-da47c96a4c8f"
        }
      }
    },
    {
      "fullUrl": "urn:uuid:e869f464-163a-468a-bca9-4055a65349c2",
      "resource": {
        "resourceType": "Observation",
        "id": "e869f464-163a-468a-bca9-4055a65349c2",
        "meta": {
          "profile": [
            "http://hl7.eu/fhir/laboratory/StructureDefinition/Observation-resultslab-eu-lab"
          ]
        },
        "performer": [
          {
            "display": "The Central European Lab"
          }
        ],
        "category": [
          {
            "coding": [
              {
                "system": "http://terminology.hl7.org/CodeSystem/observation-category",
                "code": "laboratory"
              }
            ]
          }
        ],
        "code": {
          "coding": [
            {
              "code": "2160-0",
              "system": "http://loinc.org",
              "display": "Creatinine [Mass/volume] in Serum or Plasma"
            }
          ],
          "text": "Creatinine [Mass/volume] in Serum or Plasma"
        },
        "valueQuantity": {
          "system": "http://unitsofmeasure.org",
          "value": 2,
          "unit": "mg/dL",
          "code": "mg/dL"
        },
        "referenceRange": [
          {
            "low": {
              "value": 0.6,
              "code": "mg/dL",
              "system": "http://unitsofmeasure.org"
            }
          },
          {
            "high": {
              "value": 1.3,
              "code": "mg/dL",
              "system": "http://unitsofmeasure.org"
            }
          }
        ],
        "interpretation": [
          {
            "coding": [
              {
                "code": "H",
                "system": "http://terminology.hl7.org/CodeSystem/v3-ObservationInterpretation",
                "display": "High"
              }
            ]
          }
        ],
        "text": {
          "status": "generated",
          "div": "<div xmlns=\"http://www.w3.org/1999/xhtml\"><table class=\"hl7__eu__lab__report\"><tr><th>Test</th><th>21-Aug-2022</th><th>Reference&#xA0;Range</th><th>Unit</th></tr><tr><td>Creatinine [Mass/volume] in Serum or Plasma</td><td>2.0</td><td>0.6 - 1.3</td><td>H</td><td>mg/dL</td></tr></table></div>"
        },
        "status": "final",
        "subject": {
          "reference": "urn:uuid:00299ea9-1dc1-41f0-a52c-1ac43943c8d4",
          "display": "Iva Kratochvílová"
        },
        "effectiveDateTime": "2022-08-21T16:10:29Z",
        "specimen": {
          "reference": "urn:uuid:1db4e668-4f2d-496b-98cb-da47c96a4c8f"
        }
      }
    },
    {
      "fullUrl": "urn:uuid:8f9deeec-a9aa-4aa4-8aba-c0c4cea872dc",
      "resource": {
        "resourceType": "Observation",
        "id": "8f9deeec-a9aa-4aa4-8aba-c0c4cea872dc",
        "meta": {
          "profile": [
            "http://hl7.eu/fhir/laboratory/StructureDefinition/Observation-resultslab-eu-lab"
          ]
        },
        "performer": [
          {
            "display": "The Central European Lab"
          }
        ],
        "category": [
          {
            "coding": [
              {
                "system": "http://terminology.hl7.org/CodeSystem/observation-category",
                "code": "laboratory"
              }
            ]
          }
        ],
        "code": {
          "coding": [
            {
              "code": "17861-6",
              "system": "http://loinc.org",
              "display": "Calcium [Mass/volume] in Serum or Plasma"
            }
          ],
          "text": "Calcium [Mass/volume] in Serum or Plasma"
        },
        "valueQuantity": {
          "system": "http://unitsofmeasure.org",
          "value": 9.9,
          "unit": "mg/dL",
          "code": "mg/dL"
        },
        "referenceRange": [
          {
            "low": {
              "value": 8.6,
              "code": "mg/dL",
              "system": "http://unitsofmeasure.org"
            }
          },
          {
            "high": {
              "value": 10.4,
              "code": "mg/dL",
              "system": "http://unitsofmeasure.org"
            }
          }
        ],
        "text": {
          "status": "generated",
          "div": "<div xmlns=\"http://www.w3.org/1999/xhtml\"><table class=\"hl7__eu__lab__report\"><tr><th>Test</th><th>21-Aug-2022</th><th>Reference&#xA0;Range</th><th>Unit</th></tr><tr><td>Calcium [Mass/volume] in Serum or Plasma</td><td>9.9</td><td>8.6 - 10.4</td><td></td><td>mg/dL</td></tr></table></div>"
        },
        "status": "final",
        "subject": {
          "reference": "urn:uuid:00299ea9-1dc1-41f0-a52c-1ac43943c8d4",
          "display": "Iva Kratochvílová"
        },
        "effectiveDateTime": "2022-08-21T16:10:29Z",
        "specimen": {
          "reference": "urn:uuid:1db4e668-4f2d-496b-98cb-da47c96a4c8f"
        }
      }
    },
    {
      "fullUrl": "urn:uuid:d6388ee9-52ca-4704-a271-1bcc69f59442",
      "resource": {
        "resourceType": "Observation",
        "id": "d6388ee9-52ca-4704-a271-1bcc69f59442",
        "meta": {
          "profile": [
            "http://hl7.eu/fhir/laboratory/StructureDefinition/Observation-resultslab-eu-lab"
          ]
        },
        "performer": [
          {
            "display": "The Central European Lab"
          }
        ],
        "category": [
          {
            "coding": [
              {
                "system": "http://terminology.hl7.org/CodeSystem/observation-category",
                "code": "laboratory"
              }
            ]
          }
        ],
        "code": {
          "coding": [
            {
              "code": "2951-2",
              "system": "http://loinc.org",
              "display": "Sodium [Moles/volume] in Serum or Plasma"
            }
          ],
          "text": "Sodium [Moles/volume] in Serum or Plasma"
        },
        "valueQuantity": {
          "system": "http://unitsofmeasure.org",
          "value": 142.5,
          "unit": "mmol/L",
          "code": "mmol/L"
        },
        "referenceRange": [
          {
            "low": {
              "value": 135,
              "code": "mmol/L",
              "system": "http://unitsofmeasure.org"
            }
          },
          {
            "high": {
              "value": 145,
              "code": "mmol/L",
              "system": "http://unitsofmeasure.org"
            }
          }
        ],
        "text": {
          "status": "generated",
          "div": "<div xmlns=\"http://www.w3.org/1999/xhtml\"><table class=\"hl7__eu__lab__report\"><tr><th>Test</th><th>21-Aug-2022</th><th>Reference&#xA0;Range</th><th>Unit</th></tr><tr><td>Sodium [Moles/volume] in Serum or Plasma</td><td>142.5</td><td>135 - 145</td><td></td><td>mmol/L</td></tr></table></div>"
        },
        "status": "final",
        "subject": {
          "reference": "urn:uuid:00299ea9-1dc1-41f0-a52c-1ac43943c8d4",
          "display": "Iva Kratochvílová"
        },
        "effectiveDateTime": "2022-08-21T16:10:29Z",
        "specimen": {
          "reference": "urn:uuid:1db4e668-4f2d-496b-98cb-da47c96a4c8f"
        }
      }
    },
    {
      "fullUrl": "urn:uuid:1a87f266-6401-4d8e-bf50-f46ba307fdbd",
      "resource": {
        "resourceType": "Observation",
        "id": "1a87f266-6401-4d8e-bf50-f46ba307fdbd",
        "meta": {
          "profile": [
            "http://hl7.eu/fhir/laboratory/StructureDefinition/Observation-resultslab-eu-lab"
          ]
        },
        "performer": [
          {
            "display": "The Central European Lab"
          }
        ],
        "category": [
          {
            "coding": [
              {
                "system": "http://terminology.hl7.org/CodeSystem/observation-category",
                "code": "laboratory"
              }
            ]
          }
        ],
        "code": {
          "coding": [
            {
              "code": "2823-3",
              "system": "http://loinc.org",
              "display": "Potassium [Moles/volume] in Serum or Plasma"
            }
          ],
          "text": "Potassium [Moles/volume] in Serum or Plasma"
        },
        "valueQuantity": {
          "system": "http://unitsofmeasure.org",
          "value": 5.1,
          "unit": "mmol/L",
          "code": "mmol/L"
        },
        "referenceRange": [
          {
            "low": {
              "value": 3.5,
              "code": "mmol/L",
              "system": "http://unitsofmeasure.org"
            }
          },
          {
            "high": {
              "value": 5,
              "code": "mmol/L",
              "system": "http://unitsofmeasure.org"
            }
          }
        ],
        "interpretation": [
          {
            "coding": [
              {
                "code": "H",
                "system": "http://terminology.hl7.org/CodeSystem/v3-ObservationInterpretation",
                "display": "High"
              }
            ]
          }
        ],
        "text": {
          "status": "generated",
          "div": "<div xmlns=\"http://www.w3.org/1999/xhtml\"><table class=\"hl7__eu__lab__report\"><tr><th>Test</th><th>21-Aug-2022</th><th>Reference&#xA0;Range</th><th>Unit</th></tr><tr><td>Potassium [Moles/volume] in Serum or Plasma</td><td>5.1</td><td>3.5 - 5</td><td>H</td><td>mmol/L</td></tr></table></div>"
        },
        "status": "final",
        "subject": {
          "reference": "urn:uuid:00299ea9-1dc1-41f0-a52c-1ac43943c8d4",
          "display": "Iva Kratochvílová"
        },
        "effectiveDateTime": "2022-08-21T16:10:29Z",
        "specimen": {
          "reference": "urn:uuid:1db4e668-4f2d-496b-98cb-da47c96a4c8f"
        }
      }
    },
    {
      "fullUrl": "urn:uuid:92505597-639a-447b-b0c2-33d60c96e884",
      "resource": {
        "resourceType": "Observation",
        "id": "92505597-639a-447b-b0c2-33d60c96e884",
        "meta": {
          "profile": [
            "http://hl7.eu/fhir/laboratory/StructureDefinition/Observation-resultslab-eu-lab"
          ]
        },
        "performer": [
          {
            "display": "The Central European Lab"
          }
        ],
        "category": [
          {
            "coding": [
              {
                "system": "http://terminology.hl7.org/CodeSystem/observation-category",
                "code": "laboratory"
              }
            ]
          }
        ],
        "code": {
          "coding": [
            {
              "code": "2075-0",
              "system": "http://loinc.org",
              "display": "Chloride [Moles/volume] in Serum or Plasma"
            }
          ],
          "text": "Chloride [Moles/volume] in Serum or Plasma"
        },
        "valueQuantity": {
          "system": "http://unitsofmeasure.org",
          "value": 107.6,
          "unit": "mmol/L",
          "code": "mmol/L"
        },
        "referenceRange": [
          {
            "low": {
              "value": 98,
              "code": "mmol/L",
              "system": "http://unitsofmeasure.org"
            }
          },
          {
            "high": {
              "value": 106,
              "code": "mmol/L",
              "system": "http://unitsofmeasure.org"
            }
          }
        ],
        "interpretation": [
          {
            "coding": [
              {
                "code": "H",
                "system": "http://terminology.hl7.org/CodeSystem/v3-ObservationInterpretation",
                "display": "High"
              }
            ]
          }
        ],
        "text": {
          "status": "generated",
          "div": "<div xmlns=\"http://www.w3.org/1999/xhtml\"><table class=\"hl7__eu__lab__report\"><tr><th>Test</th><th>21-Aug-2022</th><th>Reference&#xA0;Range</th><th>Unit</th></tr><tr><td>Chloride [Moles/volume] in Serum or Plasma</td><td>107.6</td><td>98 - 106</td><td>H</td><td>mmol/L</td></tr></table></div>"
        },
        "status": "final",
        "subject": {
          "reference": "urn:uuid:00299ea9-1dc1-41f0-a52c-1ac43943c8d4",
          "display": "Iva Kratochvílová"
        },
        "effectiveDateTime": "2022-08-21T16:10:29Z",
        "specimen": {
          "reference": "urn:uuid:1db4e668-4f2d-496b-98cb-da47c96a4c8f"
        }
      }
    },
    {
      "fullUrl": "urn:uuid:8023048d-b956-46a6-bb2a-82663dc29360",
      "resource": {
        "resourceType": "Observation",
        "id": "8023048d-b956-46a6-bb2a-82663dc29360",
        "meta": {
          "profile": [
            "http://hl7.eu/fhir/laboratory/StructureDefinition/Observation-resultslab-eu-lab"
          ]
        },
        "performer": [
          {
            "display": "The Central European Lab"
          }
        ],
        "category": [
          {
            "coding": [
              {
                "system": "http://terminology.hl7.org/CodeSystem/observation-category",
                "code": "laboratory"
              }
            ]
          }
        ],
        "code": {
          "coding": [
            {
              "code": "2028-9",
              "system": "http://loinc.org",
              "display": "Carbon dioxide, total [Moles/volume] in Serum or Plasma"
            }
          ],
          "text": "Carbon dioxide, total [Moles/volume] in Serum or Plasma"
        },
        "valueQuantity": {
          "system": "http://unitsofmeasure.org",
          "value": 27.4,
          "unit": "mmol/L",
          "code": "mmol/L"
        },
        "referenceRange": [
          {
            "low": {
              "value": 22,
              "code": "mmol/L",
              "system": "http://unitsofmeasure.org"
            }
          },
          {
            "high": {
              "value": 29,
              "code": "mmol/L",
              "system": "http://unitsofmeasure.org"
            }
          }
        ],
        "text": {
          "status": "generated",
          "div": "<div xmlns=\"http://www.w3.org/1999/xhtml\"><table class=\"hl7__eu__lab__report\"><tr><th>Test</th><th>21-Aug-2022</th><th>Reference&#xA0;Range</th><th>Unit</th></tr><tr><td>Carbon dioxide, total [Moles/volume] in Serum or Plasma</td><td>27.4</td><td>22 - 29</td><td></td><td>mmol/L</td></tr></table></div>"
        },
        "status": "final",
        "subject": {
          "reference": "urn:uuid:00299ea9-1dc1-41f0-a52c-1ac43943c8d4",
          "display": "Iva Kratochvílová"
        },
        "effectiveDateTime": "2022-08-21T16:10:29Z",
        "specimen": {
          "reference": "urn:uuid:1db4e668-4f2d-496b-98cb-da47c96a4c8f"
        }
      }
    },
    {
      "fullUrl": "urn:uuid:776c9f85-a32b-4aa0-bb3f-3b911da1d811",
      "resource": {
        "resourceType": "Observation",
        "id": "776c9f85-a32b-4aa0-bb3f-3b911da1d811",
        "meta": {
          "profile": [
            "http://hl7.eu/fhir/laboratory/StructureDefinition/Observation-resultslab-eu-lab"
          ]
        },
        "performer": [
          {
            "display": "The Central European Lab"
          }
        ],
        "category": [
          {
            "coding": [
              {
                "system": "http://terminology.hl7.org/CodeSystem/observation-category",
                "code": "laboratory"
              }
            ]
          }
        ],
        "code": {
          "coding": [
            {
              "code": "5767-9",
              "system": "http://loinc.org",
              "display": "Appearance of Urine"
            }
          ],
          "text": "Appearance of Urine"
        },
        "text": {
          "status": "generated",
          "div": "<div xmlns=\"http://www.w3.org/1999/xhtml\"><table class=\"hl7__eu__lab__report\"><tr><th>Test</th><th>21-Aug-2022</th><th>Reference&#xA0;Range</th><th>Unit</th></tr><tr><td>Appearance of Urine</td></tr></table></div>"
        },
        "status": "final",
        "subject": {
          "reference": "urn:uuid:00299ea9-1dc1-41f0-a52c-1ac43943c8d4",
          "display": "Iva Kratochvílová"
        },
        "effectiveDateTime": "2022-08-21T16:10:29Z",
        "specimen": {
          "reference": "urn:uuid:15a69012-11ab-486c-b010-72b983519853"
        }
      }
    },
    {
      "fullUrl": "urn:uuid:c5e98b51-706d-483c-ad86-26d513ab0bd5",
      "resource": {
        "resourceType": "Observation",
        "id": "c5e98b51-706d-483c-ad86-26d513ab0bd5",
        "meta": {
          "profile": [
            "http://hl7.eu/fhir/laboratory/StructureDefinition/Observation-resultslab-eu-lab"
          ]
        },
        "performer": [
          {
            "display": "The Central European Lab"
          }
        ],
        "category": [
          {
            "coding": [
              {
                "system": "http://terminology.hl7.org/CodeSystem/observation-category",
                "code": "laboratory"
              }
            ]
          }
        ],
        "code": {
          "coding": [
            {
              "code": "34533-0",
              "system": "http://loinc.org",
              "display": "Odor of Urine"
            }
          ],
          "text": "Odor of Urine"
        },
        "text": {
          "status": "generated",
          "div": "<div xmlns=\"http://www.w3.org/1999/xhtml\"><table class=\"hl7__eu__lab__report\"><tr><th>Test</th><th>21-Aug-2022</th><th>Reference&#xA0;Range</th><th>Unit</th></tr><tr><td>Odor of Urine</td></tr></table></div>"
        },
        "status": "final",
        "subject": {
          "reference": "urn:uuid:00299ea9-1dc1-41f0-a52c-1ac43943c8d4",
          "display": "Iva Kratochvílová"
        },
        "effectiveDateTime": "2022-08-21T16:10:29Z",
        "specimen": {
          "reference": "urn:uuid:15a69012-11ab-486c-b010-72b983519853"
        }
      }
    },
    {
      "fullUrl": "urn:uuid:c8bbb42e-a75d-493c-9732-9554635d3b0a",
      "resource": {
        "resourceType": "Observation",
        "id": "c8bbb42e-a75d-493c-9732-9554635d3b0a",
        "meta": {
          "profile": [
            "http://hl7.eu/fhir/laboratory/StructureDefinition/Observation-resultslab-eu-lab"
          ]
        },
        "performer": [
          {
            "display": "The Central European Lab"
          }
        ],
        "category": [
          {
            "coding": [
              {
                "system": "http://terminology.hl7.org/CodeSystem/observation-category",
                "code": "laboratory"
              }
            ]
          }
        ],
        "code": {
          "coding": [
            {
              "code": "32167-9",
              "system": "http://loinc.org",
              "display": "Clarity of Urine"
            }
          ],
          "text": "Clarity of Urine"
        },
        "text": {
          "status": "generated",
          "div": "<div xmlns=\"http://www.w3.org/1999/xhtml\"><table class=\"hl7__eu__lab__report\"><tr><th>Test</th><th>21-Aug-2022</th><th>Reference&#xA0;Range</th><th>Unit</th></tr><tr><td>Clarity of Urine</td></tr></table></div>"
        },
        "status": "final",
        "subject": {
          "reference": "urn:uuid:00299ea9-1dc1-41f0-a52c-1ac43943c8d4",
          "display": "Iva Kratochvílová"
        },
        "effectiveDateTime": "2022-08-21T16:10:29Z",
        "specimen": {
          "reference": "urn:uuid:15a69012-11ab-486c-b010-72b983519853"
        }
      }
    },
    {
      "fullUrl": "urn:uuid:1f7b3621-c2db-4c7e-b207-a8ea686ca833",
      "resource": {
        "resourceType": "Observation",
        "id": "1f7b3621-c2db-4c7e-b207-a8ea686ca833",
        "meta": {
          "profile": [
            "http://hl7.eu/fhir/laboratory/StructureDefinition/Observation-resultslab-eu-lab"
          ]
        },
        "performer": [
          {
            "display": "The Central European Lab"
          }
        ],
        "category": [
          {
            "coding": [
              {
                "system": "http://terminology.hl7.org/CodeSystem/observation-category",
                "code": "laboratory"
              }
            ]
          }
        ],
        "code": {
          "coding": [
            {
              "code": "5778-6",
              "system": "http://loinc.org",
              "display": "Color of Urine"
            }
          ],
          "text": "Color of Urine"
        },
        "text": {
          "status": "generated",
          "div": "<div xmlns=\"http://www.w3.org/1999/xhtml\"><table class=\"hl7__eu__lab__report\"><tr><th>Test</th><th>21-Aug-2022</th><th>Reference&#xA0;Range</th><th>Unit</th></tr><tr><td>Color of Urine</td></tr></table></div>"
        },
        "status": "final",
        "subject": {
          "reference": "urn:uuid:00299ea9-1dc1-41f0-a52c-1ac43943c8d4",
          "display": "Iva Kratochvílová"
        },
        "effectiveDateTime": "2022-08-21T16:10:29Z",
        "specimen": {
          "reference": "urn:uuid:15a69012-11ab-486c-b010-72b983519853"
        }
      }
    },
    {
      "fullUrl": "urn:uuid:963eb083-a36f-4354-9db4-82a8ed3a92f7",
      "resource": {
        "resourceType": "Observation",
        "id": "963eb083-a36f-4354-9db4-82a8ed3a92f7",
        "meta": {
          "profile": [
            "http://hl7.eu/fhir/laboratory/StructureDefinition/Observation-resultslab-eu-lab"
          ]
        },
        "performer": [
          {
            "display": "The Central European Lab"
          }
        ],
        "category": [
          {
            "coding": [
              {
                "system": "http://terminology.hl7.org/CodeSystem/observation-category",
                "code": "laboratory"
              }
            ]
          }
        ],
        "code": {
          "coding": [
            {
              "code": "5792-7",
              "system": "http://loinc.org",
              "display": "Glucose [Mass/volume] in Urine by Test strip"
            }
          ],
          "text": "Glucose [Mass/volume] in Urine by Test strip"
        },
        "valueQuantity": {
          "system": "http://unitsofmeasure.org",
          "value": 1.8,
          "unit": "mg/dL",
          "code": "mg/dL"
        },
        "referenceRange": [
          {
            "low": {
              "value": 0,
              "code": "mg/dL",
              "system": "http://unitsofmeasure.org"
            }
          },
          {
            "high": {
              "value": 0.8,
              "code": "mg/dL",
              "system": "http://unitsofmeasure.org"
            }
          }
        ],
        "interpretation": [
          {
            "coding": [
              {
                "code": "H",
                "system": "http://terminology.hl7.org/CodeSystem/v3-ObservationInterpretation",
                "display": "High"
              }
            ]
          }
        ],
        "text": {
          "status": "generated",
          "div": "<div xmlns=\"http://www.w3.org/1999/xhtml\"><table class=\"hl7__eu__lab__report\"><tr><th>Test</th><th>21-Aug-2022</th><th>Reference&#xA0;Range</th><th>Unit</th></tr><tr><td>Glucose [Mass/volume] in Urine by Test strip</td><td>1.8</td><td>0 - 0.8</td><td>H</td><td>mg/dL</td></tr></table></div>"
        },
        "status": "final",
        "subject": {
          "reference": "urn:uuid:00299ea9-1dc1-41f0-a52c-1ac43943c8d4",
          "display": "Iva Kratochvílová"
        },
        "effectiveDateTime": "2022-08-21T16:10:29Z",
        "specimen": {
          "reference": "urn:uuid:15a69012-11ab-486c-b010-72b983519853"
        }
      }
    },
    {
      "fullUrl": "urn:uuid:726d5369-6c55-460c-a0bb-73e969e87a51",
      "resource": {
        "resourceType": "Observation",
        "id": "726d5369-6c55-460c-a0bb-73e969e87a51",
        "meta": {
          "profile": [
            "http://hl7.eu/fhir/laboratory/StructureDefinition/Observation-resultslab-eu-lab"
          ]
        },
        "performer": [
          {
            "display": "The Central European Lab"
          }
        ],
        "category": [
          {
            "coding": [
              {
                "system": "http://terminology.hl7.org/CodeSystem/observation-category",
                "code": "laboratory"
              }
            ]
          }
        ],
        "code": {
          "coding": [
            {
              "code": "25428-4",
              "system": "http://loinc.org",
              "display": "Glucose [Presence] in Urine by Test strip"
            }
          ],
          "text": "Glucose [Presence] in Urine by Test strip"
        },
        "text": {
          "status": "generated",
          "div": "<div xmlns=\"http://www.w3.org/1999/xhtml\"><table class=\"hl7__eu__lab__report\"><tr><th>Test</th><th>21-Aug-2022</th><th>Reference&#xA0;Range</th><th>Unit</th></tr><tr><td>Glucose [Presence] in Urine by Test strip</td></tr></table></div>"
        },
        "status": "final",
        "subject": {
          "reference": "urn:uuid:00299ea9-1dc1-41f0-a52c-1ac43943c8d4",
          "display": "Iva Kratochvílová"
        },
        "effectiveDateTime": "2022-08-21T16:10:29Z",
        "specimen": {
          "reference": "urn:uuid:15a69012-11ab-486c-b010-72b983519853"
        }
      }
    },
    {
      "fullUrl": "urn:uuid:038bd58a-7291-48e7-890b-2c067604a9e6",
      "resource": {
        "resourceType": "Observation",
        "id": "038bd58a-7291-48e7-890b-2c067604a9e6",
        "meta": {
          "profile": [
            "http://hl7.eu/fhir/laboratory/StructureDefinition/Observation-resultslab-eu-lab"
          ]
        },
        "performer": [
          {
            "display": "The Central European Lab"
          }
        ],
        "category": [
          {
            "coding": [
              {
                "system": "http://terminology.hl7.org/CodeSystem/observation-category",
                "code": "laboratory"
              }
            ]
          }
        ],
        "code": {
          "coding": [
            {
              "code": "20505-4",
              "system": "http://loinc.org",
              "display": "Bilirubin.total [Mass/volume] in Urine by Test strip"
            }
          ],
          "text": "Bilirubin.total [Mass/volume] in Urine by Test strip"
        },
        "valueQuantity": {
          "system": "http://unitsofmeasure.org",
          "value": 1.2,
          "unit": "mg/dL",
          "code": "mg/dL"
        },
        "referenceRange": [
          {
            "low": {
              "value": 0,
              "code": "mg/dL",
              "system": "http://unitsofmeasure.org"
            }
          },
          {
            "high": {
              "value": 1,
              "code": "mg/dL",
              "system": "http://unitsofmeasure.org"
            }
          }
        ],
        "interpretation": [
          {
            "coding": [
              {
                "code": "H",
                "system": "http://terminology.hl7.org/CodeSystem/v3-ObservationInterpretation",
                "display": "High"
              }
            ]
          }
        ],
        "text": {
          "status": "generated",
          "div": "<div xmlns=\"http://www.w3.org/1999/xhtml\"><table class=\"hl7__eu__lab__report\"><tr><th>Test</th><th>21-Aug-2022</th><th>Reference&#xA0;Range</th><th>Unit</th></tr><tr><td>Bilirubin.total [Mass/volume] in Urine by Test strip</td><td>1.2</td><td>0 - 1</td><td>H</td><td>mg/dL</td></tr></table></div>"
        },
        "status": "final",
        "subject": {
          "reference": "urn:uuid:00299ea9-1dc1-41f0-a52c-1ac43943c8d4",
          "display": "Iva Kratochvílová"
        },
        "effectiveDateTime": "2022-08-21T16:10:29Z",
        "specimen": {
          "reference": "urn:uuid:15a69012-11ab-486c-b010-72b983519853"
        }
      }
    },
    {
      "fullUrl": "urn:uuid:73f0ad10-251f-4663-9c4e-a091bc19ef79",
      "resource": {
        "resourceType": "Observation",
        "id": "73f0ad10-251f-4663-9c4e-a091bc19ef79",
        "meta": {
          "profile": [
            "http://hl7.eu/fhir/laboratory/StructureDefinition/Observation-resultslab-eu-lab"
          ]
        },
        "performer": [
          {
            "display": "The Central European Lab"
          }
        ],
        "category": [
          {
            "coding": [
              {
                "system": "http://terminology.hl7.org/CodeSystem/observation-category",
                "code": "laboratory"
              }
            ]
          }
        ],
        "code": {
          "coding": [
            {
              "code": "5770-3",
              "system": "http://loinc.org",
              "display": "Bilirubin.total [Presence] in Urine by Test strip"
            }
          ],
          "text": "Bilirubin.total [Presence] in Urine by Test strip"
        },
        "text": {
          "status": "generated",
          "div": "<div xmlns=\"http://www.w3.org/1999/xhtml\"><table class=\"hl7__eu__lab__report\"><tr><th>Test</th><th>21-Aug-2022</th><th>Reference&#xA0;Range</th><th>Unit</th></tr><tr><td>Bilirubin.total [Presence] in Urine by Test strip</td></tr></table></div>"
        },
        "status": "final",
        "subject": {
          "reference": "urn:uuid:00299ea9-1dc1-41f0-a52c-1ac43943c8d4",
          "display": "Iva Kratochvílová"
        },
        "effectiveDateTime": "2022-08-21T16:10:29Z",
        "specimen": {
          "reference": "urn:uuid:15a69012-11ab-486c-b010-72b983519853"
        }
      }
    },
    {
      "fullUrl": "urn:uuid:93aa2568-3955-4730-a385-973ecc550fcc",
      "resource": {
        "resourceType": "Observation",
        "id": "93aa2568-3955-4730-a385-973ecc550fcc",
        "meta": {
          "profile": [
            "http://hl7.eu/fhir/laboratory/StructureDefinition/Observation-resultslab-eu-lab"
          ]
        },
        "performer": [
          {
            "display": "The Central European Lab"
          }
        ],
        "category": [
          {
            "coding": [
              {
                "system": "http://terminology.hl7.org/CodeSystem/observation-category",
                "code": "laboratory"
              }
            ]
          }
        ],
        "code": {
          "coding": [
            {
              "code": "5797-6",
              "system": "http://loinc.org",
              "display": "Ketones [Mass/volume] in Urine by Test strip"
            }
          ],
          "text": "Ketones [Mass/volume] in Urine by Test strip"
        },
        "valueQuantity": {
          "system": "http://unitsofmeasure.org",
          "value": 10.4,
          "unit": "mg/dL",
          "code": "mg/dL"
        },
        "referenceRange": [
          {
            "low": {
              "value": 0,
              "code": "mg/dL",
              "system": "http://unitsofmeasure.org"
            }
          },
          {
            "high": {
              "value": 4,
              "code": "mg/dL",
              "system": "http://unitsofmeasure.org"
            }
          }
        ],
        "interpretation": [
          {
            "coding": [
              {
                "code": "H",
                "system": "http://terminology.hl7.org/CodeSystem/v3-ObservationInterpretation",
                "display": "High"
              }
            ]
          }
        ],
        "text": {
          "status": "generated",
          "div": "<div xmlns=\"http://www.w3.org/1999/xhtml\"><table class=\"hl7__eu__lab__report\"><tr><th>Test</th><th>21-Aug-2022</th><th>Reference&#xA0;Range</th><th>Unit</th></tr><tr><td>Ketones [Mass/volume] in Urine by Test strip</td><td>10.4</td><td>0 - 4</td><td>H</td><td>mg/dL</td></tr></table></div>"
        },
        "status": "final",
        "subject": {
          "reference": "urn:uuid:00299ea9-1dc1-41f0-a52c-1ac43943c8d4",
          "display": "Iva Kratochvílová"
        },
        "effectiveDateTime": "2022-08-21T16:10:29Z",
        "specimen": {
          "reference": "urn:uuid:15a69012-11ab-486c-b010-72b983519853"
        }
      }
    },
    {
      "fullUrl": "urn:uuid:3ef7ae16-9f05-4bc4-a42e-636254fb6af3",
      "resource": {
        "resourceType": "Observation",
        "id": "3ef7ae16-9f05-4bc4-a42e-636254fb6af3",
        "meta": {
          "profile": [
            "http://hl7.eu/fhir/laboratory/StructureDefinition/Observation-resultslab-eu-lab"
          ]
        },
        "performer": [
          {
            "display": "The Central European Lab"
          }
        ],
        "category": [
          {
            "coding": [
              {
                "system": "http://terminology.hl7.org/CodeSystem/observation-category",
                "code": "laboratory"
              }
            ]
          }
        ],
        "code": {
          "coding": [
            {
              "code": "2514-8",
              "system": "http://loinc.org",
              "display": "Ketones [Presence] in Urine by Test strip"
            }
          ],
          "text": "Ketones [Presence] in Urine by Test strip"
        },
        "text": {
          "status": "generated",
          "div": "<div xmlns=\"http://www.w3.org/1999/xhtml\"><table class=\"hl7__eu__lab__report\"><tr><th>Test</th><th>21-Aug-2022</th><th>Reference&#xA0;Range</th><th>Unit</th></tr><tr><td>Ketones [Presence] in Urine by Test strip</td></tr></table></div>"
        },
        "status": "final",
        "subject": {
          "reference": "urn:uuid:00299ea9-1dc1-41f0-a52c-1ac43943c8d4",
          "display": "Iva Kratochvílová"
        },
        "effectiveDateTime": "2022-08-21T16:10:29Z",
        "specimen": {
          "reference": "urn:uuid:15a69012-11ab-486c-b010-72b983519853"
        }
      }
    },
    {
      "fullUrl": "urn:uuid:50427d34-0fa1-47c4-9008-ba6acf208a67",
      "resource": {
        "resourceType": "Observation",
        "id": "50427d34-0fa1-47c4-9008-ba6acf208a67",
        "meta": {
          "profile": [
            "http://hl7.eu/fhir/laboratory/StructureDefinition/Observation-resultslab-eu-lab"
          ]
        },
        "performer": [
          {
            "display": "The Central European Lab"
          }
        ],
        "category": [
          {
            "coding": [
              {
                "system": "http://terminology.hl7.org/CodeSystem/observation-category",
                "code": "laboratory"
              }
            ]
          }
        ],
        "code": {
          "coding": [
            {
              "code": "5811-5",
              "system": "http://loinc.org",
              "display": "Specific gravity of Urine by Test strip"
            }
          ],
          "text": "Specific gravity of Urine by Test strip"
        },
        "valueQuantity": {
          "system": "http://unitsofmeasure.org",
          "value": 1,
          "unit": "{nominal}",
          "code": "{nominal}"
        },
        "referenceRange": [
          {
            "low": {
              "value": 1.005,
              "code": "g/mL",
              "system": "http://unitsofmeasure.org"
            }
          },
          {
            "high": {
              "value": 1.03,
              "code": "g/mL",
              "system": "http://unitsofmeasure.org"
            }
          }
        ],
        "interpretation": [
          {
            "coding": [
              {
                "code": "L",
                "system": "http://terminology.hl7.org/CodeSystem/v3-ObservationInterpretation",
                "display": "Low"
              }
            ]
          }
        ],
        "text": {
          "status": "generated",
          "div": "<div xmlns=\"http://www.w3.org/1999/xhtml\"><table class=\"hl7__eu__lab__report\"><tr><th>Test</th><th>21-Aug-2022</th><th>Reference&#xA0;Range</th><th>Unit</th></tr><tr><td>Specific gravity of Urine by Test strip</td><td>1.0</td><td>1.005 - 1.03</td><td>L</td><td>{nominal}</td></tr></table></div>"
        },
        "status": "final",
        "subject": {
          "reference": "urn:uuid:00299ea9-1dc1-41f0-a52c-1ac43943c8d4",
          "display": "Iva Kratochvílová"
        },
        "effectiveDateTime": "2022-08-21T16:10:29Z",
        "specimen": {
          "reference": "urn:uuid:15a69012-11ab-486c-b010-72b983519853"
        }
      }
    },
    {
      "fullUrl": "urn:uuid:a58b1ae4-fdfd-4778-bfef-a799ab314566",
      "resource": {
        "resourceType": "Observation",
        "id": "a58b1ae4-fdfd-4778-bfef-a799ab314566",
        "meta": {
          "profile": [
            "http://hl7.eu/fhir/laboratory/StructureDefinition/Observation-resultslab-eu-lab"
          ]
        },
        "performer": [
          {
            "display": "The Central European Lab"
          }
        ],
        "category": [
          {
            "coding": [
              {
                "system": "http://terminology.hl7.org/CodeSystem/observation-category",
                "code": "laboratory"
              }
            ]
          }
        ],
        "code": {
          "coding": [
            {
              "code": "5803-2",
              "system": "http://loinc.org",
              "display": "pH of Urine by Test strip"
            }
          ],
          "text": "pH of Urine by Test strip"
        },
        "valueQuantity": {
          "system": "http://unitsofmeasure.org",
          "value": 6.1,
          "unit": "pH",
          "code": "pH"
        },
        "referenceRange": [
          {
            "low": {
              "value": 4.5,
              "code": "pH",
              "system": "http://unitsofmeasure.org"
            }
          },
          {
            "high": {
              "value": 7,
              "code": "pH",
              "system": "http://unitsofmeasure.org"
            }
          }
        ],
        "text": {
          "status": "generated",
          "div": "<div xmlns=\"http://www.w3.org/1999/xhtml\"><table class=\"hl7__eu__lab__report\"><tr><th>Test</th><th>21-Aug-2022</th><th>Reference&#xA0;Range</th><th>Unit</th></tr><tr><td>pH of Urine by Test strip</td><td>6.1</td><td>4.5 - 7</td><td></td><td>pH</td></tr></table></div>"
        },
        "status": "final",
        "subject": {
          "reference": "urn:uuid:00299ea9-1dc1-41f0-a52c-1ac43943c8d4",
          "display": "Iva Kratochvílová"
        },
        "effectiveDateTime": "2022-08-21T16:10:29Z",
        "specimen": {
          "reference": "urn:uuid:15a69012-11ab-486c-b010-72b983519853"
        }
      }
    },
    {
      "fullUrl": "urn:uuid:2e260acc-2a7d-4f77-84e9-728d9d5f1dc7",
      "resource": {
        "resourceType": "Observation",
        "id": "2e260acc-2a7d-4f77-84e9-728d9d5f1dc7",
        "meta": {
          "profile": [
            "http://hl7.eu/fhir/laboratory/StructureDefinition/Observation-resultslab-eu-lab"
          ]
        },
        "performer": [
          {
            "display": "The Central European Lab"
          }
        ],
        "category": [
          {
            "coding": [
              {
                "system": "http://terminology.hl7.org/CodeSystem/observation-category",
                "code": "laboratory"
              }
            ]
          }
        ],
        "code": {
          "coding": [
            {
              "code": "5804-0",
              "system": "http://loinc.org",
              "display": "Protein [Mass/volume] in Urine by Test strip"
            }
          ],
          "text": "Protein [Mass/volume] in Urine by Test strip"
        },
        "valueQuantity": {
          "system": "http://unitsofmeasure.org",
          "value": 226.7,
          "unit": "mg/dL",
          "code": "mg/dL"
        },
        "referenceRange": [
          {
            "low": {
              "value": 0,
              "code": "mg/dL",
              "system": "http://unitsofmeasure.org"
            }
          },
          {
            "high": {
              "value": 145,
              "code": "mg/dL",
              "system": "http://unitsofmeasure.org"
            }
          }
        ],
        "interpretation": [
          {
            "coding": [
              {
                "code": "H",
                "system": "http://terminology.hl7.org/CodeSystem/v3-ObservationInterpretation",
                "display": "High"
              }
            ]
          }
        ],
        "text": {
          "status": "generated",
          "div": "<div xmlns=\"http://www.w3.org/1999/xhtml\"><table class=\"hl7__eu__lab__report\"><tr><th>Test</th><th>21-Aug-2022</th><th>Reference&#xA0;Range</th><th>Unit</th></tr><tr><td>Protein [Mass/volume] in Urine by Test strip</td><td>226.7</td><td>0 - 145</td><td>H</td><td>mg/dL</td></tr></table></div>"
        },
        "status": "final",
        "subject": {
          "reference": "urn:uuid:00299ea9-1dc1-41f0-a52c-1ac43943c8d4",
          "display": "Iva Kratochvílová"
        },
        "effectiveDateTime": "2022-08-21T16:10:29Z",
        "specimen": {
          "reference": "urn:uuid:15a69012-11ab-486c-b010-72b983519853"
        }
      }
    },
    {
      "fullUrl": "urn:uuid:24ec20f1-f327-4fe2-8691-b6c63357dea2",
      "resource": {
        "resourceType": "Observation",
        "id": "24ec20f1-f327-4fe2-8691-b6c63357dea2",
        "meta": {
          "profile": [
            "http://hl7.eu/fhir/laboratory/StructureDefinition/Observation-resultslab-eu-lab"
          ]
        },
        "performer": [
          {
            "display": "The Central European Lab"
          }
        ],
        "category": [
          {
            "coding": [
              {
                "system": "http://terminology.hl7.org/CodeSystem/observation-category",
                "code": "laboratory"
              }
            ]
          }
        ],
        "code": {
          "coding": [
            {
              "code": "20454-5",
              "system": "http://loinc.org",
              "display": "Protein [Presence] in Urine by Test strip"
            }
          ],
          "text": "Protein [Presence] in Urine by Test strip"
        },
        "text": {
          "status": "generated",
          "div": "<div xmlns=\"http://www.w3.org/1999/xhtml\"><table class=\"hl7__eu__lab__report\"><tr><th>Test</th><th>21-Aug-2022</th><th>Reference&#xA0;Range</th><th>Unit</th></tr><tr><td>Protein [Presence] in Urine by Test strip</td></tr></table></div>"
        },
        "status": "final",
        "subject": {
          "reference": "urn:uuid:00299ea9-1dc1-41f0-a52c-1ac43943c8d4",
          "display": "Iva Kratochvílová"
        },
        "effectiveDateTime": "2022-08-21T16:10:29Z",
        "specimen": {
          "reference": "urn:uuid:15a69012-11ab-486c-b010-72b983519853"
        }
      }
    },
    {
      "fullUrl": "urn:uuid:1470d0a4-be5a-49d6-9899-792bbfaedda2",
      "resource": {
        "resourceType": "Observation",
        "id": "1470d0a4-be5a-49d6-9899-792bbfaedda2",
        "meta": {
          "profile": [
            "http://hl7.eu/fhir/laboratory/StructureDefinition/Observation-resultslab-eu-lab"
          ]
        },
        "performer": [
          {
            "display": "The Central European Lab"
          }
        ],
        "category": [
          {
            "coding": [
              {
                "system": "http://terminology.hl7.org/CodeSystem/observation-category",
                "code": "laboratory"
              }
            ]
          }
        ],
        "code": {
          "coding": [
            {
              "code": "5802-4",
              "system": "http://loinc.org",
              "display": "Nitrite [Presence] in Urine by Test strip"
            }
          ],
          "text": "Nitrite [Presence] in Urine by Test strip"
        },
        "text": {
          "status": "generated",
          "div": "<div xmlns=\"http://www.w3.org/1999/xhtml\"><table class=\"hl7__eu__lab__report\"><tr><th>Test</th><th>21-Aug-2022</th><th>Reference&#xA0;Range</th><th>Unit</th></tr><tr><td>Nitrite [Presence] in Urine by Test strip</td></tr></table></div>"
        },
        "status": "final",
        "subject": {
          "reference": "urn:uuid:00299ea9-1dc1-41f0-a52c-1ac43943c8d4",
          "display": "Iva Kratochvílová"
        },
        "effectiveDateTime": "2022-08-21T16:10:29Z",
        "specimen": {
          "reference": "urn:uuid:15a69012-11ab-486c-b010-72b983519853"
        }
      }
    },
    {
      "fullUrl": "urn:uuid:efa925c7-748f-4ed4-b959-aa4b77c62efa",
      "resource": {
        "resourceType": "Observation",
        "id": "efa925c7-748f-4ed4-b959-aa4b77c62efa",
        "meta": {
          "profile": [
            "http://hl7.eu/fhir/laboratory/StructureDefinition/Observation-resultslab-eu-lab"
          ]
        },
        "performer": [
          {
            "display": "The Central European Lab"
          }
        ],
        "category": [
          {
            "coding": [
              {
                "system": "http://terminology.hl7.org/CodeSystem/observation-category",
                "code": "laboratory"
              }
            ]
          }
        ],
        "code": {
          "coding": [
            {
              "code": "5794-3",
              "system": "http://loinc.org",
              "display": "Hemoglobin [Presence] in Urine by Test strip"
            }
          ],
          "text": "Hemoglobin [Presence] in Urine by Test strip"
        },
        "text": {
          "status": "generated",
          "div": "<div xmlns=\"http://www.w3.org/1999/xhtml\"><table class=\"hl7__eu__lab__report\"><tr><th>Test</th><th>21-Aug-2022</th><th>Reference&#xA0;Range</th><th>Unit</th></tr><tr><td>Hemoglobin [Presence] in Urine by Test strip</td></tr></table></div>"
        },
        "status": "final",
        "subject": {
          "reference": "urn:uuid:00299ea9-1dc1-41f0-a52c-1ac43943c8d4",
          "display": "Iva Kratochvílová"
        },
        "effectiveDateTime": "2022-08-21T16:10:29Z",
        "specimen": {
          "reference": "urn:uuid:15a69012-11ab-486c-b010-72b983519853"
        }
      }
    },
    {
      "fullUrl": "urn:uuid:9f57ac6c-9a46-4ccf-a0a4-1199f34b8b27",
      "resource": {
        "resourceType": "Observation",
        "id": "9f57ac6c-9a46-4ccf-a0a4-1199f34b8b27",
        "meta": {
          "profile": [
            "http://hl7.eu/fhir/laboratory/StructureDefinition/Observation-resultslab-eu-lab"
          ]
        },
        "performer": [
          {
            "display": "The Central European Lab"
          }
        ],
        "category": [
          {
            "coding": [
              {
                "system": "http://terminology.hl7.org/CodeSystem/observation-category",
                "code": "laboratory"
              }
            ]
          }
        ],
        "code": {
          "coding": [
            {
              "code": "5799-2",
              "system": "http://loinc.org",
              "display": "Leukocyte esterase [Presence] in Urine by Test strip"
            }
          ],
          "text": "Leukocyte esterase [Presence] in Urine by Test strip"
        },
        "text": {
          "status": "generated",
          "div": "<div xmlns=\"http://www.w3.org/1999/xhtml\"><table class=\"hl7__eu__lab__report\"><tr><th>Test</th><th>21-Aug-2022</th><th>Reference&#xA0;Range</th><th>Unit</th></tr><tr><td>Leukocyte esterase [Presence] in Urine by Test strip</td></tr></table></div>"
        },
        "status": "final",
        "subject": {
          "reference": "urn:uuid:00299ea9-1dc1-41f0-a52c-1ac43943c8d4",
          "display": "Iva Kratochvílová"
        },
        "effectiveDateTime": "2022-08-21T16:10:29Z",
        "specimen": {
          "reference": "urn:uuid:15a69012-11ab-486c-b010-72b983519853"
        }
      }
    },
    {
      "fullUrl": "urn:uuid:8a302937-b95e-4e31-9ea4-71389766085f",
      "resource": {
        "resourceType": "Observation",
        "id": "8a302937-b95e-4e31-9ea4-71389766085f",
        "meta": {
          "profile": [
            "http://hl7.eu/fhir/laboratory/StructureDefinition/Observation-resultslab-eu-lab"
          ]
        },
        "performer": [
          {
            "display": "The Central European Lab"
          }
        ],
        "category": [
          {
            "coding": [
              {
                "system": "http://terminology.hl7.org/CodeSystem/observation-category",
                "code": "laboratory"
              }
            ]
          }
        ],
        "code": {
          "coding": [
            {
              "code": "4548-4",
              "system": "http://loinc.org",
              "display": "Hemoglobin A1c/Hemoglobin.total in Blood"
            }
          ],
          "text": "Hemoglobin A1c/Hemoglobin.total in Blood"
        },
        "valueQuantity": {
          "system": "http://unitsofmeasure.org",
          "value": 2.9,
          "unit": "%",
          "code": "%"
        },
        "referenceRange": [
          {
            "low": {
              "value": 4,
              "code": "%",
              "system": "http://unitsofmeasure.org"
            }
          },
          {
            "high": {
              "value": 6,
              "code": "%",
              "system": "http://unitsofmeasure.org"
            }
          }
        ],
        "interpretation": [
          {
            "coding": [
              {
                "code": "L",
                "system": "http://terminology.hl7.org/CodeSystem/v3-ObservationInterpretation",
                "display": "Low"
              }
            ]
          }
        ],
        "text": {
          "status": "generated",
          "div": "<div xmlns=\"http://www.w3.org/1999/xhtml\"><table class=\"hl7__eu__lab__report\"><tr><th>Test</th><th>21-Aug-2022</th><th>Reference&#xA0;Range</th><th>Unit</th></tr><tr><td>Hemoglobin A1c/Hemoglobin.total in Blood</td><td>2.9</td><td>4 - 6</td><td>L</td><td>%</td></tr></table></div>"
        },
        "status": "final",
        "subject": {
          "reference": "urn:uuid:00299ea9-1dc1-41f0-a52c-1ac43943c8d4",
          "display": "Iva Kratochvílová"
        },
        "effectiveDateTime": "2022-08-21T16:10:29Z",
        "specimen": {
          "reference": "urn:uuid:075587cf-e982-4822-b2de-09e6fedae289"
        }
      }
    },
    {
      "fullUrl": "urn:uuid:09a32bfa-222e-41ff-af6e-d9bc5c8531cf",
      "resource": {
        "resourceType": "Observation",
        "id": "09a32bfa-222e-41ff-af6e-d9bc5c8531cf",
        "meta": {
          "profile": [
            "http://hl7.eu/fhir/laboratory/StructureDefinition/Observation-resultslab-eu-lab"
          ]
        },
        "performer": [
          {
            "display": "The Central European Lab"
          }
        ],
        "category": [
          {
            "coding": [
              {
                "system": "http://terminology.hl7.org/CodeSystem/observation-category",
                "code": "laboratory"
              }
            ]
          }
        ],
        "code": {
          "coding": [
            {
              "code": "2339-0",
              "system": "http://loinc.org",
              "display": "Glucose [Mass/volume] in Blood"
            }
          ],
          "text": "Glucose [Mass/volume] in Blood"
        },
        "valueQuantity": {
          "system": "http://unitsofmeasure.org",
          "value": 67.6,
          "unit": "mg/dL",
          "code": "mg/dL"
        },
        "referenceRange": [
          {
            "low": {
              "value": 70,
              "code": "mg/dL",
              "system": "http://unitsofmeasure.org"
            }
          },
          {
            "high": {
              "value": 140,
              "code": "mg/dL",
              "system": "http://unitsofmeasure.org"
            }
          }
        ],
        "interpretation": [
          {
            "coding": [
              {
                "code": "L",
                "system": "http://terminology.hl7.org/CodeSystem/v3-ObservationInterpretation",
                "display": "Low"
              }
            ]
          }
        ],
        "text": {
          "status": "generated",
          "div": "<div xmlns=\"http://www.w3.org/1999/xhtml\"><table class=\"hl7__eu__lab__report\"><tr><th>Test</th><th>21-Aug-2022</th><th>Reference&#xA0;Range</th><th>Unit</th></tr><tr><td>Glucose [Mass/volume] in Blood</td><td>67.6</td><td>70 - 140</td><td>L</td><td>mg/dL</td></tr></table></div>"
        },
        "status": "final",
        "subject": {
          "reference": "urn:uuid:00299ea9-1dc1-41f0-a52c-1ac43943c8d4",
          "display": "Iva Kratochvílová"
        },
        "effectiveDateTime": "2022-08-21T16:10:29Z",
        "specimen": {
          "reference": "urn:uuid:075587cf-e982-4822-b2de-09e6fedae289"
        }
      }
    },
    {
      "fullUrl": "urn:uuid:fa73cd47-02f2-4493-b803-0009d37dfdbb",
      "resource": {
        "resourceType": "Observation",
        "id": "fa73cd47-02f2-4493-b803-0009d37dfdbb",
        "meta": {
          "profile": [
            "http://hl7.eu/fhir/laboratory/StructureDefinition/Observation-resultslab-eu-lab"
          ]
        },
        "performer": [
          {
            "display": "The Central European Lab"
          }
        ],
        "category": [
          {
            "coding": [
              {
                "system": "http://terminology.hl7.org/CodeSystem/observation-category",
                "code": "laboratory"
              }
            ]
          }
        ],
        "code": {
          "coding": [
            {
              "code": "6299-2",
              "system": "http://loinc.org",
              "display": "Urea nitrogen [Mass/volume] in Blood"
            }
          ],
          "text": "Urea nitrogen [Mass/volume] in Blood"
        },
        "valueQuantity": {
          "system": "http://unitsofmeasure.org",
          "value": 17.1,
          "unit": "mg/dL",
          "code": "mg/dL"
        },
        "referenceRange": [
          {
            "low": {
              "value": 7,
              "code": "mg/dL",
              "system": "http://unitsofmeasure.org"
            }
          },
          {
            "high": {
              "value": 25,
              "code": "mg/dL",
              "system": "http://unitsofmeasure.org"
            }
          }
        ],
        "text": {
          "status": "generated",
          "div": "<div xmlns=\"http://www.w3.org/1999/xhtml\"><table class=\"hl7__eu__lab__report\"><tr><th>Test</th><th>21-Aug-2022</th><th>Reference&#xA0;Range</th><th>Unit</th></tr><tr><td>Urea nitrogen [Mass/volume] in Blood</td><td>17.1</td><td>7 - 25</td><td></td><td>mg/dL</td></tr></table></div>"
        },
        "status": "final",
        "subject": {
          "reference": "urn:uuid:00299ea9-1dc1-41f0-a52c-1ac43943c8d4",
          "display": "Iva Kratochvílová"
        },
        "effectiveDateTime": "2022-08-21T16:10:29Z",
        "specimen": {
          "reference": "urn:uuid:075587cf-e982-4822-b2de-09e6fedae289"
        }
      }
    },
    {
      "fullUrl": "urn:uuid:28bde9cd-744e-48ff-849f-99bb45d8a449",
      "resource": {
        "resourceType": "Observation",
        "id": "28bde9cd-744e-48ff-849f-99bb45d8a449",
        "meta": {
          "profile": [
            "http://hl7.eu/fhir/laboratory/StructureDefinition/Observation-resultslab-eu-lab"
          ]
        },
        "performer": [
          {
            "display": "The Central European Lab"
          }
        ],
        "category": [
          {
            "coding": [
              {
                "system": "http://terminology.hl7.org/CodeSystem/observation-category",
                "code": "laboratory"
              }
            ]
          }
        ],
        "code": {
          "coding": [
            {
              "code": "38483-4",
              "system": "http://loinc.org",
              "display": "Creatinine [Mass/volume] in Blood"
            }
          ],
          "text": "Creatinine [Mass/volume] in Blood"
        },
        "valueQuantity": {
          "system": "http://unitsofmeasure.org",
          "value": 2,
          "unit": "mg/dL",
          "code": "mg/dL"
        },
        "referenceRange": [
          {
            "low": {
              "value": 0.6,
              "code": "mg/dL",
              "system": "http://unitsofmeasure.org"
            }
          },
          {
            "high": {
              "value": 1.1,
              "code": "mg/dL",
              "system": "http://unitsofmeasure.org"
            }
          }
        ],
        "interpretation": [
          {
            "coding": [
              {
                "code": "H",
                "system": "http://terminology.hl7.org/CodeSystem/v3-ObservationInterpretation",
                "display": "High"
              }
            ]
          }
        ],
        "text": {
          "status": "generated",
          "div": "<div xmlns=\"http://www.w3.org/1999/xhtml\"><table class=\"hl7__eu__lab__report\"><tr><th>Test</th><th>21-Aug-2022</th><th>Reference&#xA0;Range</th><th>Unit</th></tr><tr><td>Creatinine [Mass/volume] in Blood</td><td>2.0</td><td>0.6 - 1.1</td><td>H</td><td>mg/dL</td></tr></table></div>"
        },
        "status": "final",
        "subject": {
          "reference": "urn:uuid:00299ea9-1dc1-41f0-a52c-1ac43943c8d4",
          "display": "Iva Kratochvílová"
        },
        "effectiveDateTime": "2022-08-21T16:10:29Z",
        "specimen": {
          "reference": "urn:uuid:075587cf-e982-4822-b2de-09e6fedae289"
        }
      }
    },
    {
      "fullUrl": "urn:uuid:8f69d4e5-faa3-4668-abed-4031c7c76b7f",
      "resource": {
        "resourceType": "Observation",
        "id": "8f69d4e5-faa3-4668-abed-4031c7c76b7f",
        "meta": {
          "profile": [
            "http://hl7.eu/fhir/laboratory/StructureDefinition/Observation-resultslab-eu-lab"
          ]
        },
        "performer": [
          {
            "display": "The Central European Lab"
          }
        ],
        "category": [
          {
            "coding": [
              {
                "system": "http://terminology.hl7.org/CodeSystem/observation-category",
                "code": "laboratory"
              }
            ]
          }
        ],
        "code": {
          "coding": [
            {
              "code": "49765-1",
              "system": "http://loinc.org",
              "display": "Calcium [Mass/volume] in Blood"
            }
          ],
          "text": "Calcium [Mass/volume] in Blood"
        },
        "valueQuantity": {
          "system": "http://unitsofmeasure.org",
          "value": 9.9,
          "unit": "mg/dL",
          "code": "mg/dL"
        },
        "referenceRange": [
          {
            "low": {
              "value": 8.6,
              "code": "mg/dL",
              "system": "http://unitsofmeasure.org"
            }
          },
          {
            "high": {
              "value": 10.4,
              "code": "mg/dL",
              "system": "http://unitsofmeasure.org"
            }
          }
        ],
        "text": {
          "status": "generated",
          "div": "<div xmlns=\"http://www.w3.org/1999/xhtml\"><table class=\"hl7__eu__lab__report\"><tr><th>Test</th><th>21-Aug-2022</th><th>Reference&#xA0;Range</th><th>Unit</th></tr><tr><td>Calcium [Mass/volume] in Blood</td><td>9.9</td><td>8.6 - 10.4</td><td></td><td>mg/dL</td></tr></table></div>"
        },
        "status": "final",
        "subject": {
          "reference": "urn:uuid:00299ea9-1dc1-41f0-a52c-1ac43943c8d4",
          "display": "Iva Kratochvílová"
        },
        "effectiveDateTime": "2022-08-21T16:10:29Z",
        "specimen": {
          "reference": "urn:uuid:075587cf-e982-4822-b2de-09e6fedae289"
        }
      }
    },
    {
      "fullUrl": "urn:uuid:135de177-0ec6-47e5-beed-8310c27712d0",
      "resource": {
        "resourceType": "Observation",
        "id": "135de177-0ec6-47e5-beed-8310c27712d0",
        "meta": {
          "profile": [
            "http://hl7.eu/fhir/laboratory/StructureDefinition/Observation-resultslab-eu-lab"
          ]
        },
        "performer": [
          {
            "display": "The Central European Lab"
          }
        ],
        "category": [
          {
            "coding": [
              {
                "system": "http://terminology.hl7.org/CodeSystem/observation-category",
                "code": "laboratory"
              }
            ]
          }
        ],
        "code": {
          "coding": [
            {
              "code": "2947-0",
              "system": "http://loinc.org",
              "display": "Sodium [Moles/volume] in Blood"
            }
          ],
          "text": "Sodium [Moles/volume] in Blood"
        },
        "valueQuantity": {
          "system": "http://unitsofmeasure.org",
          "value": 142.5,
          "unit": "mmol/L",
          "code": "mmol/L"
        },
        "referenceRange": [
          {
            "low": {
              "value": 135,
              "code": "mmol/L",
              "system": "http://unitsofmeasure.org"
            }
          },
          {
            "high": {
              "value": 145,
              "code": "mmol/L",
              "system": "http://unitsofmeasure.org"
            }
          }
        ],
        "text": {
          "status": "generated",
          "div": "<div xmlns=\"http://www.w3.org/1999/xhtml\"><table class=\"hl7__eu__lab__report\"><tr><th>Test</th><th>21-Aug-2022</th><th>Reference&#xA0;Range</th><th>Unit</th></tr><tr><td>Sodium [Moles/volume] in Blood</td><td>142.5</td><td>135 - 145</td><td></td><td>mmol/L</td></tr></table></div>"
        },
        "status": "final",
        "subject": {
          "reference": "urn:uuid:00299ea9-1dc1-41f0-a52c-1ac43943c8d4",
          "display": "Iva Kratochvílová"
        },
        "effectiveDateTime": "2022-08-21T16:10:29Z",
        "specimen": {
          "reference": "urn:uuid:075587cf-e982-4822-b2de-09e6fedae289"
        }
      }
    },
    {
      "fullUrl": "urn:uuid:efb8fbb0-0e0f-4e88-bfc1-92cec1587cad",
      "resource": {
        "resourceType": "Observation",
        "id": "efb8fbb0-0e0f-4e88-bfc1-92cec1587cad",
        "meta": {
          "profile": [
            "http://hl7.eu/fhir/laboratory/StructureDefinition/Observation-resultslab-eu-lab"
          ]
        },
        "performer": [
          {
            "display": "The Central European Lab"
          }
        ],
        "category": [
          {
            "coding": [
              {
                "system": "http://terminology.hl7.org/CodeSystem/observation-category",
                "code": "laboratory"
              }
            ]
          }
        ],
        "code": {
          "coding": [
            {
              "code": "6298-4",
              "system": "http://loinc.org",
              "display": "Potassium [Moles/volume] in Blood"
            }
          ],
          "text": "Potassium [Moles/volume] in Blood"
        },
        "valueQuantity": {
          "system": "http://unitsofmeasure.org",
          "value": 5.1,
          "unit": "mmol/L",
          "code": "mmol/L"
        },
        "referenceRange": [
          {
            "low": {
              "value": 3.5,
              "code": "mmol/L",
              "system": "http://unitsofmeasure.org"
            }
          },
          {
            "high": {
              "value": 5.1,
              "code": "mmol/L",
              "system": "http://unitsofmeasure.org"
            }
          }
        ],
        "text": {
          "status": "generated",
          "div": "<div xmlns=\"http://www.w3.org/1999/xhtml\"><table class=\"hl7__eu__lab__report\"><tr><th>Test</th><th>21-Aug-2022</th><th>Reference&#xA0;Range</th><th>Unit</th></tr><tr><td>Potassium [Moles/volume] in Blood</td><td>5.1</td><td>3.5 - 5.1</td><td></td><td>mmol/L</td></tr></table></div>"
        },
        "status": "final",
        "subject": {
          "reference": "urn:uuid:00299ea9-1dc1-41f0-a52c-1ac43943c8d4",
          "display": "Iva Kratochvílová"
        },
        "effectiveDateTime": "2022-08-21T16:10:29Z",
        "specimen": {
          "reference": "urn:uuid:075587cf-e982-4822-b2de-09e6fedae289"
        }
      }
    },
    {
      "fullUrl": "urn:uuid:69881ecc-4a6c-4b39-bc25-b52e5149496f",
      "resource": {
        "resourceType": "Observation",
        "id": "69881ecc-4a6c-4b39-bc25-b52e5149496f",
        "meta": {
          "profile": [
            "http://hl7.eu/fhir/laboratory/StructureDefinition/Observation-resultslab-eu-lab"
          ]
        },
        "performer": [
          {
            "display": "The Central European Lab"
          }
        ],
        "category": [
          {
            "coding": [
              {
                "system": "http://terminology.hl7.org/CodeSystem/observation-category",
                "code": "laboratory"
              }
            ]
          }
        ],
        "code": {
          "coding": [
            {
              "code": "2069-3",
              "system": "http://loinc.org",
              "display": "Chloride [Moles/volume] in Blood"
            }
          ],
          "text": "Chloride [Moles/volume] in Blood"
        },
        "valueQuantity": {
          "system": "http://unitsofmeasure.org",
          "value": 107.6,
          "unit": "mmol/L",
          "code": "mmol/L"
        },
        "referenceRange": [
          {
            "low": {
              "value": 98,
              "code": "mmol/L",
              "system": "http://unitsofmeasure.org"
            }
          },
          {
            "high": {
              "value": 110,
              "code": "mmol/L",
              "system": "http://unitsofmeasure.org"
            }
          }
        ],
        "text": {
          "status": "generated",
          "div": "<div xmlns=\"http://www.w3.org/1999/xhtml\"><table class=\"hl7__eu__lab__report\"><tr><th>Test</th><th>21-Aug-2022</th><th>Reference&#xA0;Range</th><th>Unit</th></tr><tr><td>Chloride [Moles/volume] in Blood</td><td>107.6</td><td>98 - 110</td><td></td><td>mmol/L</td></tr></table></div>"
        },
        "status": "final",
        "subject": {
          "reference": "urn:uuid:00299ea9-1dc1-41f0-a52c-1ac43943c8d4",
          "display": "Iva Kratochvílová"
        },
        "effectiveDateTime": "2022-08-21T16:10:29Z",
        "specimen": {
          "reference": "urn:uuid:075587cf-e982-4822-b2de-09e6fedae289"
        }
      }
    },
    {
      "fullUrl": "urn:uuid:959f458f-c2ae-4958-8295-4fb30e964874",
      "resource": {
        "resourceType": "Observation",
        "id": "959f458f-c2ae-4958-8295-4fb30e964874",
        "meta": {
          "profile": [
            "http://hl7.eu/fhir/laboratory/StructureDefinition/Observation-resultslab-eu-lab"
          ]
        },
        "performer": [
          {
            "display": "The Central European Lab"
          }
        ],
        "category": [
          {
            "coding": [
              {
                "system": "http://terminology.hl7.org/CodeSystem/observation-category",
                "code": "laboratory"
              }
            ]
          }
        ],
        "code": {
          "coding": [
            {
              "code": "20565-8",
              "system": "http://loinc.org",
              "display": "Carbon dioxide, total [Moles/volume] in Blood"
            }
          ],
          "text": "Carbon dioxide, total [Moles/volume] in Blood"
        },
        "valueQuantity": {
          "system": "http://unitsofmeasure.org",
          "value": 27.4,
          "unit": "mmol/L",
          "code": "mmol/L"
        },
        "referenceRange": [
          {
            "low": {
              "value": 22,
              "code": "mmol/L",
              "system": "http://unitsofmeasure.org"
            }
          },
          {
            "high": {
              "value": 29,
              "code": "mmol/L",
              "system": "http://unitsofmeasure.org"
            }
          }
        ],
        "text": {
          "status": "generated",
          "div": "<div xmlns=\"http://www.w3.org/1999/xhtml\"><table class=\"hl7__eu__lab__report\"><tr><th>Test</th><th>21-Aug-2022</th><th>Reference&#xA0;Range</th><th>Unit</th></tr><tr><td>Carbon dioxide, total [Moles/volume] in Blood</td><td>27.4</td><td>22 - 29</td><td></td><td>mmol/L</td></tr></table></div>"
        },
        "status": "final",
        "subject": {
          "reference": "urn:uuid:00299ea9-1dc1-41f0-a52c-1ac43943c8d4",
          "display": "Iva Kratochvílová"
        },
        "effectiveDateTime": "2022-08-21T16:10:29Z",
        "specimen": {
          "reference": "urn:uuid:075587cf-e982-4822-b2de-09e6fedae289"
        }
      }
    },
    {
      "fullUrl": "urn:uuid:22f3371f-a273-464a-bcdc-df826dfa4976",
      "resource": {
        "resourceType": "Device",
        "id": "22f3371f-a273-464a-bcdc-df826dfa4976",
        "deviceName": [
          {
            "name": "SYNDERAI Synthetic Generator",
            "type": "manufacturer-name"
          }
        ],
        "version": [
          {
            "value": "5.0"
          }
        ],
        "text": {
          "status": "generated",
          "div": "<div xmlns=\"http://www.w3.org/1999/xhtml\">SYNDERAI Synthetic Generator v5.0</div>"
        },
        "status": "active\"",
        "distinctIdentifier": "synderai-generator-50",
        "manufacturer": "SYNDERAI Project"
      }
    },
    {
      "fullUrl": "urn:uuid:3a448cad-23f4-44fb-9a15-4c73cc54316e",
      "resource": {
        "resourceType": "Provenance",
        "id": "3a448cad-23f4-44fb-9a15-4c73cc54316e",
        "target": [
          {
            "reference": "Patient/00299ea9-1dc1-41f0-a52c-1ac43943c8d4"
          },
          {
            "reference": "Bundle/378465cf-9185-4fca-bdc0-e91b28f81ff3"
          },
          {
            "reference": "Composition/2d6b01c4-1bfe-4d03-b0bd-5ed73ac4d763"
          },
          {
            "reference": "PractitionerRole/efa8bef2-5602-41d6-8a6d-fa6cde43c155"
          },
          {
            "reference": "Practitioner/5da517ce-cf24-4a20-b07b-5e3620e8abd2"
          },
          {
            "reference": "PractitionerRole/413725ee-de1e-4f0e-999e-83317b07e2db"
          },
          {
            "reference": "Organization/57565103-a6c2-4d01-a406-2c2e35c37428"
          }
        ],
        "activity": {
          "text": "Synthetic Example Data Generation"
        },
        "policy": [
          "https://synderai.net/synderai-synthetic-data-policy"
        ],
        "agent": [
          {
            "type": {
              "text": "author"
            },
            "who": {
              "reference": "Device/22f3371f-a273-464a-bcdc-df826dfa4976"
            }
          }
        ],
        "reason": [
          {
            "text": "Interoperability Testing and Training (non-clinical use)"
          }
        ],
        "text": {
          "status": "generated",
          "div": "<div xmlns=\"http://www.w3.org/1999/xhtml\">Provenance for SYNDERAI Synthetic Example Data Resource</div>"
        },
        "recorded": "2022-08-21T18:10:29Z"
      }
    },
    {
      "fullUrl": "urn:uuid:efa8bef2-5602-41d6-8a6d-fa6cde43c155",
      "resource": {
        "resourceType": "PractitionerRole",
        "id": "efa8bef2-5602-41d6-8a6d-fa6cde43c155",
        "meta": {
          "profile": [
            "http://hl7.eu/fhir/base/StructureDefinition/practitionerRole-eu"
          ]
        },
        "text": {
          "status": "generated",
          "div": "<div xmlns=\"http://www.w3.org/1999/xhtml\">Laboratory Role Id: efa8bef2-5602-41d6-8a6d-fa6cde43c155</div>"
        },
        "practitioner": {
          "reference": "urn:uuid:5da517ce-cf24-4a20-b07b-5e3620e8abd2"
        }
      }
    },
    {
      "fullUrl": "urn:uuid:5da517ce-cf24-4a20-b07b-5e3620e8abd2",
      "resource": {
        "resourceType": "Practitioner",
        "id": "5da517ce-cf24-4a20-b07b-5e3620e8abd2",
        "meta": {
          "profile": [
            "http://hl7.eu/fhir/base/StructureDefinition/practitioner-eu"
          ]
        },
        "identifier": [
          {
            "assigner": {
              "display": "HL7 Europe"
            },
            "system": "urn:oid:2.16.840.1.113883.2.51.999",
            "value": "a1c636fc-e5fb-4ad2-897f-187ac06c60e4"
          }
        ],
        "name": [
          {
            "prefix": [
              "dr"
            ],
            "given": [
              "Ex"
            ],
            "family": "Ample"
          }
        ],
        "address": [
          {
            "line": [
              "Laboratoire Central Européenne",
              "Boulevard du Jardin Botanique 32"
            ],
            "postalCode": "1000",
            "city": "Brussels",
            "country": "Belgium"
          }
        ],
        "text": {
          "status": "generated",
          "div": "<div xmlns=\"http://www.w3.org/1999/xhtml\">Laboratory: Laboratoire Central Européenne, 1000 Brussels, Belgium</div>"
        }
      }
    }
  ],
  "type": "document",
  "timestamp": "2022-08-21T18:10:29Z"
}
