{
  "resourceType": "Bundle",
  "id": "72ce597e-0f9b-418c-8c32-5d48f90caf04",
  "meta": {
    "profile": [
      "http://hl7.eu/fhir/laboratory/StructureDefinition/Bundle-eu-lab"
    ]
  },
  "identifier": {
    "assigner": {
      "display": "HL7 Europe"
    },
    "system": "urn:oid:2.16.840.1.113883.2.51.999",
    "value": "a99d6355-d32a-4fcf-b162-6cab8216ca1a"
  },
  "entry": [
    {
      "fullUrl": "urn:uuid:1dff38ad-86ef-4b02-9b5a-e71c4664e713",
      "resource": {
        "resourceType": "Composition",
        "id": "1dff38ad-86ef-4b02-9b5a-e71c4664e713",
        "meta": {
          "profile": [
            "http://hl7.eu/fhir/laboratory/StructureDefinition/Composition-eu-lab"
          ]
        },
        "identifier": {
          "assigner": {
            "display": "HL7 Europe"
          },
          "system": "urn:oid:2.16.840.1.113883.2.51.999",
          "value": "6d87fb5f-0afa-4e1e-ac36-e6a5a787b4d8"
        },
        "author": [
          {
            "reference": "urn:uuid:3620acd8-dae6-4812-9693-cea106322e58"
          }
        ],
        "category": [
          {
            "coding": [
              {
                "code": "26436-6",
                "system": "http://loinc.org",
                "display": "Laboratory studies (set)"
              }
            ]
          }
        ],
        "type": {
          "coding": [
            {
              "code": "11502-2",
              "system": "http://loinc.org",
              "display": "Laboratory report"
            }
          ],
          "text": "Laboratory Report"
        },
        "section": [
          {
            "code": {
              "coding": [
                {
                  "code": "26436-6",
                  "system": "http://loinc.org",
                  "display": "Laboratory studies (set)"
                }
              ],
              "text": "Laboratory studies"
            },
            "section": [
              {
                "code": {
                  "coding": [
                    {
                      "code": "$18723-7",
                      "system": "http://loinc.org",
                      "display": "Hematology studies (set)"
                    }
                  ],
                  "text": "Hematology"
                },
                "entry": [
                  {
                    "reference": "urn:uuid:e975372e-2ac3-43d4-bb0a-a9a251b26115"
                  },
                  {
                    "reference": "urn:uuid:28f70aa3-9f07-4792-aaec-2fcdd31c4ff9"
                  },
                  {
                    "reference": "urn:uuid:e2053142-8ff3-4803-bf9c-b8a88dd1148b"
                  },
                  {
                    "reference": "urn:uuid:fa01cf04-6a2d-402f-9d8e-2f6482de012a"
                  },
                  {
                    "reference": "urn:uuid:ef63529c-ce38-454e-81cc-005be93bb814"
                  },
                  {
                    "reference": "urn:uuid:c606d4e8-6685-4d28-958e-997abf794aad"
                  },
                  {
                    "reference": "urn:uuid:102e9a48-86c5-4619-96f8-5abd40b1a427"
                  },
                  {
                    "reference": "urn:uuid:a91e2771-c96a-48f1-8cc3-44883d37e9ad"
                  },
                  {
                    "reference": "urn:uuid:21dd763f-5540-47da-9647-0b6204e9f0c3"
                  }
                ],
                "text": {
                  "status": "generated",
                  "div": "<div xmlns=\"http://www.w3.org/1999/xhtml\"><h3>Hematology</h3><table class=\"hl7__eu__lab__report\"><thead><tr><th>Test</th><th>06-NOV-2016</th><th>Reference&#xA0;Range</th><th>Unit</th></tr></thead><tbody><tr><td>Leukocytes [#/volume] in Blood by Automated count</td><td>4.5</td><td>3.4 - 10.6</td><td>10*3/uL</td></tr><tr><td>Erythrocytes [#/volume] in Blood by Automated count</td><td><strong>3.9 L</strong></td><td>4.7 - 5.2</td><td>10*6/uL</td></tr><tr><td>Hemoglobin [Mass/volume] in Blood</td><td>12.2</td><td>11.5 - 16</td><td>g/dL</td></tr><tr><td>Hematocrit [Volume Fraction] of Blood by Automated count</td><td><strong>37.2 L</strong></td><td>38 - 56</td><td>%</td></tr><tr><td>MCV [Entitic volume] by Automated count</td><td>91.0</td><td>78 - 98</td><td>fL</td></tr><tr><td>MCH [Entitic mass] by Automated count</td><td>32.6</td><td>27 - 34</td><td>pg</td></tr><tr><td>MCHC [Mass/volume] by Automated count</td><td>31.8</td><td>31 - 36</td><td>g/dL</td></tr><tr><td>Erythrocyte distribution width [Ratio] by Automated count</td><td>12.3</td><td>11.6 - 16.5</td><td>%</td></tr><tr><td>Platelets [#/volume] in Blood by Automated count</td><td>263.8</td><td>150 - 450</td><td>10*3/uL</td></tr></tbody></table></div>"
                },
                "title": "Hematology"
              },
              {
                "code": {
                  "coding": [
                    {
                      "code": "$18719-5",
                      "system": "http://loinc.org",
                      "display": "Chemistry studies (set)"
                    }
                  ],
                  "text": "Chemistry"
                },
                "entry": [
                  {
                    "reference": "urn:uuid:c5b47261-455b-47f0-8239-74a654b23d4c"
                  },
                  {
                    "reference": "urn:uuid:f44e2e3b-3367-421c-a7f2-d45ca8aca0c2"
                  },
                  {
                    "reference": "urn:uuid:2d395abc-4e74-4bb6-b239-49e5c499c955"
                  },
                  {
                    "reference": "urn:uuid:fb46ac31-af70-4e73-b214-bb669c13fcda"
                  },
                  {
                    "reference": "urn:uuid:661b6f13-736f-4d3f-a010-f2f77e5d64d1"
                  },
                  {
                    "reference": "urn:uuid:6b717ea7-df35-4ad4-b034-5a232fdf7ffc"
                  },
                  {
                    "reference": "urn:uuid:a493526e-168b-4f38-b7ff-e70766d0390c"
                  },
                  {
                    "reference": "urn:uuid:0eb80be2-5994-4016-bb3e-20d896535a05"
                  },
                  {
                    "reference": "urn:uuid:25b9b904-f040-45b7-9952-bd156c240b6f"
                  },
                  {
                    "reference": "urn:uuid:b2176e67-ba1b-40a0-9e9a-1bf595206245"
                  },
                  {
                    "reference": "urn:uuid:bbdfd7d1-23bd-4cb2-90dd-65e4f2141f21"
                  },
                  {
                    "reference": "urn:uuid:5ebe4dd0-f061-450d-af2f-a02b2e12bea8"
                  },
                  {
                    "reference": "urn:uuid:1bd092cd-68de-44c5-a865-a758bec4a8cc"
                  },
                  {
                    "reference": "urn:uuid:6fb2ca1a-e515-4d07-807b-96f7df27b2f5"
                  },
                  {
                    "reference": "urn:uuid:95ad32e3-510d-4146-a7f0-b0a688009153"
                  },
                  {
                    "reference": "urn:uuid:f7d0b62b-2e18-4953-89ce-f30c064f2170"
                  },
                  {
                    "reference": "urn:uuid:301a5030-82e0-4179-b91d-7308820859cd"
                  },
                  {
                    "reference": "urn:uuid:72f73a00-5c9d-466f-8a21-8b2b47523c6d"
                  },
                  {
                    "reference": "urn:uuid:1f5b3686-fa42-4d66-a9c2-7f5624fcc7b9"
                  },
                  {
                    "reference": "urn:uuid:a480cc83-ea0c-410b-a0bb-3aba2bec1a4d"
                  },
                  {
                    "reference": "urn:uuid:ae1c1637-8818-43e0-8729-38ed52704b3f"
                  },
                  {
                    "reference": "urn:uuid:fe2891ed-6751-4e82-9a88-d15d047b75af"
                  },
                  {
                    "reference": "urn:uuid:d6eadb3b-81ad-4ef9-b602-32b2fffdff70"
                  },
                  {
                    "reference": "urn:uuid:0a143ba0-1f28-4167-bfd9-2ef9810c19ec"
                  },
                  {
                    "reference": "urn:uuid:35d43f32-3c28-4e72-892e-a09fd7447f83"
                  },
                  {
                    "reference": "urn:uuid:55a3b3d9-6f2c-47a0-8e86-0af2b24b0287"
                  },
                  {
                    "reference": "urn:uuid:6cb27d03-6d63-45de-971d-a95d3a1768bc"
                  },
                  {
                    "reference": "urn:uuid:485f6bb4-d1e9-434a-986a-d1449c8d7b5d"
                  },
                  {
                    "reference": "urn:uuid:e2466741-fb50-4353-9b48-80f3705b5bff"
                  }
                ],
                "text": {
                  "status": "generated",
                  "div": "<div xmlns=\"http://www.w3.org/1999/xhtml\"><h3>Chemistry</h3><table class=\"hl7__eu__lab__report\"><thead><tr><th>Test</th><th>06-NOV-2016</th><th>Reference&#xA0;Range</th><th>Unit</th></tr></thead><tbody><tr><td>Glucose [Mass/volume] in Serum or Plasma</td><td>90.6</td><td>70 - 140</td><td>mg/dL</td></tr><tr><td>Urea nitrogen [Mass/volume] in Serum or Plasma</td><td>14.7</td><td>7 - 25</td><td>mg/dL</td></tr><tr><td>Creatinine [Mass/volume] in Serum or Plasma</td><td><strong>2.7 H</strong></td><td>0.6 - 1.3</td><td>mg/dL</td></tr><tr><td>Calcium [Mass/volume] in Serum or Plasma</td><td>9.6</td><td>8.6 - 10.4</td><td>mg/dL</td></tr><tr><td>Sodium [Moles/volume] in Serum or Plasma</td><td>139.2</td><td>135 - 145</td><td>mmol/L</td></tr><tr><td>Potassium [Moles/volume] in Serum or Plasma</td><td>4.0</td><td>3.5 - 5.1</td><td>mmol/L</td></tr><tr><td>Chloride [Moles/volume] in Serum or Plasma</td><td>101.3</td><td>98 - 108</td><td>mmol/L</td></tr><tr><td>Carbon dioxide, total [Moles/volume] in Serum or Plasma</td><td>26.8</td><td>22 - 29</td><td>mmol/L</td></tr><tr><td>Protein [Mass/volume] in Serum or Plasma</td><td>7.9</td><td>6.6 - 8.3</td><td>g/dL</td></tr><tr><td>Albumin [Mass/volume] in Serum or Plasma</td><td>4.2</td><td>3.5 - 5.5</td><td>g/dL</td></tr><tr><td>Bilirubin.total [Mass/volume] in Serum or Plasma</td><td><strong>14.7 H</strong></td><td>0.3 - 1.2</td><td>mg/dL</td></tr><tr><td>Alkaline phosphatase [Enzymatic activity/volume] in Serum or Plasma</td><td>61.7</td><td>40 - 130</td><td>U/L</td></tr><tr><td>Alanine aminotransferase [Enzymatic activity/volume] in Serum or Plasma</td><td>18.2</td><td>7 - 55</td><td>U/L</td></tr><tr><td>Aspartate aminotransferase [Enzymatic activity/volume] in Serum or Plasma</td><td>35.4</td><td>10 - 40</td><td>U/L</td></tr><tr><td>Magnesium [Mass/volume] in Serum or Plasma</td><td>2.2</td><td>1.8 - 2.3</td><td>mg/dL</td></tr><tr><td>Phosphate [Mass/volume] in Serum or Plasma</td><td>3.9</td><td>2.5 - 4.5</td><td>mg/dL</td></tr><tr><td>pH of Arterial blood</td><td><strong>7.1 L</strong></td><td>7.35 - 7.45</td><td>[pH]</td></tr><tr><td>Carbon dioxide [Partial pressure] in Arterial blood</td><td>43.6</td><td>35 - 45</td><td>mm[Hg]</td></tr><tr><td>Oxygen [Partial pressure] in Arterial blood</td><td>86.3</td><td>75 - 100</td><td>mm[Hg]</td></tr><tr><td>Bicarbonate [Moles/volume] in Arterial blood</td><td>25.0</td><td>22 - 32</td><td>mmol/L</td></tr><tr><td>Oxygen saturation in Arterial blood</td><td><strong>91.0 L</strong></td><td>95 - 100</td><td>%</td></tr><tr><td>Cholesterol [Mass/volume] in Serum or Plasma</td><td><strong>260.2 H</strong></td><td>125 - 200</td><td>mg/dL</td></tr><tr><td>Triglyceride [Mass/volume] in Serum or Plasma</td><td>131.1</td><td>10 - 175</td><td>mg/dL</td></tr><tr><td>Cholesterol in LDL [Mass/volume] in Serum or Plasma by Direct assay</td><td><strong>181.2 H</strong></td><td>0 - 130</td><td>mg/dL</td></tr><tr><td>Cholesterol in HDL [Mass/volume] in Serum or Plasma</td><td>52.8</td><td>50 - 100</td><td>mg/dL</td></tr><tr><td>Troponin I.cardiac [Mass/volume] in Serum or Plasma by High sensitivity method</td><td>0.0</td><td>0 - 26.2</td><td>pg/mL</td></tr><tr><td>Thyrotropin [Units/volume] in Serum or Plasma</td><td>4.1</td><td>0.5 - 6</td><td>m[IU]/L</td></tr><tr><td>Hemoglobin A1c/Hemoglobin.total in Blood</td><td>5.2</td><td>4.5 - 6.4</td><td>%</td></tr><tr><td>Ketones [Presence] in Urine by Test strip</td><td>1.0</td><td>0.5 - 4</td><td>{presence}</td></tr></tbody></table></div>"
                },
                "title": "Chemistry"
              },
              {
                "code": {
                  "coding": [
                    {
                      "code": "$18720-3",
                      "system": "http://loinc.org",
                      "display": "Coagulation studies (set)"
                    }
                  ],
                  "text": "Coagulation"
                },
                "entry": [
                  {
                    "reference": "urn:uuid:1755019d-90b2-4b5c-ac02-5ce681dd2f0e"
                  },
                  {
                    "reference": "urn:uuid:ba763aa7-e5ec-4960-9445-d292e401d9b0"
                  },
                  {
                    "reference": "urn:uuid:ec28adca-0c57-4599-ab2e-418003cc1eb2"
                  }
                ],
                "text": {
                  "status": "generated",
                  "div": "<div xmlns=\"http://www.w3.org/1999/xhtml\"><h3>Coagulation</h3><table class=\"hl7__eu__lab__report\"><thead><tr><th>Test</th><th>06-NOV-2016</th><th>Reference&#xA0;Range</th><th>Unit</th></tr></thead><tbody><tr><td>Prothrombin time (PT)</td><td>11.5</td><td>11 - 15</td><td>s</td></tr><tr><td>INR in Platelet poor plasma by Coagulation assay</td><td>0.9</td><td>0.9 - 3</td><td>{INR}</td></tr><tr><td>aPTT in Blood by Coagulation assay</td><td>33.9</td><td>25 - 40</td><td>s</td></tr></tbody></table></div>"
                },
                "title": "Coagulation"
              },
              {
                "code": {
                  "coding": [
                    {
                      "code": "$18729-4",
                      "system": "http://loinc.org",
                      "display": "Urinalysis studies (set)"
                    }
                  ],
                  "text": "Urinalysis"
                },
                "entry": [
                  {
                    "reference": "urn:uuid:ef272424-3383-4a51-a3de-4afe6f6e45bd"
                  },
                  {
                    "reference": "urn:uuid:754dc900-4cdc-4646-b97b-2ef582aaa323"
                  },
                  {
                    "reference": "urn:uuid:2b54cba8-ad46-4ee3-8bb7-a8d422939b5c"
                  },
                  {
                    "reference": "urn:uuid:4bf76950-e2e5-4cfa-a3da-c754eeff2fc6"
                  },
                  {
                    "reference": "urn:uuid:d772e06c-1d0b-4f96-abf8-a8736a6ed8cd"
                  },
                  {
                    "reference": "urn:uuid:081bc5aa-58bc-4d7a-9791-b434a3e0bd25"
                  },
                  {
                    "reference": "urn:uuid:c1bc21c6-0bc5-4dc6-babc-b5930512d258"
                  },
                  {
                    "reference": "urn:uuid:dfdaa299-0f2e-480a-94d1-5313c23d723e"
                  }
                ],
                "text": {
                  "status": "generated",
                  "div": "<div xmlns=\"http://www.w3.org/1999/xhtml\"><h3>Urinalysis</h3><table class=\"hl7__eu__lab__report\"><thead><tr><th>Test</th><th>06-NOV-2016</th><th>Reference&#xA0;Range</th><th>Unit</th></tr></thead><tbody><tr><td>Glucose [Presence] in Urine by Test strip</td><td><strong>1.0 H</strong></td><td>0 - 0</td><td>{presence}</td></tr><tr><td>Bilirubin.total [Presence] in Urine by Test strip</td><td>1.0</td><td>0 - 1</td><td>{presence}</td></tr><tr><td>Specific gravity of Urine by Test strip</td><td><strong>1.0 L</strong></td><td>1.01 - 1.03</td><td>{SG}</td></tr><tr><td>pH of Urine by Test strip</td><td>5.6</td><td>4.5 - 7.5</td><td>[pH]</td></tr><tr><td>Protein [Presence] in Urine by Test strip</td><td><strong>1.0 H</strong></td><td>0 - 0</td><td>{presence}</td></tr><tr><td>Nitrite [Presence] in Urine by Test strip</td><td>1.0</td><td>0 - 1</td><td>{presence}</td></tr><tr><td>Hemoglobin [Presence] in Urine by Test strip</td><td>0.0</td><td>0 - 0</td><td>{presence}</td></tr><tr><td>Leukocyte esterase [Presence] in Urine by Test strip</td><td>0.0</td><td>0 - 0</td><td>{presence}</td></tr></tbody></table></div>"
                },
                "title": "Urinalysis"
              }
            ],
            "title": "Laboratory Report"
          },
          {
            "text": {
              "status": "generated",
              "div": "<div xmlns=\"http://www.w3.org/1999/xhtml\"><h3>Annotation</h3><table class=\"hl7__eu__lab__report\"><tr><th>Conclusion and Recommendations based on this report and previous findings known to us</th></tr><tr><td>The patient shows mild normocytic anemia, decreased hematocrit, and impaired renal function (elevated creatinine). There is marked hyperbilirubinemia with normal liver enzymes, suggesting possible hemolysis or cholestasis. Metabolic acidosis is present (low arterial pH, low O2 saturation). Lipid profile is atherogenic (high total and LDL cholesterol). Urinalysis reveals proteinuria and glucosuria, indicating possible renal involvement. Further clinical correlation and follow-up are recommended.</td></tr></table></div>"
            },
            "code": {
              "coding": [
                {
                  "system": "http://loinc.org",
                  "code": "48767-8",
                  "display": "Annotation comment"
                }
              ]
            },
            "title": "Annotation comment"
          }
        ],
        "status": "final",
        "subject": {
          "reference": "urn:uuid:f102369a-8249-40e4-b244-1854f18fa7da",
          "display": "Ludmila Vávrová"
        },
        "date": "2016-11-06T22:34:53Z",
        "title": "Laboratory Report",
        "confidentiality": "N"
      }
    },
    {
      "fullUrl": "urn:uuid:ab54a93c-465e-4033-ae40-b13347d02552",
      "resource": {
        "resourceType": "DiagnosticReport",
        "id": "ab54a93c-465e-4033-ae40-b13347d02552",
        "meta": {
          "profile": [
            "http://hl7.eu/fhir/laboratory/StructureDefinition/DiagnosticReport-eu-lab"
          ]
        },
        "identifier": [
          {
            "assigner": {
              "display": "HL7 Europe"
            },
            "system": "urn:oid:2.16.840.1.113883.2.51.999",
            "value": "83a16b3b-e047-4dc9-aec1-d66cbd895f3e"
          }
        ],
        "extension": [
          {
            "url": "http://hl7.org/fhir/5.0/StructureDefinition/extension-DiagnosticReport.composition",
            "valueReference": {
              "reference": "urn:uuid:6d87fb5f-0afa-4e1e-ac36-e6a5a787b4d8"
            }
          }
        ],
        "category": [
          {
            "coding": [
              {
                "code": "26436-6",
                "system": "http://loinc.org",
                "display": "Laboratory studies (set)"
              }
            ]
          }
        ],
        "specimen": [
          {
            "reference": "urn:uuid:dca375b1-2e98-4d0a-b7de-9a2f87b096c0"
          },
          {
            "reference": "urn:uuid:dca375b1-2e98-4d0a-b7de-9a2f87b096c0"
          },
          {
            "reference": "urn:uuid:191fb8ab-4e2b-4249-bae9-a7f0bd8a0a36"
          },
          {
            "reference": "urn:uuid:8b536919-1d4c-40f4-b5f0-5c236eab382d"
          },
          {
            "reference": "urn:uuid:c108accf-9a96-4bae-9c1c-8cb6357f7fc8"
          },
          {
            "reference": "urn:uuid:50bfbb7b-6c35-4190-ae9f-64832ab1706d"
          }
        ],
        "result": [
          {
            "reference": "urn:uuid:e975372e-2ac3-43d4-bb0a-a9a251b26115"
          },
          {
            "reference": "urn:uuid:28f70aa3-9f07-4792-aaec-2fcdd31c4ff9"
          },
          {
            "reference": "urn:uuid:e2053142-8ff3-4803-bf9c-b8a88dd1148b"
          },
          {
            "reference": "urn:uuid:fa01cf04-6a2d-402f-9d8e-2f6482de012a"
          },
          {
            "reference": "urn:uuid:ef63529c-ce38-454e-81cc-005be93bb814"
          },
          {
            "reference": "urn:uuid:c606d4e8-6685-4d28-958e-997abf794aad"
          },
          {
            "reference": "urn:uuid:102e9a48-86c5-4619-96f8-5abd40b1a427"
          },
          {
            "reference": "urn:uuid:a91e2771-c96a-48f1-8cc3-44883d37e9ad"
          },
          {
            "reference": "urn:uuid:21dd763f-5540-47da-9647-0b6204e9f0c3"
          },
          {
            "reference": "urn:uuid:c5b47261-455b-47f0-8239-74a654b23d4c"
          },
          {
            "reference": "urn:uuid:f44e2e3b-3367-421c-a7f2-d45ca8aca0c2"
          },
          {
            "reference": "urn:uuid:2d395abc-4e74-4bb6-b239-49e5c499c955"
          },
          {
            "reference": "urn:uuid:fb46ac31-af70-4e73-b214-bb669c13fcda"
          },
          {
            "reference": "urn:uuid:661b6f13-736f-4d3f-a010-f2f77e5d64d1"
          },
          {
            "reference": "urn:uuid:6b717ea7-df35-4ad4-b034-5a232fdf7ffc"
          },
          {
            "reference": "urn:uuid:a493526e-168b-4f38-b7ff-e70766d0390c"
          },
          {
            "reference": "urn:uuid:0eb80be2-5994-4016-bb3e-20d896535a05"
          },
          {
            "reference": "urn:uuid:25b9b904-f040-45b7-9952-bd156c240b6f"
          },
          {
            "reference": "urn:uuid:b2176e67-ba1b-40a0-9e9a-1bf595206245"
          },
          {
            "reference": "urn:uuid:bbdfd7d1-23bd-4cb2-90dd-65e4f2141f21"
          },
          {
            "reference": "urn:uuid:5ebe4dd0-f061-450d-af2f-a02b2e12bea8"
          },
          {
            "reference": "urn:uuid:1bd092cd-68de-44c5-a865-a758bec4a8cc"
          },
          {
            "reference": "urn:uuid:6fb2ca1a-e515-4d07-807b-96f7df27b2f5"
          },
          {
            "reference": "urn:uuid:95ad32e3-510d-4146-a7f0-b0a688009153"
          },
          {
            "reference": "urn:uuid:f7d0b62b-2e18-4953-89ce-f30c064f2170"
          },
          {
            "reference": "urn:uuid:1755019d-90b2-4b5c-ac02-5ce681dd2f0e"
          },
          {
            "reference": "urn:uuid:ba763aa7-e5ec-4960-9445-d292e401d9b0"
          },
          {
            "reference": "urn:uuid:ec28adca-0c57-4599-ab2e-418003cc1eb2"
          },
          {
            "reference": "urn:uuid:301a5030-82e0-4179-b91d-7308820859cd"
          },
          {
            "reference": "urn:uuid:72f73a00-5c9d-466f-8a21-8b2b47523c6d"
          },
          {
            "reference": "urn:uuid:1f5b3686-fa42-4d66-a9c2-7f5624fcc7b9"
          },
          {
            "reference": "urn:uuid:a480cc83-ea0c-410b-a0bb-3aba2bec1a4d"
          },
          {
            "reference": "urn:uuid:ae1c1637-8818-43e0-8729-38ed52704b3f"
          },
          {
            "reference": "urn:uuid:fe2891ed-6751-4e82-9a88-d15d047b75af"
          },
          {
            "reference": "urn:uuid:d6eadb3b-81ad-4ef9-b602-32b2fffdff70"
          },
          {
            "reference": "urn:uuid:0a143ba0-1f28-4167-bfd9-2ef9810c19ec"
          },
          {
            "reference": "urn:uuid:35d43f32-3c28-4e72-892e-a09fd7447f83"
          },
          {
            "reference": "urn:uuid:55a3b3d9-6f2c-47a0-8e86-0af2b24b0287"
          },
          {
            "reference": "urn:uuid:6cb27d03-6d63-45de-971d-a95d3a1768bc"
          },
          {
            "reference": "urn:uuid:485f6bb4-d1e9-434a-986a-d1449c8d7b5d"
          },
          {
            "reference": "urn:uuid:ef272424-3383-4a51-a3de-4afe6f6e45bd"
          },
          {
            "reference": "urn:uuid:754dc900-4cdc-4646-b97b-2ef582aaa323"
          },
          {
            "reference": "urn:uuid:e2466741-fb50-4353-9b48-80f3705b5bff"
          },
          {
            "reference": "urn:uuid:2b54cba8-ad46-4ee3-8bb7-a8d422939b5c"
          },
          {
            "reference": "urn:uuid:4bf76950-e2e5-4cfa-a3da-c754eeff2fc6"
          },
          {
            "reference": "urn:uuid:d772e06c-1d0b-4f96-abf8-a8736a6ed8cd"
          },
          {
            "reference": "urn:uuid:081bc5aa-58bc-4d7a-9791-b434a3e0bd25"
          },
          {
            "reference": "urn:uuid:c1bc21c6-0bc5-4dc6-babc-b5930512d258"
          },
          {
            "reference": "urn:uuid:dfdaa299-0f2e-480a-94d1-5313c23d723e"
          }
        ],
        "status": "registered",
        "code": {
          "coding": [
            {
              "code": "11502-2",
              "system": "http://loinc.org",
              "display": "Laboratory report"
            }
          ]
        },
        "subject": {
          "reference": "urn:uuid:f102369a-8249-40e4-b244-1854f18fa7da",
          "display": "Ludmila Vávrová"
        }
      }
    },
    {
      "fullUrl": "urn:uuid:f102369a-8249-40e4-b244-1854f18fa7da",
      "resource": {
        "resourceType": "Patient",
        "id": "f102369a-8249-40e4-b244-1854f18fa7da",
        "meta": {
          "security": [
            {
              "system": "http://terminology.hl7.org/CodeSystem/v3-ActReason",
              "code": "HTEST"
            },
            {
              "system": "http://terminology.hl7.org/CodeSystem/v3-ActReason",
              "code": "TRAIN"
            }
          ],
          "tag": [
            {
              "system": "https://synderai.net/fhir/CodeSystem/tags",
              "code": "synthetic",
              "display": "SYNDERAI Synthetic data"
            }
          ],
          "profile": [
            "http://hl7.eu/fhir/base/StructureDefinition/patient-eu-core"
          ]
        },
        "identifier": [
          {
            "type": {
              "coding": [
                {
                  "code": "PT",
                  "system": "http://terminology.hl7.org/CodeSystem/v2-0203"
                }
              ]
            },
            "system": "http://ec.europa.eu/identifier/eci",
            "value": "1992-540676-1"
          },
          {
            "type": {
              "coding": [
                {
                  "code": "MR",
                  "system": "http://terminology.hl7.org/CodeSystem/v2-0203"
                }
              ]
            },
            "system": "http://local.setting.eu/identifier",
            "value": "7c533aae-6e7f-89aa-dfdc-8ff900a5990b"
          }
        ],
        "name": [
          {
            "family": "Vávrová"
          },
          {
            "given": [
              "Ludmila"
            ]
          },
          {
            "text": "Ludmila Vávrová"
          }
        ],
        "address": [
          {
            "line": [
              "Šárovo Kolo 116"
            ],
            "use": "home",
            "type": "physical",
            "postalCode": "29471",
            "city": "Bakov nad Jizerou",
            "country": "Czechia"
          }
        ],
        "telecom": [
          {
            "system": "phone",
            "value": "00420 607 610 889"
          }
        ],
        "extension": [
          {
            "url": "http://hl7.org/fhir/StructureDefinition/patient-nationality",
            "valueCodeableConcept": {
              "coding": [
                {
                  "code": "CZ",
                  "system": "http://hl7.org/fhir/ValueSet/country"
                }
              ]
            }
          }
        ],
        "text": {
          "status": "generated",
          "div": "<div xmlns=\"http://www.w3.org/1999/xhtml\"><table class=\"hl7__ips\"><tr><td>Ludmila Vávrová</td><td>female</td><td>08-Aug-1940</td></tr></table></div>"
        },
        "gender": "female",
        "birthDate": "1940-08-08"
      }
    },
    {
      "fullUrl": "urn:uuid:2d22d141-d430-4e01-8212-d3cb2262d204",
      "resource": {
        "resourceType": "ServiceRequest",
        "id": "2d22d141-d430-4e01-8212-d3cb2262d204",
        "meta": {
          "profile": [
            "http://hl7.eu/fhir/laboratory/StructureDefinition/ServiceRequest-eu-lab"
          ]
        },
        "identifier": [
          {
            "system": "http://example.org",
            "value": "310d13c0-8815-410f-9ce8-d6217f19701b"
          }
        ],
        "specimen": [
          {
            "reference": "urn:uuid:dca375b1-2e98-4d0a-b7de-9a2f87b096c0"
          },
          {
            "reference": "urn:uuid:191fb8ab-4e2b-4249-bae9-a7f0bd8a0a36"
          },
          {
            "reference": "urn:uuid:8b536919-1d4c-40f4-b5f0-5c236eab382d"
          },
          {
            "reference": "urn:uuid:c108accf-9a96-4bae-9c1c-8cb6357f7fc8"
          },
          {
            "reference": "urn:uuid:50bfbb7b-6c35-4190-ae9f-64832ab1706d"
          }
        ],
        "reasonCode": [
          {
            "coding": [
              {
                "code": "414545008",
                "system": "http://snomed.info/sct",
                "display": "Ischemic heart disease"
              }
            ]
          },
          {
            "coding": [
              {
                "code": "64859006",
                "system": "http://snomed.info/sct",
                "display": "Osteoporosis"
              }
            ]
          },
          {
            "coding": [
              {
                "code": "6525002",
                "system": "http://snomed.info/sct",
                "display": "Dependent drug abuse"
              }
            ]
          },
          {
            "coding": [
              {
                "code": "55822004",
                "system": "http://snomed.info/sct",
                "display": "Hyperlipidemia"
              }
            ]
          },
          {
            "coding": [
              {
                "code": "124171000119105",
                "system": "http://snomed.info/sct",
                "display": "Chronic intractable migraine without aura"
              }
            ]
          },
          {
            "coding": [
              {
                "code": "196416002",
                "system": "http://snomed.info/sct",
                "display": "Impacted molars"
              }
            ]
          },
          {
            "coding": [
              {
                "code": "239872002",
                "system": "http://snomed.info/sct",
                "display": "Osteoarthritis of hip"
              }
            ]
          },
          {
            "coding": [
              {
                "code": "40055000",
                "system": "http://snomed.info/sct",
                "display": "Chronic sinusitis"
              }
            ]
          }
        ],
        "status": "active",
        "intent": "order",
        "code": {
          "coding": [
            {
              "code": "108252007",
              "system": "http://snomed.info/sct",
              "display": "Laboratory procedure"
            }
          ]
        },
        "subject": {
          "reference": "urn:uuid:f102369a-8249-40e4-b244-1854f18fa7da",
          "display": "Ludmila Vávrová"
        },
        "requester": {
          "reference": "urn:uuid:3ed52237-57b2-4421-981f-2a86c20e74df"
        }
      }
    },
    {
      "fullUrl": "urn:uuid:3ed52237-57b2-4421-981f-2a86c20e74df",
      "resource": {
        "resourceType": "PractitionerRole",
        "id": "3ed52237-57b2-4421-981f-2a86c20e74df",
        "meta": {
          "profile": [
            "http://hl7.eu/fhir/base/StructureDefinition/practitionerRole-eu"
          ]
        },
        "text": {
          "status": "generated",
          "div": "<div xmlns=\"http://www.w3.org/1999/xhtml\">Provider Role Id: 3ed52237-57b2-4421-981f-2a86c20e74df</div>"
        },
        "organization": {
          "reference": "urn:uuid:eb8fb148-a712-49b6-8f63-07bcdf57208d"
        }
      }
    },
    {
      "fullUrl": "urn:uuid:eb8fb148-a712-49b6-8f63-07bcdf57208d",
      "resource": {
        "resourceType": "Organization",
        "id": "eb8fb148-a712-49b6-8f63-07bcdf57208d",
        "meta": {
          "profile": [
            "http://hl7.eu/fhir/base/StructureDefinition/organization-eu"
          ]
        },
        "identifier": [
          {
            "assigner": {
              "display": "HL7 Europe"
            },
            "system": "urn:oid:2.16.840.1.113883.2.51.999",
            "value": "ed2380da-6960-4bcf-bd0a-c3ed2dd01f80"
          }
        ],
        "address": [
          {
            "city": "Kosmonosy",
            "postalCode": "293 06",
            "country": "Czechia"
          }
        ],
        "text": {
          "status": "generated",
          "div": "<div xmlns=\"http://www.w3.org/1999/xhtml\">Provider Organization: Psychiatrická nemocnice Kosmonosy</div>"
        },
        "name": "Psychiatrická nemocnice Kosmonosy"
      }
    },
    {
      "fullUrl": "urn:uuid:dca375b1-2e98-4d0a-b7de-9a2f87b096c0",
      "resource": {
        "resourceType": "Specimen",
        "id": "dca375b1-2e98-4d0a-b7de-9a2f87b096c0",
        "meta": {
          "profile": [
            "http://hl7.eu/fhir/laboratory/StructureDefinition/Specimen-eu-lab"
          ]
        },
        "collection": {
          "collectedDateTime": "2016-11-06"
        },
        "text": {
          "status": "generated",
          "div": "<div xmlns=\"http://www.w3.org/1999/xhtml\"><table class=\"hl7__eu__lab__report\"><tr><th>Specimen</th><th>Collection Date</th></tr><tr><td>Whole blood specimen (specimen)</td><td><span class=\"nb\">06-Nov-2016</span></td></tr></table></div>"
        },
        "type": {
          "coding": [
            {
              "code": "258580003",
              "system": "http://snomed.info/sct",
              "display": "Whole blood specimen (specimen)"
            }
          ]
        }
      }
    },
    {
      "fullUrl": "urn:uuid:dca375b1-2e98-4d0a-b7de-9a2f87b096c0",
      "resource": {
        "resourceType": "Specimen",
        "id": "dca375b1-2e98-4d0a-b7de-9a2f87b096c0",
        "meta": {
          "profile": [
            "http://hl7.eu/fhir/laboratory/StructureDefinition/Specimen-eu-lab"
          ]
        },
        "collection": {
          "collectedDateTime": "2016-11-06"
        },
        "text": {
          "status": "generated",
          "div": "<div xmlns=\"http://www.w3.org/1999/xhtml\"><table class=\"hl7__eu__lab__report\"><tr><th>Specimen</th><th>Collection Date</th></tr><tr><td>Whole blood specimen (specimen)</td><td><span class=\"nb\">06-Nov-2016</span></td></tr></table></div>"
        },
        "type": {
          "coding": [
            {
              "code": "258580003",
              "system": "http://snomed.info/sct",
              "display": "Whole blood specimen (specimen)"
            }
          ]
        }
      }
    },
    {
      "fullUrl": "urn:uuid:191fb8ab-4e2b-4249-bae9-a7f0bd8a0a36",
      "resource": {
        "resourceType": "Specimen",
        "id": "191fb8ab-4e2b-4249-bae9-a7f0bd8a0a36",
        "meta": {
          "profile": [
            "http://hl7.eu/fhir/laboratory/StructureDefinition/Specimen-eu-lab"
          ]
        },
        "collection": {
          "collectedDateTime": "2016-11-06"
        },
        "text": {
          "status": "generated",
          "div": "<div xmlns=\"http://www.w3.org/1999/xhtml\"><table class=\"hl7__eu__lab__report\"><tr><th>Specimen</th><th>Collection Date</th></tr><tr><td>Acellular blood (serum or plasma) specimen</td><td><span class=\"nb\">06-Nov-2016</span></td></tr></table></div>"
        },
        "type": {
          "coding": [
            {
              "code": "122592007",
              "system": "http://snomed.info/sct",
              "display": "Acellular blood (serum or plasma) specimen"
            }
          ]
        }
      }
    },
    {
      "fullUrl": "urn:uuid:8b536919-1d4c-40f4-b5f0-5c236eab382d",
      "resource": {
        "resourceType": "Specimen",
        "id": "8b536919-1d4c-40f4-b5f0-5c236eab382d",
        "meta": {
          "profile": [
            "http://hl7.eu/fhir/laboratory/StructureDefinition/Specimen-eu-lab"
          ]
        },
        "collection": {
          "collectedDateTime": "2016-11-06"
        },
        "text": {
          "status": "generated",
          "div": "<div xmlns=\"http://www.w3.org/1999/xhtml\"><table class=\"hl7__eu__lab__report\"><tr><th>Specimen</th><th>Collection Date</th></tr><tr><td>Platelet poor plasma specimen</td><td><span class=\"nb\">06-Nov-2016</span></td></tr></table></div>"
        },
        "type": {
          "coding": [
            {
              "code": "119362004",
              "system": "http://snomed.info/sct",
              "display": "Platelet poor plasma specimen"
            }
          ]
        }
      }
    },
    {
      "fullUrl": "urn:uuid:c108accf-9a96-4bae-9c1c-8cb6357f7fc8",
      "resource": {
        "resourceType": "Specimen",
        "id": "c108accf-9a96-4bae-9c1c-8cb6357f7fc8",
        "meta": {
          "profile": [
            "http://hl7.eu/fhir/laboratory/StructureDefinition/Specimen-eu-lab"
          ]
        },
        "collection": {
          "collectedDateTime": "2016-11-06"
        },
        "text": {
          "status": "generated",
          "div": "<div xmlns=\"http://www.w3.org/1999/xhtml\"><table class=\"hl7__eu__lab__report\"><tr><th>Specimen</th><th>Collection Date</th></tr><tr><td>Arterial blood specimen</td><td><span class=\"nb\">06-Nov-2016</span></td></tr></table></div>"
        },
        "type": {
          "coding": [
            {
              "code": "122552005",
              "system": "http://snomed.info/sct",
              "display": "Arterial blood specimen"
            }
          ]
        }
      }
    },
    {
      "fullUrl": "urn:uuid:50bfbb7b-6c35-4190-ae9f-64832ab1706d",
      "resource": {
        "resourceType": "Specimen",
        "id": "50bfbb7b-6c35-4190-ae9f-64832ab1706d",
        "meta": {
          "profile": [
            "http://hl7.eu/fhir/laboratory/StructureDefinition/Specimen-eu-lab"
          ]
        },
        "collection": {
          "collectedDateTime": "2016-11-06"
        },
        "text": {
          "status": "generated",
          "div": "<div xmlns=\"http://www.w3.org/1999/xhtml\"><table class=\"hl7__eu__lab__report\"><tr><th>Specimen</th><th>Collection Date</th></tr><tr><td>Urine specimen</td><td><span class=\"nb\">06-Nov-2016</span></td></tr></table></div>"
        },
        "type": {
          "coding": [
            {
              "code": "122575003",
              "system": "http://snomed.info/sct",
              "display": "Urine specimen"
            }
          ]
        }
      }
    },
    {
      "fullUrl": "urn:uuid:e975372e-2ac3-43d4-bb0a-a9a251b26115",
      "resource": {
        "resourceType": "Observation",
        "id": "e975372e-2ac3-43d4-bb0a-a9a251b26115",
        "meta": {
          "profile": [
            "http://hl7.eu/fhir/laboratory/StructureDefinition/Observation-resultslab-eu-lab"
          ]
        },
        "performer": [
          {
            "display": "The Central European Lab"
          }
        ],
        "category": [
          {
            "coding": [
              {
                "system": "http://terminology.hl7.org/CodeSystem/observation-category",
                "code": "laboratory"
              }
            ]
          }
        ],
        "code": {
          "coding": [
            {
              "code": "6690-2",
              "system": "http://loinc.org",
              "display": "Leukocytes [#/volume] in Blood by Automated count"
            }
          ],
          "text": "Leukocytes [#/volume] in Blood by Automated count"
        },
        "valueQuantity": {
          "system": "http://unitsofmeasure.org",
          "value": 4.5,
          "unit": "10*3/uL",
          "code": "10*3/uL"
        },
        "referenceRange": [
          {
            "low": {
              "value": 3.4,
              "code": "10*3/uL",
              "system": "http://unitsofmeasure.org"
            }
          },
          {
            "high": {
              "value": 10.6,
              "code": "10*3/uL",
              "system": "http://unitsofmeasure.org"
            }
          }
        ],
        "text": {
          "status": "generated",
          "div": "<div xmlns=\"http://www.w3.org/1999/xhtml\"><table class=\"hl7__eu__lab__report\"><tr><th>Test</th><th>06-Nov-2016</th><th>Reference&#xA0;Range</th><th>Unit</th></tr><tr><td>Leukocytes [#/volume] in Blood by Automated count</td><td>4.5</td><td>3.4 - 10.6</td><td></td><td>10*3/uL</td></tr></table></div>"
        },
        "status": "final",
        "subject": {
          "reference": "urn:uuid:f102369a-8249-40e4-b244-1854f18fa7da",
          "display": "Ludmila Vávrová"
        },
        "effectiveDateTime": "2016-11-06T21:34:53Z",
        "specimen": {
          "reference": "urn:uuid:dca375b1-2e98-4d0a-b7de-9a2f87b096c0"
        }
      }
    },
    {
      "fullUrl": "urn:uuid:28f70aa3-9f07-4792-aaec-2fcdd31c4ff9",
      "resource": {
        "resourceType": "Observation",
        "id": "28f70aa3-9f07-4792-aaec-2fcdd31c4ff9",
        "meta": {
          "profile": [
            "http://hl7.eu/fhir/laboratory/StructureDefinition/Observation-resultslab-eu-lab"
          ]
        },
        "performer": [
          {
            "display": "The Central European Lab"
          }
        ],
        "category": [
          {
            "coding": [
              {
                "system": "http://terminology.hl7.org/CodeSystem/observation-category",
                "code": "laboratory"
              }
            ]
          }
        ],
        "code": {
          "coding": [
            {
              "code": "789-8",
              "system": "http://loinc.org",
              "display": "Erythrocytes [#/volume] in Blood by Automated count"
            }
          ],
          "text": "Erythrocytes [#/volume] in Blood by Automated count"
        },
        "valueQuantity": {
          "system": "http://unitsofmeasure.org",
          "value": 3.9,
          "unit": "10*6/uL",
          "code": "10*6/uL"
        },
        "referenceRange": [
          {
            "low": {
              "value": 4.7,
              "code": "10*6/uL",
              "system": "http://unitsofmeasure.org"
            }
          },
          {
            "high": {
              "value": 5.2,
              "code": "10*6/uL",
              "system": "http://unitsofmeasure.org"
            }
          }
        ],
        "interpretation": [
          {
            "coding": [
              {
                "code": "L",
                "system": "http://terminology.hl7.org/CodeSystem/v3-ObservationInterpretation",
                "display": "Low"
              }
            ]
          }
        ],
        "text": {
          "status": "generated",
          "div": "<div xmlns=\"http://www.w3.org/1999/xhtml\"><table class=\"hl7__eu__lab__report\"><tr><th>Test</th><th>06-Nov-2016</th><th>Reference&#xA0;Range</th><th>Unit</th></tr><tr><td>Erythrocytes [#/volume] in Blood by Automated count</td><td>3.9</td><td>4.7 - 5.2</td><td>L</td><td>10*6/uL</td></tr></table></div>"
        },
        "status": "final",
        "subject": {
          "reference": "urn:uuid:f102369a-8249-40e4-b244-1854f18fa7da",
          "display": "Ludmila Vávrová"
        },
        "effectiveDateTime": "2016-11-06T21:34:53Z",
        "specimen": {
          "reference": "urn:uuid:dca375b1-2e98-4d0a-b7de-9a2f87b096c0"
        }
      }
    },
    {
      "fullUrl": "urn:uuid:e2053142-8ff3-4803-bf9c-b8a88dd1148b",
      "resource": {
        "resourceType": "Observation",
        "id": "e2053142-8ff3-4803-bf9c-b8a88dd1148b",
        "meta": {
          "profile": [
            "http://hl7.eu/fhir/laboratory/StructureDefinition/Observation-resultslab-eu-lab"
          ]
        },
        "performer": [
          {
            "display": "The Central European Lab"
          }
        ],
        "category": [
          {
            "coding": [
              {
                "system": "http://terminology.hl7.org/CodeSystem/observation-category",
                "code": "laboratory"
              }
            ]
          }
        ],
        "code": {
          "coding": [
            {
              "code": "718-7",
              "system": "http://loinc.org",
              "display": "Hemoglobin [Mass/volume] in Blood"
            }
          ],
          "text": "Hemoglobin [Mass/volume] in Blood"
        },
        "valueQuantity": {
          "system": "http://unitsofmeasure.org",
          "value": 12.2,
          "unit": "g/dL",
          "code": "g/dL"
        },
        "referenceRange": [
          {
            "low": {
              "value": 11.5,
              "code": "g/dL",
              "system": "http://unitsofmeasure.org"
            }
          },
          {
            "high": {
              "value": 16,
              "code": "g/dL",
              "system": "http://unitsofmeasure.org"
            }
          }
        ],
        "text": {
          "status": "generated",
          "div": "<div xmlns=\"http://www.w3.org/1999/xhtml\"><table class=\"hl7__eu__lab__report\"><tr><th>Test</th><th>06-Nov-2016</th><th>Reference&#xA0;Range</th><th>Unit</th></tr><tr><td>Hemoglobin [Mass/volume] in Blood</td><td>12.2</td><td>11.5 - 16</td><td></td><td>g/dL</td></tr></table></div>"
        },
        "status": "final",
        "subject": {
          "reference": "urn:uuid:f102369a-8249-40e4-b244-1854f18fa7da",
          "display": "Ludmila Vávrová"
        },
        "effectiveDateTime": "2016-11-06T21:34:53Z",
        "specimen": {
          "reference": "urn:uuid:dca375b1-2e98-4d0a-b7de-9a2f87b096c0"
        }
      }
    },
    {
      "fullUrl": "urn:uuid:fa01cf04-6a2d-402f-9d8e-2f6482de012a",
      "resource": {
        "resourceType": "Observation",
        "id": "fa01cf04-6a2d-402f-9d8e-2f6482de012a",
        "meta": {
          "profile": [
            "http://hl7.eu/fhir/laboratory/StructureDefinition/Observation-resultslab-eu-lab"
          ]
        },
        "performer": [
          {
            "display": "The Central European Lab"
          }
        ],
        "category": [
          {
            "coding": [
              {
                "system": "http://terminology.hl7.org/CodeSystem/observation-category",
                "code": "laboratory"
              }
            ]
          }
        ],
        "code": {
          "coding": [
            {
              "code": "4544-3",
              "system": "http://loinc.org",
              "display": "Hematocrit [Volume Fraction] of Blood by Automated count"
            }
          ],
          "text": "Hematocrit [Volume Fraction] of Blood by Automated count"
        },
        "valueQuantity": {
          "system": "http://unitsofmeasure.org",
          "value": 37.2,
          "unit": "%",
          "code": "%"
        },
        "referenceRange": [
          {
            "low": {
              "value": 38,
              "code": "%",
              "system": "http://unitsofmeasure.org"
            }
          },
          {
            "high": {
              "value": 56,
              "code": "%",
              "system": "http://unitsofmeasure.org"
            }
          }
        ],
        "interpretation": [
          {
            "coding": [
              {
                "code": "L",
                "system": "http://terminology.hl7.org/CodeSystem/v3-ObservationInterpretation",
                "display": "Low"
              }
            ]
          }
        ],
        "text": {
          "status": "generated",
          "div": "<div xmlns=\"http://www.w3.org/1999/xhtml\"><table class=\"hl7__eu__lab__report\"><tr><th>Test</th><th>06-Nov-2016</th><th>Reference&#xA0;Range</th><th>Unit</th></tr><tr><td>Hematocrit [Volume Fraction] of Blood by Automated count</td><td>37.2</td><td>38 - 56</td><td>L</td><td>%</td></tr></table></div>"
        },
        "status": "final",
        "subject": {
          "reference": "urn:uuid:f102369a-8249-40e4-b244-1854f18fa7da",
          "display": "Ludmila Vávrová"
        },
        "effectiveDateTime": "2016-11-06T21:34:53Z",
        "specimen": {
          "reference": "urn:uuid:dca375b1-2e98-4d0a-b7de-9a2f87b096c0"
        }
      }
    },
    {
      "fullUrl": "urn:uuid:ef63529c-ce38-454e-81cc-005be93bb814",
      "resource": {
        "resourceType": "Observation",
        "id": "ef63529c-ce38-454e-81cc-005be93bb814",
        "meta": {
          "profile": [
            "http://hl7.eu/fhir/laboratory/StructureDefinition/Observation-resultslab-eu-lab"
          ]
        },
        "performer": [
          {
            "display": "The Central European Lab"
          }
        ],
        "category": [
          {
            "coding": [
              {
                "system": "http://terminology.hl7.org/CodeSystem/observation-category",
                "code": "laboratory"
              }
            ]
          }
        ],
        "code": {
          "coding": [
            {
              "code": "787-2",
              "system": "http://loinc.org",
              "display": "MCV [Entitic volume] by Automated count"
            }
          ],
          "text": "MCV [Entitic volume] by Automated count"
        },
        "valueQuantity": {
          "system": "http://unitsofmeasure.org",
          "value": 91,
          "unit": "fL",
          "code": "fL"
        },
        "referenceRange": [
          {
            "low": {
              "value": 78,
              "code": "fL",
              "system": "http://unitsofmeasure.org"
            }
          },
          {
            "high": {
              "value": 98,
              "code": "fL",
              "system": "http://unitsofmeasure.org"
            }
          }
        ],
        "text": {
          "status": "generated",
          "div": "<div xmlns=\"http://www.w3.org/1999/xhtml\"><table class=\"hl7__eu__lab__report\"><tr><th>Test</th><th>06-Nov-2016</th><th>Reference&#xA0;Range</th><th>Unit</th></tr><tr><td>MCV [Entitic volume] by Automated count</td><td>91.0</td><td>78 - 98</td><td></td><td>fL</td></tr></table></div>"
        },
        "status": "final",
        "subject": {
          "reference": "urn:uuid:f102369a-8249-40e4-b244-1854f18fa7da",
          "display": "Ludmila Vávrová"
        },
        "effectiveDateTime": "2016-11-06T21:34:53Z",
        "specimen": {
          "reference": "urn:uuid:dca375b1-2e98-4d0a-b7de-9a2f87b096c0"
        }
      }
    },
    {
      "fullUrl": "urn:uuid:c606d4e8-6685-4d28-958e-997abf794aad",
      "resource": {
        "resourceType": "Observation",
        "id": "c606d4e8-6685-4d28-958e-997abf794aad",
        "meta": {
          "profile": [
            "http://hl7.eu/fhir/laboratory/StructureDefinition/Observation-resultslab-eu-lab"
          ]
        },
        "performer": [
          {
            "display": "The Central European Lab"
          }
        ],
        "category": [
          {
            "coding": [
              {
                "system": "http://terminology.hl7.org/CodeSystem/observation-category",
                "code": "laboratory"
              }
            ]
          }
        ],
        "code": {
          "coding": [
            {
              "code": "785-6",
              "system": "http://loinc.org",
              "display": "MCH [Entitic mass] by Automated count"
            }
          ],
          "text": "MCH [Entitic mass] by Automated count"
        },
        "valueQuantity": {
          "system": "http://unitsofmeasure.org",
          "value": 32.6,
          "unit": "pg",
          "code": "pg"
        },
        "referenceRange": [
          {
            "low": {
              "value": 27,
              "code": "pg",
              "system": "http://unitsofmeasure.org"
            }
          },
          {
            "high": {
              "value": 34,
              "code": "pg",
              "system": "http://unitsofmeasure.org"
            }
          }
        ],
        "text": {
          "status": "generated",
          "div": "<div xmlns=\"http://www.w3.org/1999/xhtml\"><table class=\"hl7__eu__lab__report\"><tr><th>Test</th><th>06-Nov-2016</th><th>Reference&#xA0;Range</th><th>Unit</th></tr><tr><td>MCH [Entitic mass] by Automated count</td><td>32.6</td><td>27 - 34</td><td></td><td>pg</td></tr></table></div>"
        },
        "status": "final",
        "subject": {
          "reference": "urn:uuid:f102369a-8249-40e4-b244-1854f18fa7da",
          "display": "Ludmila Vávrová"
        },
        "effectiveDateTime": "2016-11-06T21:34:53Z",
        "specimen": {
          "reference": "urn:uuid:dca375b1-2e98-4d0a-b7de-9a2f87b096c0"
        }
      }
    },
    {
      "fullUrl": "urn:uuid:102e9a48-86c5-4619-96f8-5abd40b1a427",
      "resource": {
        "resourceType": "Observation",
        "id": "102e9a48-86c5-4619-96f8-5abd40b1a427",
        "meta": {
          "profile": [
            "http://hl7.eu/fhir/laboratory/StructureDefinition/Observation-resultslab-eu-lab"
          ]
        },
        "performer": [
          {
            "display": "The Central European Lab"
          }
        ],
        "category": [
          {
            "coding": [
              {
                "system": "http://terminology.hl7.org/CodeSystem/observation-category",
                "code": "laboratory"
              }
            ]
          }
        ],
        "code": {
          "coding": [
            {
              "code": "786-4",
              "system": "http://loinc.org",
              "display": "MCHC [Mass/volume] by Automated count"
            }
          ],
          "text": "MCHC [Mass/volume] by Automated count"
        },
        "valueQuantity": {
          "system": "http://unitsofmeasure.org",
          "value": 31.8,
          "unit": "g/dL",
          "code": "g/dL"
        },
        "referenceRange": [
          {
            "low": {
              "value": 31,
              "code": "g/dL",
              "system": "http://unitsofmeasure.org"
            }
          },
          {
            "high": {
              "value": 36,
              "code": "g/dL",
              "system": "http://unitsofmeasure.org"
            }
          }
        ],
        "text": {
          "status": "generated",
          "div": "<div xmlns=\"http://www.w3.org/1999/xhtml\"><table class=\"hl7__eu__lab__report\"><tr><th>Test</th><th>06-Nov-2016</th><th>Reference&#xA0;Range</th><th>Unit</th></tr><tr><td>MCHC [Mass/volume] by Automated count</td><td>31.8</td><td>31 - 36</td><td></td><td>g/dL</td></tr></table></div>"
        },
        "status": "final",
        "subject": {
          "reference": "urn:uuid:f102369a-8249-40e4-b244-1854f18fa7da",
          "display": "Ludmila Vávrová"
        },
        "effectiveDateTime": "2016-11-06T21:34:53Z",
        "specimen": {
          "reference": "urn:uuid:dca375b1-2e98-4d0a-b7de-9a2f87b096c0"
        }
      }
    },
    {
      "fullUrl": "urn:uuid:a91e2771-c96a-48f1-8cc3-44883d37e9ad",
      "resource": {
        "resourceType": "Observation",
        "id": "a91e2771-c96a-48f1-8cc3-44883d37e9ad",
        "meta": {
          "profile": [
            "http://hl7.eu/fhir/laboratory/StructureDefinition/Observation-resultslab-eu-lab"
          ]
        },
        "performer": [
          {
            "display": "The Central European Lab"
          }
        ],
        "category": [
          {
            "coding": [
              {
                "system": "http://terminology.hl7.org/CodeSystem/observation-category",
                "code": "laboratory"
              }
            ]
          }
        ],
        "code": {
          "coding": [
            {
              "code": "788-0",
              "system": "http://loinc.org",
              "display": "Erythrocyte distribution width [Ratio] by Automated count"
            }
          ],
          "text": "Erythrocyte distribution width [Ratio] by Automated count"
        },
        "valueQuantity": {
          "system": "http://unitsofmeasure.org",
          "value": 12.3,
          "unit": "%",
          "code": "%"
        },
        "referenceRange": [
          {
            "low": {
              "value": 11.6,
              "code": "%",
              "system": "http://unitsofmeasure.org"
            }
          },
          {
            "high": {
              "value": 16.5,
              "code": "%",
              "system": "http://unitsofmeasure.org"
            }
          }
        ],
        "text": {
          "status": "generated",
          "div": "<div xmlns=\"http://www.w3.org/1999/xhtml\"><table class=\"hl7__eu__lab__report\"><tr><th>Test</th><th>06-Nov-2016</th><th>Reference&#xA0;Range</th><th>Unit</th></tr><tr><td>Erythrocyte distribution width [Ratio] by Automated count</td><td>12.3</td><td>11.6 - 16.5</td><td></td><td>%</td></tr></table></div>"
        },
        "status": "final",
        "subject": {
          "reference": "urn:uuid:f102369a-8249-40e4-b244-1854f18fa7da",
          "display": "Ludmila Vávrová"
        },
        "effectiveDateTime": "2016-11-06T21:34:53Z",
        "specimen": {
          "reference": "urn:uuid:dca375b1-2e98-4d0a-b7de-9a2f87b096c0"
        }
      }
    },
    {
      "fullUrl": "urn:uuid:21dd763f-5540-47da-9647-0b6204e9f0c3",
      "resource": {
        "resourceType": "Observation",
        "id": "21dd763f-5540-47da-9647-0b6204e9f0c3",
        "meta": {
          "profile": [
            "http://hl7.eu/fhir/laboratory/StructureDefinition/Observation-resultslab-eu-lab"
          ]
        },
        "performer": [
          {
            "display": "The Central European Lab"
          }
        ],
        "category": [
          {
            "coding": [
              {
                "system": "http://terminology.hl7.org/CodeSystem/observation-category",
                "code": "laboratory"
              }
            ]
          }
        ],
        "code": {
          "coding": [
            {
              "code": "777-3",
              "system": "http://loinc.org",
              "display": "Platelets [#/volume] in Blood by Automated count"
            }
          ],
          "text": "Platelets [#/volume] in Blood by Automated count"
        },
        "valueQuantity": {
          "system": "http://unitsofmeasure.org",
          "value": 263.8,
          "unit": "10*3/uL",
          "code": "10*3/uL"
        },
        "referenceRange": [
          {
            "low": {
              "value": 150,
              "code": "10*3/uL",
              "system": "http://unitsofmeasure.org"
            }
          },
          {
            "high": {
              "value": 450,
              "code": "10*3/uL",
              "system": "http://unitsofmeasure.org"
            }
          }
        ],
        "text": {
          "status": "generated",
          "div": "<div xmlns=\"http://www.w3.org/1999/xhtml\"><table class=\"hl7__eu__lab__report\"><tr><th>Test</th><th>06-Nov-2016</th><th>Reference&#xA0;Range</th><th>Unit</th></tr><tr><td>Platelets [#/volume] in Blood by Automated count</td><td>263.8</td><td>150 - 450</td><td></td><td>10*3/uL</td></tr></table></div>"
        },
        "status": "final",
        "subject": {
          "reference": "urn:uuid:f102369a-8249-40e4-b244-1854f18fa7da",
          "display": "Ludmila Vávrová"
        },
        "effectiveDateTime": "2016-11-06T21:34:53Z",
        "specimen": {
          "reference": "urn:uuid:dca375b1-2e98-4d0a-b7de-9a2f87b096c0"
        }
      }
    },
    {
      "fullUrl": "urn:uuid:c5b47261-455b-47f0-8239-74a654b23d4c",
      "resource": {
        "resourceType": "Observation",
        "id": "c5b47261-455b-47f0-8239-74a654b23d4c",
        "meta": {
          "profile": [
            "http://hl7.eu/fhir/laboratory/StructureDefinition/Observation-resultslab-eu-lab"
          ]
        },
        "performer": [
          {
            "display": "The Central European Lab"
          }
        ],
        "category": [
          {
            "coding": [
              {
                "system": "http://terminology.hl7.org/CodeSystem/observation-category",
                "code": "laboratory"
              }
            ]
          }
        ],
        "code": {
          "coding": [
            {
              "code": "2345-7",
              "system": "http://loinc.org",
              "display": "Glucose [Mass/volume] in Serum or Plasma"
            }
          ],
          "text": "Glucose [Mass/volume] in Serum or Plasma"
        },
        "valueQuantity": {
          "system": "http://unitsofmeasure.org",
          "value": 90.6,
          "unit": "mg/dL",
          "code": "mg/dL"
        },
        "referenceRange": [
          {
            "low": {
              "value": 70,
              "code": "mg/dL",
              "system": "http://unitsofmeasure.org"
            }
          },
          {
            "high": {
              "value": 140,
              "code": "mg/dL",
              "system": "http://unitsofmeasure.org"
            }
          }
        ],
        "text": {
          "status": "generated",
          "div": "<div xmlns=\"http://www.w3.org/1999/xhtml\"><table class=\"hl7__eu__lab__report\"><tr><th>Test</th><th>06-Nov-2016</th><th>Reference&#xA0;Range</th><th>Unit</th></tr><tr><td>Glucose [Mass/volume] in Serum or Plasma</td><td>90.6</td><td>70 - 140</td><td></td><td>mg/dL</td></tr></table></div>"
        },
        "status": "final",
        "subject": {
          "reference": "urn:uuid:f102369a-8249-40e4-b244-1854f18fa7da",
          "display": "Ludmila Vávrová"
        },
        "effectiveDateTime": "2016-11-06T21:34:53Z",
        "specimen": {
          "reference": "urn:uuid:191fb8ab-4e2b-4249-bae9-a7f0bd8a0a36"
        }
      }
    },
    {
      "fullUrl": "urn:uuid:f44e2e3b-3367-421c-a7f2-d45ca8aca0c2",
      "resource": {
        "resourceType": "Observation",
        "id": "f44e2e3b-3367-421c-a7f2-d45ca8aca0c2",
        "meta": {
          "profile": [
            "http://hl7.eu/fhir/laboratory/StructureDefinition/Observation-resultslab-eu-lab"
          ]
        },
        "performer": [
          {
            "display": "The Central European Lab"
          }
        ],
        "category": [
          {
            "coding": [
              {
                "system": "http://terminology.hl7.org/CodeSystem/observation-category",
                "code": "laboratory"
              }
            ]
          }
        ],
        "code": {
          "coding": [
            {
              "code": "3094-0",
              "system": "http://loinc.org",
              "display": "Urea nitrogen [Mass/volume] in Serum or Plasma"
            }
          ],
          "text": "Urea nitrogen [Mass/volume] in Serum or Plasma"
        },
        "valueQuantity": {
          "system": "http://unitsofmeasure.org",
          "value": 14.7,
          "unit": "mg/dL",
          "code": "mg/dL"
        },
        "referenceRange": [
          {
            "low": {
              "value": 7,
              "code": "mg/dL",
              "system": "http://unitsofmeasure.org"
            }
          },
          {
            "high": {
              "value": 25,
              "code": "mg/dL",
              "system": "http://unitsofmeasure.org"
            }
          }
        ],
        "text": {
          "status": "generated",
          "div": "<div xmlns=\"http://www.w3.org/1999/xhtml\"><table class=\"hl7__eu__lab__report\"><tr><th>Test</th><th>06-Nov-2016</th><th>Reference&#xA0;Range</th><th>Unit</th></tr><tr><td>Urea nitrogen [Mass/volume] in Serum or Plasma</td><td>14.7</td><td>7 - 25</td><td></td><td>mg/dL</td></tr></table></div>"
        },
        "status": "final",
        "subject": {
          "reference": "urn:uuid:f102369a-8249-40e4-b244-1854f18fa7da",
          "display": "Ludmila Vávrová"
        },
        "effectiveDateTime": "2016-11-06T21:34:53Z",
        "specimen": {
          "reference": "urn:uuid:191fb8ab-4e2b-4249-bae9-a7f0bd8a0a36"
        }
      }
    },
    {
      "fullUrl": "urn:uuid:2d395abc-4e74-4bb6-b239-49e5c499c955",
      "resource": {
        "resourceType": "Observation",
        "id": "2d395abc-4e74-4bb6-b239-49e5c499c955",
        "meta": {
          "profile": [
            "http://hl7.eu/fhir/laboratory/StructureDefinition/Observation-resultslab-eu-lab"
          ]
        },
        "performer": [
          {
            "display": "The Central European Lab"
          }
        ],
        "category": [
          {
            "coding": [
              {
                "system": "http://terminology.hl7.org/CodeSystem/observation-category",
                "code": "laboratory"
              }
            ]
          }
        ],
        "code": {
          "coding": [
            {
              "code": "2160-0",
              "system": "http://loinc.org",
              "display": "Creatinine [Mass/volume] in Serum or Plasma"
            }
          ],
          "text": "Creatinine [Mass/volume] in Serum or Plasma"
        },
        "valueQuantity": {
          "system": "http://unitsofmeasure.org",
          "value": 2.7,
          "unit": "mg/dL",
          "code": "mg/dL"
        },
        "referenceRange": [
          {
            "low": {
              "value": 0.6,
              "code": "mg/dL",
              "system": "http://unitsofmeasure.org"
            }
          },
          {
            "high": {
              "value": 1.3,
              "code": "mg/dL",
              "system": "http://unitsofmeasure.org"
            }
          }
        ],
        "interpretation": [
          {
            "coding": [
              {
                "code": "H",
                "system": "http://terminology.hl7.org/CodeSystem/v3-ObservationInterpretation",
                "display": "High"
              }
            ]
          }
        ],
        "text": {
          "status": "generated",
          "div": "<div xmlns=\"http://www.w3.org/1999/xhtml\"><table class=\"hl7__eu__lab__report\"><tr><th>Test</th><th>06-Nov-2016</th><th>Reference&#xA0;Range</th><th>Unit</th></tr><tr><td>Creatinine [Mass/volume] in Serum or Plasma</td><td>2.7</td><td>0.6 - 1.3</td><td>H</td><td>mg/dL</td></tr></table></div>"
        },
        "status": "final",
        "subject": {
          "reference": "urn:uuid:f102369a-8249-40e4-b244-1854f18fa7da",
          "display": "Ludmila Vávrová"
        },
        "effectiveDateTime": "2016-11-06T21:34:53Z",
        "specimen": {
          "reference": "urn:uuid:191fb8ab-4e2b-4249-bae9-a7f0bd8a0a36"
        }
      }
    },
    {
      "fullUrl": "urn:uuid:fb46ac31-af70-4e73-b214-bb669c13fcda",
      "resource": {
        "resourceType": "Observation",
        "id": "fb46ac31-af70-4e73-b214-bb669c13fcda",
        "meta": {
          "profile": [
            "http://hl7.eu/fhir/laboratory/StructureDefinition/Observation-resultslab-eu-lab"
          ]
        },
        "performer": [
          {
            "display": "The Central European Lab"
          }
        ],
        "category": [
          {
            "coding": [
              {
                "system": "http://terminology.hl7.org/CodeSystem/observation-category",
                "code": "laboratory"
              }
            ]
          }
        ],
        "code": {
          "coding": [
            {
              "code": "17861-6",
              "system": "http://loinc.org",
              "display": "Calcium [Mass/volume] in Serum or Plasma"
            }
          ],
          "text": "Calcium [Mass/volume] in Serum or Plasma"
        },
        "valueQuantity": {
          "system": "http://unitsofmeasure.org",
          "value": 9.6,
          "unit": "mg/dL",
          "code": "mg/dL"
        },
        "referenceRange": [
          {
            "low": {
              "value": 8.6,
              "code": "mg/dL",
              "system": "http://unitsofmeasure.org"
            }
          },
          {
            "high": {
              "value": 10.4,
              "code": "mg/dL",
              "system": "http://unitsofmeasure.org"
            }
          }
        ],
        "text": {
          "status": "generated",
          "div": "<div xmlns=\"http://www.w3.org/1999/xhtml\"><table class=\"hl7__eu__lab__report\"><tr><th>Test</th><th>06-Nov-2016</th><th>Reference&#xA0;Range</th><th>Unit</th></tr><tr><td>Calcium [Mass/volume] in Serum or Plasma</td><td>9.6</td><td>8.6 - 10.4</td><td></td><td>mg/dL</td></tr></table></div>"
        },
        "status": "final",
        "subject": {
          "reference": "urn:uuid:f102369a-8249-40e4-b244-1854f18fa7da",
          "display": "Ludmila Vávrová"
        },
        "effectiveDateTime": "2016-11-06T21:34:53Z",
        "specimen": {
          "reference": "urn:uuid:191fb8ab-4e2b-4249-bae9-a7f0bd8a0a36"
        }
      }
    },
    {
      "fullUrl": "urn:uuid:661b6f13-736f-4d3f-a010-f2f77e5d64d1",
      "resource": {
        "resourceType": "Observation",
        "id": "661b6f13-736f-4d3f-a010-f2f77e5d64d1",
        "meta": {
          "profile": [
            "http://hl7.eu/fhir/laboratory/StructureDefinition/Observation-resultslab-eu-lab"
          ]
        },
        "performer": [
          {
            "display": "The Central European Lab"
          }
        ],
        "category": [
          {
            "coding": [
              {
                "system": "http://terminology.hl7.org/CodeSystem/observation-category",
                "code": "laboratory"
              }
            ]
          }
        ],
        "code": {
          "coding": [
            {
              "code": "2951-2",
              "system": "http://loinc.org",
              "display": "Sodium [Moles/volume] in Serum or Plasma"
            }
          ],
          "text": "Sodium [Moles/volume] in Serum or Plasma"
        },
        "valueQuantity": {
          "system": "http://unitsofmeasure.org",
          "value": 139.2,
          "unit": "mmol/L",
          "code": "mmol/L"
        },
        "referenceRange": [
          {
            "low": {
              "value": 135,
              "code": "mmol/L",
              "system": "http://unitsofmeasure.org"
            }
          },
          {
            "high": {
              "value": 145,
              "code": "mmol/L",
              "system": "http://unitsofmeasure.org"
            }
          }
        ],
        "text": {
          "status": "generated",
          "div": "<div xmlns=\"http://www.w3.org/1999/xhtml\"><table class=\"hl7__eu__lab__report\"><tr><th>Test</th><th>06-Nov-2016</th><th>Reference&#xA0;Range</th><th>Unit</th></tr><tr><td>Sodium [Moles/volume] in Serum or Plasma</td><td>139.2</td><td>135 - 145</td><td></td><td>mmol/L</td></tr></table></div>"
        },
        "status": "final",
        "subject": {
          "reference": "urn:uuid:f102369a-8249-40e4-b244-1854f18fa7da",
          "display": "Ludmila Vávrová"
        },
        "effectiveDateTime": "2016-11-06T21:34:53Z",
        "specimen": {
          "reference": "urn:uuid:191fb8ab-4e2b-4249-bae9-a7f0bd8a0a36"
        }
      }
    },
    {
      "fullUrl": "urn:uuid:6b717ea7-df35-4ad4-b034-5a232fdf7ffc",
      "resource": {
        "resourceType": "Observation",
        "id": "6b717ea7-df35-4ad4-b034-5a232fdf7ffc",
        "meta": {
          "profile": [
            "http://hl7.eu/fhir/laboratory/StructureDefinition/Observation-resultslab-eu-lab"
          ]
        },
        "performer": [
          {
            "display": "The Central European Lab"
          }
        ],
        "category": [
          {
            "coding": [
              {
                "system": "http://terminology.hl7.org/CodeSystem/observation-category",
                "code": "laboratory"
              }
            ]
          }
        ],
        "code": {
          "coding": [
            {
              "code": "2823-3",
              "system": "http://loinc.org",
              "display": "Potassium [Moles/volume] in Serum or Plasma"
            }
          ],
          "text": "Potassium [Moles/volume] in Serum or Plasma"
        },
        "valueQuantity": {
          "system": "http://unitsofmeasure.org",
          "value": 4,
          "unit": "mmol/L",
          "code": "mmol/L"
        },
        "referenceRange": [
          {
            "low": {
              "value": 3.5,
              "code": "mmol/L",
              "system": "http://unitsofmeasure.org"
            }
          },
          {
            "high": {
              "value": 5.1,
              "code": "mmol/L",
              "system": "http://unitsofmeasure.org"
            }
          }
        ],
        "text": {
          "status": "generated",
          "div": "<div xmlns=\"http://www.w3.org/1999/xhtml\"><table class=\"hl7__eu__lab__report\"><tr><th>Test</th><th>06-Nov-2016</th><th>Reference&#xA0;Range</th><th>Unit</th></tr><tr><td>Potassium [Moles/volume] in Serum or Plasma</td><td>4.0</td><td>3.5 - 5.1</td><td></td><td>mmol/L</td></tr></table></div>"
        },
        "status": "final",
        "subject": {
          "reference": "urn:uuid:f102369a-8249-40e4-b244-1854f18fa7da",
          "display": "Ludmila Vávrová"
        },
        "effectiveDateTime": "2016-11-06T21:34:53Z",
        "specimen": {
          "reference": "urn:uuid:191fb8ab-4e2b-4249-bae9-a7f0bd8a0a36"
        }
      }
    },
    {
      "fullUrl": "urn:uuid:a493526e-168b-4f38-b7ff-e70766d0390c",
      "resource": {
        "resourceType": "Observation",
        "id": "a493526e-168b-4f38-b7ff-e70766d0390c",
        "meta": {
          "profile": [
            "http://hl7.eu/fhir/laboratory/StructureDefinition/Observation-resultslab-eu-lab"
          ]
        },
        "performer": [
          {
            "display": "The Central European Lab"
          }
        ],
        "category": [
          {
            "coding": [
              {
                "system": "http://terminology.hl7.org/CodeSystem/observation-category",
                "code": "laboratory"
              }
            ]
          }
        ],
        "code": {
          "coding": [
            {
              "code": "2075-0",
              "system": "http://loinc.org",
              "display": "Chloride [Moles/volume] in Serum or Plasma"
            }
          ],
          "text": "Chloride [Moles/volume] in Serum or Plasma"
        },
        "valueQuantity": {
          "system": "http://unitsofmeasure.org",
          "value": 101.3,
          "unit": "mmol/L",
          "code": "mmol/L"
        },
        "referenceRange": [
          {
            "low": {
              "value": 98,
              "code": "mmol/L",
              "system": "http://unitsofmeasure.org"
            }
          },
          {
            "high": {
              "value": 108,
              "code": "mmol/L",
              "system": "http://unitsofmeasure.org"
            }
          }
        ],
        "text": {
          "status": "generated",
          "div": "<div xmlns=\"http://www.w3.org/1999/xhtml\"><table class=\"hl7__eu__lab__report\"><tr><th>Test</th><th>06-Nov-2016</th><th>Reference&#xA0;Range</th><th>Unit</th></tr><tr><td>Chloride [Moles/volume] in Serum or Plasma</td><td>101.3</td><td>98 - 108</td><td></td><td>mmol/L</td></tr></table></div>"
        },
        "status": "final",
        "subject": {
          "reference": "urn:uuid:f102369a-8249-40e4-b244-1854f18fa7da",
          "display": "Ludmila Vávrová"
        },
        "effectiveDateTime": "2016-11-06T21:34:53Z",
        "specimen": {
          "reference": "urn:uuid:191fb8ab-4e2b-4249-bae9-a7f0bd8a0a36"
        }
      }
    },
    {
      "fullUrl": "urn:uuid:0eb80be2-5994-4016-bb3e-20d896535a05",
      "resource": {
        "resourceType": "Observation",
        "id": "0eb80be2-5994-4016-bb3e-20d896535a05",
        "meta": {
          "profile": [
            "http://hl7.eu/fhir/laboratory/StructureDefinition/Observation-resultslab-eu-lab"
          ]
        },
        "performer": [
          {
            "display": "The Central European Lab"
          }
        ],
        "category": [
          {
            "coding": [
              {
                "system": "http://terminology.hl7.org/CodeSystem/observation-category",
                "code": "laboratory"
              }
            ]
          }
        ],
        "code": {
          "coding": [
            {
              "code": "2028-9",
              "system": "http://loinc.org",
              "display": "Carbon dioxide, total [Moles/volume] in Serum or Plasma"
            }
          ],
          "text": "Carbon dioxide, total [Moles/volume] in Serum or Plasma"
        },
        "valueQuantity": {
          "system": "http://unitsofmeasure.org",
          "value": 26.8,
          "unit": "mmol/L",
          "code": "mmol/L"
        },
        "referenceRange": [
          {
            "low": {
              "value": 22,
              "code": "mmol/L",
              "system": "http://unitsofmeasure.org"
            }
          },
          {
            "high": {
              "value": 29,
              "code": "mmol/L",
              "system": "http://unitsofmeasure.org"
            }
          }
        ],
        "text": {
          "status": "generated",
          "div": "<div xmlns=\"http://www.w3.org/1999/xhtml\"><table class=\"hl7__eu__lab__report\"><tr><th>Test</th><th>06-Nov-2016</th><th>Reference&#xA0;Range</th><th>Unit</th></tr><tr><td>Carbon dioxide, total [Moles/volume] in Serum or Plasma</td><td>26.8</td><td>22 - 29</td><td></td><td>mmol/L</td></tr></table></div>"
        },
        "status": "final",
        "subject": {
          "reference": "urn:uuid:f102369a-8249-40e4-b244-1854f18fa7da",
          "display": "Ludmila Vávrová"
        },
        "effectiveDateTime": "2016-11-06T21:34:53Z",
        "specimen": {
          "reference": "urn:uuid:191fb8ab-4e2b-4249-bae9-a7f0bd8a0a36"
        }
      }
    },
    {
      "fullUrl": "urn:uuid:25b9b904-f040-45b7-9952-bd156c240b6f",
      "resource": {
        "resourceType": "Observation",
        "id": "25b9b904-f040-45b7-9952-bd156c240b6f",
        "meta": {
          "profile": [
            "http://hl7.eu/fhir/laboratory/StructureDefinition/Observation-resultslab-eu-lab"
          ]
        },
        "performer": [
          {
            "display": "The Central European Lab"
          }
        ],
        "category": [
          {
            "coding": [
              {
                "system": "http://terminology.hl7.org/CodeSystem/observation-category",
                "code": "laboratory"
              }
            ]
          }
        ],
        "code": {
          "coding": [
            {
              "code": "2885-2",
              "system": "http://loinc.org",
              "display": "Protein [Mass/volume] in Serum or Plasma"
            }
          ],
          "text": "Protein [Mass/volume] in Serum or Plasma"
        },
        "valueQuantity": {
          "system": "http://unitsofmeasure.org",
          "value": 7.9,
          "unit": "g/dL",
          "code": "g/dL"
        },
        "referenceRange": [
          {
            "low": {
              "value": 6.6,
              "code": "g/dL",
              "system": "http://unitsofmeasure.org"
            }
          },
          {
            "high": {
              "value": 8.3,
              "code": "g/dL",
              "system": "http://unitsofmeasure.org"
            }
          }
        ],
        "text": {
          "status": "generated",
          "div": "<div xmlns=\"http://www.w3.org/1999/xhtml\"><table class=\"hl7__eu__lab__report\"><tr><th>Test</th><th>06-Nov-2016</th><th>Reference&#xA0;Range</th><th>Unit</th></tr><tr><td>Protein [Mass/volume] in Serum or Plasma</td><td>7.9</td><td>6.6 - 8.3</td><td></td><td>g/dL</td></tr></table></div>"
        },
        "status": "final",
        "subject": {
          "reference": "urn:uuid:f102369a-8249-40e4-b244-1854f18fa7da",
          "display": "Ludmila Vávrová"
        },
        "effectiveDateTime": "2016-11-06T21:34:53Z",
        "specimen": {
          "reference": "urn:uuid:191fb8ab-4e2b-4249-bae9-a7f0bd8a0a36"
        }
      }
    },
    {
      "fullUrl": "urn:uuid:b2176e67-ba1b-40a0-9e9a-1bf595206245",
      "resource": {
        "resourceType": "Observation",
        "id": "b2176e67-ba1b-40a0-9e9a-1bf595206245",
        "meta": {
          "profile": [
            "http://hl7.eu/fhir/laboratory/StructureDefinition/Observation-resultslab-eu-lab"
          ]
        },
        "performer": [
          {
            "display": "The Central European Lab"
          }
        ],
        "category": [
          {
            "coding": [
              {
                "system": "http://terminology.hl7.org/CodeSystem/observation-category",
                "code": "laboratory"
              }
            ]
          }
        ],
        "code": {
          "coding": [
            {
              "code": "1751-7",
              "system": "http://loinc.org",
              "display": "Albumin [Mass/volume] in Serum or Plasma"
            }
          ],
          "text": "Albumin [Mass/volume] in Serum or Plasma"
        },
        "valueQuantity": {
          "system": "http://unitsofmeasure.org",
          "value": 4.2,
          "unit": "g/dL",
          "code": "g/dL"
        },
        "referenceRange": [
          {
            "low": {
              "value": 3.5,
              "code": "g/dL",
              "system": "http://unitsofmeasure.org"
            }
          },
          {
            "high": {
              "value": 5.5,
              "code": "g/dL",
              "system": "http://unitsofmeasure.org"
            }
          }
        ],
        "text": {
          "status": "generated",
          "div": "<div xmlns=\"http://www.w3.org/1999/xhtml\"><table class=\"hl7__eu__lab__report\"><tr><th>Test</th><th>06-Nov-2016</th><th>Reference&#xA0;Range</th><th>Unit</th></tr><tr><td>Albumin [Mass/volume] in Serum or Plasma</td><td>4.2</td><td>3.5 - 5.5</td><td></td><td>g/dL</td></tr></table></div>"
        },
        "status": "final",
        "subject": {
          "reference": "urn:uuid:f102369a-8249-40e4-b244-1854f18fa7da",
          "display": "Ludmila Vávrová"
        },
        "effectiveDateTime": "2016-11-06T21:34:53Z",
        "specimen": {
          "reference": "urn:uuid:191fb8ab-4e2b-4249-bae9-a7f0bd8a0a36"
        }
      }
    },
    {
      "fullUrl": "urn:uuid:bbdfd7d1-23bd-4cb2-90dd-65e4f2141f21",
      "resource": {
        "resourceType": "Observation",
        "id": "bbdfd7d1-23bd-4cb2-90dd-65e4f2141f21",
        "meta": {
          "profile": [
            "http://hl7.eu/fhir/laboratory/StructureDefinition/Observation-resultslab-eu-lab"
          ]
        },
        "performer": [
          {
            "display": "The Central European Lab"
          }
        ],
        "category": [
          {
            "coding": [
              {
                "system": "http://terminology.hl7.org/CodeSystem/observation-category",
                "code": "laboratory"
              }
            ]
          }
        ],
        "code": {
          "coding": [
            {
              "code": "1975-2",
              "system": "http://loinc.org",
              "display": "Bilirubin.total [Mass/volume] in Serum or Plasma"
            }
          ],
          "text": "Bilirubin.total [Mass/volume] in Serum or Plasma"
        },
        "valueQuantity": {
          "system": "http://unitsofmeasure.org",
          "value": 14.7,
          "unit": "mg/dL",
          "code": "mg/dL"
        },
        "referenceRange": [
          {
            "low": {
              "value": 0.3,
              "code": "mg/dL",
              "system": "http://unitsofmeasure.org"
            }
          },
          {
            "high": {
              "value": 1.2,
              "code": "mg/dL",
              "system": "http://unitsofmeasure.org"
            }
          }
        ],
        "interpretation": [
          {
            "coding": [
              {
                "code": "H",
                "system": "http://terminology.hl7.org/CodeSystem/v3-ObservationInterpretation",
                "display": "High"
              }
            ]
          }
        ],
        "text": {
          "status": "generated",
          "div": "<div xmlns=\"http://www.w3.org/1999/xhtml\"><table class=\"hl7__eu__lab__report\"><tr><th>Test</th><th>06-Nov-2016</th><th>Reference&#xA0;Range</th><th>Unit</th></tr><tr><td>Bilirubin.total [Mass/volume] in Serum or Plasma</td><td>14.7</td><td>0.3 - 1.2</td><td>H</td><td>mg/dL</td></tr></table></div>"
        },
        "status": "final",
        "subject": {
          "reference": "urn:uuid:f102369a-8249-40e4-b244-1854f18fa7da",
          "display": "Ludmila Vávrová"
        },
        "effectiveDateTime": "2016-11-06T21:34:53Z",
        "specimen": {
          "reference": "urn:uuid:191fb8ab-4e2b-4249-bae9-a7f0bd8a0a36"
        }
      }
    },
    {
      "fullUrl": "urn:uuid:5ebe4dd0-f061-450d-af2f-a02b2e12bea8",
      "resource": {
        "resourceType": "Observation",
        "id": "5ebe4dd0-f061-450d-af2f-a02b2e12bea8",
        "meta": {
          "profile": [
            "http://hl7.eu/fhir/laboratory/StructureDefinition/Observation-resultslab-eu-lab"
          ]
        },
        "performer": [
          {
            "display": "The Central European Lab"
          }
        ],
        "category": [
          {
            "coding": [
              {
                "system": "http://terminology.hl7.org/CodeSystem/observation-category",
                "code": "laboratory"
              }
            ]
          }
        ],
        "code": {
          "coding": [
            {
              "code": "6768-6",
              "system": "http://loinc.org",
              "display": "Alkaline phosphatase [Enzymatic activity/volume] in Serum or Plasma"
            }
          ],
          "text": "Alkaline phosphatase [Enzymatic activity/volume] in Serum or Plasma"
        },
        "valueQuantity": {
          "system": "http://unitsofmeasure.org",
          "value": 61.7,
          "unit": "U/L",
          "code": "U/L"
        },
        "referenceRange": [
          {
            "low": {
              "value": 40,
              "code": "U/L",
              "system": "http://unitsofmeasure.org"
            }
          },
          {
            "high": {
              "value": 130,
              "code": "U/L",
              "system": "http://unitsofmeasure.org"
            }
          }
        ],
        "text": {
          "status": "generated",
          "div": "<div xmlns=\"http://www.w3.org/1999/xhtml\"><table class=\"hl7__eu__lab__report\"><tr><th>Test</th><th>06-Nov-2016</th><th>Reference&#xA0;Range</th><th>Unit</th></tr><tr><td>Alkaline phosphatase [Enzymatic activity/volume] in Serum or Plasma</td><td>61.7</td><td>40 - 130</td><td></td><td>U/L</td></tr></table></div>"
        },
        "status": "final",
        "subject": {
          "reference": "urn:uuid:f102369a-8249-40e4-b244-1854f18fa7da",
          "display": "Ludmila Vávrová"
        },
        "effectiveDateTime": "2016-11-06T21:34:53Z",
        "specimen": {
          "reference": "urn:uuid:191fb8ab-4e2b-4249-bae9-a7f0bd8a0a36"
        }
      }
    },
    {
      "fullUrl": "urn:uuid:1bd092cd-68de-44c5-a865-a758bec4a8cc",
      "resource": {
        "resourceType": "Observation",
        "id": "1bd092cd-68de-44c5-a865-a758bec4a8cc",
        "meta": {
          "profile": [
            "http://hl7.eu/fhir/laboratory/StructureDefinition/Observation-resultslab-eu-lab"
          ]
        },
        "performer": [
          {
            "display": "The Central European Lab"
          }
        ],
        "category": [
          {
            "coding": [
              {
                "system": "http://terminology.hl7.org/CodeSystem/observation-category",
                "code": "laboratory"
              }
            ]
          }
        ],
        "code": {
          "coding": [
            {
              "code": "1742-6",
              "system": "http://loinc.org",
              "display": "Alanine aminotransferase [Enzymatic activity/volume] in Serum or Plasma"
            }
          ],
          "text": "Alanine aminotransferase [Enzymatic activity/volume] in Serum or Plasma"
        },
        "valueQuantity": {
          "system": "http://unitsofmeasure.org",
          "value": 18.2,
          "unit": "U/L",
          "code": "U/L"
        },
        "referenceRange": [
          {
            "low": {
              "value": 7,
              "code": "U/L",
              "system": "http://unitsofmeasure.org"
            }
          },
          {
            "high": {
              "value": 55,
              "code": "U/L",
              "system": "http://unitsofmeasure.org"
            }
          }
        ],
        "text": {
          "status": "generated",
          "div": "<div xmlns=\"http://www.w3.org/1999/xhtml\"><table class=\"hl7__eu__lab__report\"><tr><th>Test</th><th>06-Nov-2016</th><th>Reference&#xA0;Range</th><th>Unit</th></tr><tr><td>Alanine aminotransferase [Enzymatic activity/volume] in Serum or Plasma</td><td>18.2</td><td>7 - 55</td><td></td><td>U/L</td></tr></table></div>"
        },
        "status": "final",
        "subject": {
          "reference": "urn:uuid:f102369a-8249-40e4-b244-1854f18fa7da",
          "display": "Ludmila Vávrová"
        },
        "effectiveDateTime": "2016-11-06T21:34:53Z",
        "specimen": {
          "reference": "urn:uuid:191fb8ab-4e2b-4249-bae9-a7f0bd8a0a36"
        }
      }
    },
    {
      "fullUrl": "urn:uuid:6fb2ca1a-e515-4d07-807b-96f7df27b2f5",
      "resource": {
        "resourceType": "Observation",
        "id": "6fb2ca1a-e515-4d07-807b-96f7df27b2f5",
        "meta": {
          "profile": [
            "http://hl7.eu/fhir/laboratory/StructureDefinition/Observation-resultslab-eu-lab"
          ]
        },
        "performer": [
          {
            "display": "The Central European Lab"
          }
        ],
        "category": [
          {
            "coding": [
              {
                "system": "http://terminology.hl7.org/CodeSystem/observation-category",
                "code": "laboratory"
              }
            ]
          }
        ],
        "code": {
          "coding": [
            {
              "code": "1920-8",
              "system": "http://loinc.org",
              "display": "Aspartate aminotransferase [Enzymatic activity/volume] in Serum or Plasma"
            }
          ],
          "text": "Aspartate aminotransferase [Enzymatic activity/volume] in Serum or Plasma"
        },
        "valueQuantity": {
          "system": "http://unitsofmeasure.org",
          "value": 35.4,
          "unit": "U/L",
          "code": "U/L"
        },
        "referenceRange": [
          {
            "low": {
              "value": 10,
              "code": "U/L",
              "system": "http://unitsofmeasure.org"
            }
          },
          {
            "high": {
              "value": 40,
              "code": "U/L",
              "system": "http://unitsofmeasure.org"
            }
          }
        ],
        "text": {
          "status": "generated",
          "div": "<div xmlns=\"http://www.w3.org/1999/xhtml\"><table class=\"hl7__eu__lab__report\"><tr><th>Test</th><th>06-Nov-2016</th><th>Reference&#xA0;Range</th><th>Unit</th></tr><tr><td>Aspartate aminotransferase [Enzymatic activity/volume] in Serum or Plasma</td><td>35.4</td><td>10 - 40</td><td></td><td>U/L</td></tr></table></div>"
        },
        "status": "final",
        "subject": {
          "reference": "urn:uuid:f102369a-8249-40e4-b244-1854f18fa7da",
          "display": "Ludmila Vávrová"
        },
        "effectiveDateTime": "2016-11-06T21:34:53Z",
        "specimen": {
          "reference": "urn:uuid:191fb8ab-4e2b-4249-bae9-a7f0bd8a0a36"
        }
      }
    },
    {
      "fullUrl": "urn:uuid:95ad32e3-510d-4146-a7f0-b0a688009153",
      "resource": {
        "resourceType": "Observation",
        "id": "95ad32e3-510d-4146-a7f0-b0a688009153",
        "meta": {
          "profile": [
            "http://hl7.eu/fhir/laboratory/StructureDefinition/Observation-resultslab-eu-lab"
          ]
        },
        "performer": [
          {
            "display": "The Central European Lab"
          }
        ],
        "category": [
          {
            "coding": [
              {
                "system": "http://terminology.hl7.org/CodeSystem/observation-category",
                "code": "laboratory"
              }
            ]
          }
        ],
        "code": {
          "coding": [
            {
              "code": "19123-9",
              "system": "http://loinc.org",
              "display": "Magnesium [Mass/volume] in Serum or Plasma"
            }
          ],
          "text": "Magnesium [Mass/volume] in Serum or Plasma"
        },
        "valueQuantity": {
          "system": "http://unitsofmeasure.org",
          "value": 2.2,
          "unit": "mg/dL",
          "code": "mg/dL"
        },
        "referenceRange": [
          {
            "low": {
              "value": 1.8,
              "code": "mg/dL",
              "system": "http://unitsofmeasure.org"
            }
          },
          {
            "high": {
              "value": 2.3,
              "code": "mg/dL",
              "system": "http://unitsofmeasure.org"
            }
          }
        ],
        "text": {
          "status": "generated",
          "div": "<div xmlns=\"http://www.w3.org/1999/xhtml\"><table class=\"hl7__eu__lab__report\"><tr><th>Test</th><th>06-Nov-2016</th><th>Reference&#xA0;Range</th><th>Unit</th></tr><tr><td>Magnesium [Mass/volume] in Serum or Plasma</td><td>2.2</td><td>1.8 - 2.3</td><td></td><td>mg/dL</td></tr></table></div>"
        },
        "status": "final",
        "subject": {
          "reference": "urn:uuid:f102369a-8249-40e4-b244-1854f18fa7da",
          "display": "Ludmila Vávrová"
        },
        "effectiveDateTime": "2016-11-06T21:34:53Z",
        "specimen": {
          "reference": "urn:uuid:191fb8ab-4e2b-4249-bae9-a7f0bd8a0a36"
        }
      }
    },
    {
      "fullUrl": "urn:uuid:f7d0b62b-2e18-4953-89ce-f30c064f2170",
      "resource": {
        "resourceType": "Observation",
        "id": "f7d0b62b-2e18-4953-89ce-f30c064f2170",
        "meta": {
          "profile": [
            "http://hl7.eu/fhir/laboratory/StructureDefinition/Observation-resultslab-eu-lab"
          ]
        },
        "performer": [
          {
            "display": "The Central European Lab"
          }
        ],
        "category": [
          {
            "coding": [
              {
                "system": "http://terminology.hl7.org/CodeSystem/observation-category",
                "code": "laboratory"
              }
            ]
          }
        ],
        "code": {
          "coding": [
            {
              "code": "2777-1",
              "system": "http://loinc.org",
              "display": "Phosphate [Mass/volume] in Serum or Plasma"
            }
          ],
          "text": "Phosphate [Mass/volume] in Serum or Plasma"
        },
        "valueQuantity": {
          "system": "http://unitsofmeasure.org",
          "value": 3.9,
          "unit": "mg/dL",
          "code": "mg/dL"
        },
        "referenceRange": [
          {
            "low": {
              "value": 2.5,
              "code": "mg/dL",
              "system": "http://unitsofmeasure.org"
            }
          },
          {
            "high": {
              "value": 4.5,
              "code": "mg/dL",
              "system": "http://unitsofmeasure.org"
            }
          }
        ],
        "text": {
          "status": "generated",
          "div": "<div xmlns=\"http://www.w3.org/1999/xhtml\"><table class=\"hl7__eu__lab__report\"><tr><th>Test</th><th>06-Nov-2016</th><th>Reference&#xA0;Range</th><th>Unit</th></tr><tr><td>Phosphate [Mass/volume] in Serum or Plasma</td><td>3.9</td><td>2.5 - 4.5</td><td></td><td>mg/dL</td></tr></table></div>"
        },
        "status": "final",
        "subject": {
          "reference": "urn:uuid:f102369a-8249-40e4-b244-1854f18fa7da",
          "display": "Ludmila Vávrová"
        },
        "effectiveDateTime": "2016-11-06T21:34:53Z",
        "specimen": {
          "reference": "urn:uuid:191fb8ab-4e2b-4249-bae9-a7f0bd8a0a36"
        }
      }
    },
    {
      "fullUrl": "urn:uuid:1755019d-90b2-4b5c-ac02-5ce681dd2f0e",
      "resource": {
        "resourceType": "Observation",
        "id": "1755019d-90b2-4b5c-ac02-5ce681dd2f0e",
        "meta": {
          "profile": [
            "http://hl7.eu/fhir/laboratory/StructureDefinition/Observation-resultslab-eu-lab"
          ]
        },
        "performer": [
          {
            "display": "The Central European Lab"
          }
        ],
        "category": [
          {
            "coding": [
              {
                "system": "http://terminology.hl7.org/CodeSystem/observation-category",
                "code": "laboratory"
              }
            ]
          }
        ],
        "code": {
          "coding": [
            {
              "code": "5902-2",
              "system": "http://loinc.org",
              "display": "Prothrombin time (PT)"
            }
          ],
          "text": "Prothrombin time (PT)"
        },
        "valueQuantity": {
          "system": "http://unitsofmeasure.org",
          "value": 11.5,
          "unit": "s",
          "code": "s"
        },
        "referenceRange": [
          {
            "low": {
              "value": 11,
              "code": "s",
              "system": "http://unitsofmeasure.org"
            }
          },
          {
            "high": {
              "value": 15,
              "code": "s",
              "system": "http://unitsofmeasure.org"
            }
          }
        ],
        "text": {
          "status": "generated",
          "div": "<div xmlns=\"http://www.w3.org/1999/xhtml\"><table class=\"hl7__eu__lab__report\"><tr><th>Test</th><th>06-Nov-2016</th><th>Reference&#xA0;Range</th><th>Unit</th></tr><tr><td>Prothrombin time (PT)</td><td>11.5</td><td>11 - 15</td><td></td><td>s</td></tr></table></div>"
        },
        "status": "final",
        "subject": {
          "reference": "urn:uuid:f102369a-8249-40e4-b244-1854f18fa7da",
          "display": "Ludmila Vávrová"
        },
        "effectiveDateTime": "2016-11-06T21:34:53Z",
        "specimen": {
          "reference": "urn:uuid:8b536919-1d4c-40f4-b5f0-5c236eab382d"
        }
      }
    },
    {
      "fullUrl": "urn:uuid:ba763aa7-e5ec-4960-9445-d292e401d9b0",
      "resource": {
        "resourceType": "Observation",
        "id": "ba763aa7-e5ec-4960-9445-d292e401d9b0",
        "meta": {
          "profile": [
            "http://hl7.eu/fhir/laboratory/StructureDefinition/Observation-resultslab-eu-lab"
          ]
        },
        "performer": [
          {
            "display": "The Central European Lab"
          }
        ],
        "category": [
          {
            "coding": [
              {
                "system": "http://terminology.hl7.org/CodeSystem/observation-category",
                "code": "laboratory"
              }
            ]
          }
        ],
        "code": {
          "coding": [
            {
              "code": "6301-6",
              "system": "http://loinc.org",
              "display": "INR in Platelet poor plasma by Coagulation assay"
            }
          ],
          "text": "INR in Platelet poor plasma by Coagulation assay"
        },
        "valueQuantity": {
          "system": "http://unitsofmeasure.org",
          "value": 0.9,
          "unit": "{INR}",
          "code": "{INR}"
        },
        "referenceRange": [
          {
            "low": {
              "value": 0.9,
              "code": "INR",
              "system": "http://unitsofmeasure.org"
            }
          },
          {
            "high": {
              "value": 3,
              "code": "INR",
              "system": "http://unitsofmeasure.org"
            }
          }
        ],
        "text": {
          "status": "generated",
          "div": "<div xmlns=\"http://www.w3.org/1999/xhtml\"><table class=\"hl7__eu__lab__report\"><tr><th>Test</th><th>06-Nov-2016</th><th>Reference&#xA0;Range</th><th>Unit</th></tr><tr><td>INR in Platelet poor plasma by Coagulation assay</td><td>0.9</td><td>0.9 - 3</td><td></td><td>{INR}</td></tr></table></div>"
        },
        "status": "final",
        "subject": {
          "reference": "urn:uuid:f102369a-8249-40e4-b244-1854f18fa7da",
          "display": "Ludmila Vávrová"
        },
        "effectiveDateTime": "2016-11-06T21:34:53Z",
        "specimen": {
          "reference": "urn:uuid:8b536919-1d4c-40f4-b5f0-5c236eab382d"
        }
      }
    },
    {
      "fullUrl": "urn:uuid:ec28adca-0c57-4599-ab2e-418003cc1eb2",
      "resource": {
        "resourceType": "Observation",
        "id": "ec28adca-0c57-4599-ab2e-418003cc1eb2",
        "meta": {
          "profile": [
            "http://hl7.eu/fhir/laboratory/StructureDefinition/Observation-resultslab-eu-lab"
          ]
        },
        "performer": [
          {
            "display": "The Central European Lab"
          }
        ],
        "category": [
          {
            "coding": [
              {
                "system": "http://terminology.hl7.org/CodeSystem/observation-category",
                "code": "laboratory"
              }
            ]
          }
        ],
        "code": {
          "coding": [
            {
              "code": "3173-2",
              "system": "http://loinc.org",
              "display": "aPTT in Blood by Coagulation assay"
            }
          ],
          "text": "aPTT in Blood by Coagulation assay"
        },
        "valueQuantity": {
          "system": "http://unitsofmeasure.org",
          "value": 33.9,
          "unit": "s",
          "code": "s"
        },
        "referenceRange": [
          {
            "low": {
              "value": 25,
              "code": "seconds",
              "system": "http://unitsofmeasure.org"
            }
          },
          {
            "high": {
              "value": 40,
              "code": "seconds",
              "system": "http://unitsofmeasure.org"
            }
          }
        ],
        "text": {
          "status": "generated",
          "div": "<div xmlns=\"http://www.w3.org/1999/xhtml\"><table class=\"hl7__eu__lab__report\"><tr><th>Test</th><th>06-Nov-2016</th><th>Reference&#xA0;Range</th><th>Unit</th></tr><tr><td>aPTT in Blood by Coagulation assay</td><td>33.9</td><td>25 - 40</td><td></td><td>s</td></tr></table></div>"
        },
        "status": "final",
        "subject": {
          "reference": "urn:uuid:f102369a-8249-40e4-b244-1854f18fa7da",
          "display": "Ludmila Vávrová"
        },
        "effectiveDateTime": "2016-11-06T21:34:53Z",
        "specimen": {
          "reference": "urn:uuid:dca375b1-2e98-4d0a-b7de-9a2f87b096c0"
        }
      }
    },
    {
      "fullUrl": "urn:uuid:301a5030-82e0-4179-b91d-7308820859cd",
      "resource": {
        "resourceType": "Observation",
        "id": "301a5030-82e0-4179-b91d-7308820859cd",
        "meta": {
          "profile": [
            "http://hl7.eu/fhir/laboratory/StructureDefinition/Observation-resultslab-eu-lab"
          ]
        },
        "performer": [
          {
            "display": "The Central European Lab"
          }
        ],
        "category": [
          {
            "coding": [
              {
                "system": "http://terminology.hl7.org/CodeSystem/observation-category",
                "code": "laboratory"
              }
            ]
          }
        ],
        "code": {
          "coding": [
            {
              "code": "2744-1",
              "system": "http://loinc.org",
              "display": "pH of Arterial blood"
            }
          ],
          "text": "pH of Arterial blood"
        },
        "valueQuantity": {
          "system": "http://unitsofmeasure.org",
          "value": 7.1,
          "unit": "[pH]",
          "code": "[pH]"
        },
        "referenceRange": [
          {
            "low": {
              "value": 7.35,
              "code": "pH",
              "system": "http://unitsofmeasure.org"
            }
          },
          {
            "high": {
              "value": 7.45,
              "code": "pH",
              "system": "http://unitsofmeasure.org"
            }
          }
        ],
        "interpretation": [
          {
            "coding": [
              {
                "code": "L",
                "system": "http://terminology.hl7.org/CodeSystem/v3-ObservationInterpretation",
                "display": "Low"
              }
            ]
          }
        ],
        "text": {
          "status": "generated",
          "div": "<div xmlns=\"http://www.w3.org/1999/xhtml\"><table class=\"hl7__eu__lab__report\"><tr><th>Test</th><th>06-Nov-2016</th><th>Reference&#xA0;Range</th><th>Unit</th></tr><tr><td>pH of Arterial blood</td><td>7.1</td><td>7.35 - 7.45</td><td>L</td><td>[pH]</td></tr></table></div>"
        },
        "status": "final",
        "subject": {
          "reference": "urn:uuid:f102369a-8249-40e4-b244-1854f18fa7da",
          "display": "Ludmila Vávrová"
        },
        "effectiveDateTime": "2016-11-06T21:34:53Z",
        "specimen": {
          "reference": "urn:uuid:c108accf-9a96-4bae-9c1c-8cb6357f7fc8"
        }
      }
    },
    {
      "fullUrl": "urn:uuid:72f73a00-5c9d-466f-8a21-8b2b47523c6d",
      "resource": {
        "resourceType": "Observation",
        "id": "72f73a00-5c9d-466f-8a21-8b2b47523c6d",
        "meta": {
          "profile": [
            "http://hl7.eu/fhir/laboratory/StructureDefinition/Observation-resultslab-eu-lab"
          ]
        },
        "performer": [
          {
            "display": "The Central European Lab"
          }
        ],
        "category": [
          {
            "coding": [
              {
                "system": "http://terminology.hl7.org/CodeSystem/observation-category",
                "code": "laboratory"
              }
            ]
          }
        ],
        "code": {
          "coding": [
            {
              "code": "2019-8",
              "system": "http://loinc.org",
              "display": "Carbon dioxide [Partial pressure] in Arterial blood"
            }
          ],
          "text": "Carbon dioxide [Partial pressure] in Arterial blood"
        },
        "valueQuantity": {
          "system": "http://unitsofmeasure.org",
          "value": 43.6,
          "unit": "mm[Hg]",
          "code": "mm[Hg]"
        },
        "referenceRange": [
          {
            "low": {
              "value": 35,
              "code": "mm[Hg]",
              "system": "http://unitsofmeasure.org"
            }
          },
          {
            "high": {
              "value": 45,
              "code": "mm[Hg]",
              "system": "http://unitsofmeasure.org"
            }
          }
        ],
        "text": {
          "status": "generated",
          "div": "<div xmlns=\"http://www.w3.org/1999/xhtml\"><table class=\"hl7__eu__lab__report\"><tr><th>Test</th><th>06-Nov-2016</th><th>Reference&#xA0;Range</th><th>Unit</th></tr><tr><td>Carbon dioxide [Partial pressure] in Arterial blood</td><td>43.6</td><td>35 - 45</td><td></td><td>mm[Hg]</td></tr></table></div>"
        },
        "status": "final",
        "subject": {
          "reference": "urn:uuid:f102369a-8249-40e4-b244-1854f18fa7da",
          "display": "Ludmila Vávrová"
        },
        "effectiveDateTime": "2016-11-06T21:34:53Z",
        "specimen": {
          "reference": "urn:uuid:c108accf-9a96-4bae-9c1c-8cb6357f7fc8"
        }
      }
    },
    {
      "fullUrl": "urn:uuid:1f5b3686-fa42-4d66-a9c2-7f5624fcc7b9",
      "resource": {
        "resourceType": "Observation",
        "id": "1f5b3686-fa42-4d66-a9c2-7f5624fcc7b9",
        "meta": {
          "profile": [
            "http://hl7.eu/fhir/laboratory/StructureDefinition/Observation-resultslab-eu-lab"
          ]
        },
        "performer": [
          {
            "display": "The Central European Lab"
          }
        ],
        "category": [
          {
            "coding": [
              {
                "system": "http://terminology.hl7.org/CodeSystem/observation-category",
                "code": "laboratory"
              }
            ]
          }
        ],
        "code": {
          "coding": [
            {
              "code": "2703-7",
              "system": "http://loinc.org",
              "display": "Oxygen [Partial pressure] in Arterial blood"
            }
          ],
          "text": "Oxygen [Partial pressure] in Arterial blood"
        },
        "valueQuantity": {
          "system": "http://unitsofmeasure.org",
          "value": 86.3,
          "unit": "mm[Hg]",
          "code": "mm[Hg]"
        },
        "referenceRange": [
          {
            "low": {
              "value": 75,
              "code": "mm[Hg]",
              "system": "http://unitsofmeasure.org"
            }
          },
          {
            "high": {
              "value": 100,
              "code": "mm[Hg]",
              "system": "http://unitsofmeasure.org"
            }
          }
        ],
        "text": {
          "status": "generated",
          "div": "<div xmlns=\"http://www.w3.org/1999/xhtml\"><table class=\"hl7__eu__lab__report\"><tr><th>Test</th><th>06-Nov-2016</th><th>Reference&#xA0;Range</th><th>Unit</th></tr><tr><td>Oxygen [Partial pressure] in Arterial blood</td><td>86.3</td><td>75 - 100</td><td></td><td>mm[Hg]</td></tr></table></div>"
        },
        "status": "final",
        "subject": {
          "reference": "urn:uuid:f102369a-8249-40e4-b244-1854f18fa7da",
          "display": "Ludmila Vávrová"
        },
        "effectiveDateTime": "2016-11-06T21:34:53Z",
        "specimen": {
          "reference": "urn:uuid:c108accf-9a96-4bae-9c1c-8cb6357f7fc8"
        }
      }
    },
    {
      "fullUrl": "urn:uuid:a480cc83-ea0c-410b-a0bb-3aba2bec1a4d",
      "resource": {
        "resourceType": "Observation",
        "id": "a480cc83-ea0c-410b-a0bb-3aba2bec1a4d",
        "meta": {
          "profile": [
            "http://hl7.eu/fhir/laboratory/StructureDefinition/Observation-resultslab-eu-lab"
          ]
        },
        "performer": [
          {
            "display": "The Central European Lab"
          }
        ],
        "category": [
          {
            "coding": [
              {
                "system": "http://terminology.hl7.org/CodeSystem/observation-category",
                "code": "laboratory"
              }
            ]
          }
        ],
        "code": {
          "coding": [
            {
              "code": "1960-4",
              "system": "http://loinc.org",
              "display": "Bicarbonate [Moles/volume] in Arterial blood"
            }
          ],
          "text": "Bicarbonate [Moles/volume] in Arterial blood"
        },
        "valueQuantity": {
          "system": "http://unitsofmeasure.org",
          "value": 25,
          "unit": "mmol/L",
          "code": "mmol/L"
        },
        "referenceRange": [
          {
            "low": {
              "value": 22,
              "code": "mmol/L",
              "system": "http://unitsofmeasure.org"
            }
          },
          {
            "high": {
              "value": 32,
              "code": "mmol/L",
              "system": "http://unitsofmeasure.org"
            }
          }
        ],
        "text": {
          "status": "generated",
          "div": "<div xmlns=\"http://www.w3.org/1999/xhtml\"><table class=\"hl7__eu__lab__report\"><tr><th>Test</th><th>06-Nov-2016</th><th>Reference&#xA0;Range</th><th>Unit</th></tr><tr><td>Bicarbonate [Moles/volume] in Arterial blood</td><td>25.0</td><td>22 - 32</td><td></td><td>mmol/L</td></tr></table></div>"
        },
        "status": "final",
        "subject": {
          "reference": "urn:uuid:f102369a-8249-40e4-b244-1854f18fa7da",
          "display": "Ludmila Vávrová"
        },
        "effectiveDateTime": "2016-11-06T21:34:53Z",
        "specimen": {
          "reference": "urn:uuid:c108accf-9a96-4bae-9c1c-8cb6357f7fc8"
        }
      }
    },
    {
      "fullUrl": "urn:uuid:ae1c1637-8818-43e0-8729-38ed52704b3f",
      "resource": {
        "resourceType": "Observation",
        "id": "ae1c1637-8818-43e0-8729-38ed52704b3f",
        "meta": {
          "profile": [
            "http://hl7.eu/fhir/laboratory/StructureDefinition/Observation-resultslab-eu-lab"
          ]
        },
        "performer": [
          {
            "display": "The Central European Lab"
          }
        ],
        "category": [
          {
            "coding": [
              {
                "system": "http://terminology.hl7.org/CodeSystem/observation-category",
                "code": "laboratory"
              }
            ]
          }
        ],
        "code": {
          "coding": [
            {
              "code": "2708-6",
              "system": "http://loinc.org",
              "display": "Oxygen saturation in Arterial blood"
            }
          ],
          "text": "Oxygen saturation in Arterial blood"
        },
        "valueQuantity": {
          "system": "http://unitsofmeasure.org",
          "value": 91,
          "unit": "%",
          "code": "%"
        },
        "referenceRange": [
          {
            "low": {
              "value": 95,
              "code": "%",
              "system": "http://unitsofmeasure.org"
            }
          },
          {
            "high": {
              "value": 100,
              "code": "%",
              "system": "http://unitsofmeasure.org"
            }
          }
        ],
        "interpretation": [
          {
            "coding": [
              {
                "code": "L",
                "system": "http://terminology.hl7.org/CodeSystem/v3-ObservationInterpretation",
                "display": "Low"
              }
            ]
          }
        ],
        "text": {
          "status": "generated",
          "div": "<div xmlns=\"http://www.w3.org/1999/xhtml\"><table class=\"hl7__eu__lab__report\"><tr><th>Test</th><th>06-Nov-2016</th><th>Reference&#xA0;Range</th><th>Unit</th></tr><tr><td>Oxygen saturation in Arterial blood</td><td>91.0</td><td>95 - 100</td><td>L</td><td>%</td></tr></table></div>"
        },
        "status": "final",
        "subject": {
          "reference": "urn:uuid:f102369a-8249-40e4-b244-1854f18fa7da",
          "display": "Ludmila Vávrová"
        },
        "effectiveDateTime": "2016-11-06T21:34:53Z",
        "specimen": {
          "reference": "urn:uuid:c108accf-9a96-4bae-9c1c-8cb6357f7fc8"
        }
      }
    },
    {
      "fullUrl": "urn:uuid:fe2891ed-6751-4e82-9a88-d15d047b75af",
      "resource": {
        "resourceType": "Observation",
        "id": "fe2891ed-6751-4e82-9a88-d15d047b75af",
        "meta": {
          "profile": [
            "http://hl7.eu/fhir/laboratory/StructureDefinition/Observation-resultslab-eu-lab"
          ]
        },
        "performer": [
          {
            "display": "The Central European Lab"
          }
        ],
        "category": [
          {
            "coding": [
              {
                "system": "http://terminology.hl7.org/CodeSystem/observation-category",
                "code": "laboratory"
              }
            ]
          }
        ],
        "code": {
          "coding": [
            {
              "code": "2093-3",
              "system": "http://loinc.org",
              "display": "Cholesterol [Mass/volume] in Serum or Plasma"
            }
          ],
          "text": "Cholesterol [Mass/volume] in Serum or Plasma"
        },
        "valueQuantity": {
          "system": "http://unitsofmeasure.org",
          "value": 260.2,
          "unit": "mg/dL",
          "code": "mg/dL"
        },
        "referenceRange": [
          {
            "low": {
              "value": 125,
              "code": "mg/dL",
              "system": "http://unitsofmeasure.org"
            }
          },
          {
            "high": {
              "value": 200,
              "code": "mg/dL",
              "system": "http://unitsofmeasure.org"
            }
          }
        ],
        "interpretation": [
          {
            "coding": [
              {
                "code": "H",
                "system": "http://terminology.hl7.org/CodeSystem/v3-ObservationInterpretation",
                "display": "High"
              }
            ]
          }
        ],
        "text": {
          "status": "generated",
          "div": "<div xmlns=\"http://www.w3.org/1999/xhtml\"><table class=\"hl7__eu__lab__report\"><tr><th>Test</th><th>06-Nov-2016</th><th>Reference&#xA0;Range</th><th>Unit</th></tr><tr><td>Cholesterol [Mass/volume] in Serum or Plasma</td><td>260.2</td><td>125 - 200</td><td>H</td><td>mg/dL</td></tr></table></div>"
        },
        "status": "final",
        "subject": {
          "reference": "urn:uuid:f102369a-8249-40e4-b244-1854f18fa7da",
          "display": "Ludmila Vávrová"
        },
        "effectiveDateTime": "2016-11-06T21:34:53Z",
        "specimen": {
          "reference": "urn:uuid:191fb8ab-4e2b-4249-bae9-a7f0bd8a0a36"
        }
      }
    },
    {
      "fullUrl": "urn:uuid:d6eadb3b-81ad-4ef9-b602-32b2fffdff70",
      "resource": {
        "resourceType": "Observation",
        "id": "d6eadb3b-81ad-4ef9-b602-32b2fffdff70",
        "meta": {
          "profile": [
            "http://hl7.eu/fhir/laboratory/StructureDefinition/Observation-resultslab-eu-lab"
          ]
        },
        "performer": [
          {
            "display": "The Central European Lab"
          }
        ],
        "category": [
          {
            "coding": [
              {
                "system": "http://terminology.hl7.org/CodeSystem/observation-category",
                "code": "laboratory"
              }
            ]
          }
        ],
        "code": {
          "coding": [
            {
              "code": "2571-8",
              "system": "http://loinc.org",
              "display": "Triglyceride [Mass/volume] in Serum or Plasma"
            }
          ],
          "text": "Triglyceride [Mass/volume] in Serum or Plasma"
        },
        "valueQuantity": {
          "system": "http://unitsofmeasure.org",
          "value": 131.1,
          "unit": "mg/dL",
          "code": "mg/dL"
        },
        "referenceRange": [
          {
            "low": {
              "value": 10,
              "code": "mg/dL",
              "system": "http://unitsofmeasure.org"
            }
          },
          {
            "high": {
              "value": 175,
              "code": "mg/dL",
              "system": "http://unitsofmeasure.org"
            }
          }
        ],
        "text": {
          "status": "generated",
          "div": "<div xmlns=\"http://www.w3.org/1999/xhtml\"><table class=\"hl7__eu__lab__report\"><tr><th>Test</th><th>06-Nov-2016</th><th>Reference&#xA0;Range</th><th>Unit</th></tr><tr><td>Triglyceride [Mass/volume] in Serum or Plasma</td><td>131.1</td><td>10 - 175</td><td></td><td>mg/dL</td></tr></table></div>"
        },
        "status": "final",
        "subject": {
          "reference": "urn:uuid:f102369a-8249-40e4-b244-1854f18fa7da",
          "display": "Ludmila Vávrová"
        },
        "effectiveDateTime": "2016-11-06T21:34:53Z",
        "specimen": {
          "reference": "urn:uuid:191fb8ab-4e2b-4249-bae9-a7f0bd8a0a36"
        }
      }
    },
    {
      "fullUrl": "urn:uuid:0a143ba0-1f28-4167-bfd9-2ef9810c19ec",
      "resource": {
        "resourceType": "Observation",
        "id": "0a143ba0-1f28-4167-bfd9-2ef9810c19ec",
        "meta": {
          "profile": [
            "http://hl7.eu/fhir/laboratory/StructureDefinition/Observation-resultslab-eu-lab"
          ]
        },
        "performer": [
          {
            "display": "The Central European Lab"
          }
        ],
        "category": [
          {
            "coding": [
              {
                "system": "http://terminology.hl7.org/CodeSystem/observation-category",
                "code": "laboratory"
              }
            ]
          }
        ],
        "code": {
          "coding": [
            {
              "code": "18262-6",
              "system": "http://loinc.org",
              "display": "Cholesterol in LDL [Mass/volume] in Serum or Plasma by Direct assay"
            }
          ],
          "text": "Cholesterol in LDL [Mass/volume] in Serum or Plasma by Direct assay"
        },
        "valueQuantity": {
          "system": "http://unitsofmeasure.org",
          "value": 181.2,
          "unit": "mg/dL",
          "code": "mg/dL"
        },
        "referenceRange": [
          {
            "low": {
              "value": 0,
              "code": "mg/dL",
              "system": "http://unitsofmeasure.org"
            }
          },
          {
            "high": {
              "value": 130,
              "code": "mg/dL",
              "system": "http://unitsofmeasure.org"
            }
          }
        ],
        "interpretation": [
          {
            "coding": [
              {
                "code": "H",
                "system": "http://terminology.hl7.org/CodeSystem/v3-ObservationInterpretation",
                "display": "High"
              }
            ]
          }
        ],
        "text": {
          "status": "generated",
          "div": "<div xmlns=\"http://www.w3.org/1999/xhtml\"><table class=\"hl7__eu__lab__report\"><tr><th>Test</th><th>06-Nov-2016</th><th>Reference&#xA0;Range</th><th>Unit</th></tr><tr><td>Cholesterol in LDL [Mass/volume] in Serum or Plasma by Direct assay</td><td>181.2</td><td>0 - 130</td><td>H</td><td>mg/dL</td></tr></table></div>"
        },
        "status": "final",
        "subject": {
          "reference": "urn:uuid:f102369a-8249-40e4-b244-1854f18fa7da",
          "display": "Ludmila Vávrová"
        },
        "effectiveDateTime": "2016-11-06T21:34:53Z",
        "specimen": {
          "reference": "urn:uuid:191fb8ab-4e2b-4249-bae9-a7f0bd8a0a36"
        }
      }
    },
    {
      "fullUrl": "urn:uuid:35d43f32-3c28-4e72-892e-a09fd7447f83",
      "resource": {
        "resourceType": "Observation",
        "id": "35d43f32-3c28-4e72-892e-a09fd7447f83",
        "meta": {
          "profile": [
            "http://hl7.eu/fhir/laboratory/StructureDefinition/Observation-resultslab-eu-lab"
          ]
        },
        "performer": [
          {
            "display": "The Central European Lab"
          }
        ],
        "category": [
          {
            "coding": [
              {
                "system": "http://terminology.hl7.org/CodeSystem/observation-category",
                "code": "laboratory"
              }
            ]
          }
        ],
        "code": {
          "coding": [
            {
              "code": "2085-9",
              "system": "http://loinc.org",
              "display": "Cholesterol in HDL [Mass/volume] in Serum or Plasma"
            }
          ],
          "text": "Cholesterol in HDL [Mass/volume] in Serum or Plasma"
        },
        "valueQuantity": {
          "system": "http://unitsofmeasure.org",
          "value": 52.8,
          "unit": "mg/dL",
          "code": "mg/dL"
        },
        "referenceRange": [
          {
            "low": {
              "value": 50,
              "code": "mg/dL",
              "system": "http://unitsofmeasure.org"
            }
          },
          {
            "high": {
              "value": 100,
              "code": "mg/dL",
              "system": "http://unitsofmeasure.org"
            }
          }
        ],
        "text": {
          "status": "generated",
          "div": "<div xmlns=\"http://www.w3.org/1999/xhtml\"><table class=\"hl7__eu__lab__report\"><tr><th>Test</th><th>06-Nov-2016</th><th>Reference&#xA0;Range</th><th>Unit</th></tr><tr><td>Cholesterol in HDL [Mass/volume] in Serum or Plasma</td><td>52.8</td><td>50 - 100</td><td></td><td>mg/dL</td></tr></table></div>"
        },
        "status": "final",
        "subject": {
          "reference": "urn:uuid:f102369a-8249-40e4-b244-1854f18fa7da",
          "display": "Ludmila Vávrová"
        },
        "effectiveDateTime": "2016-11-06T21:34:53Z",
        "specimen": {
          "reference": "urn:uuid:191fb8ab-4e2b-4249-bae9-a7f0bd8a0a36"
        }
      }
    },
    {
      "fullUrl": "urn:uuid:55a3b3d9-6f2c-47a0-8e86-0af2b24b0287",
      "resource": {
        "resourceType": "Observation",
        "id": "55a3b3d9-6f2c-47a0-8e86-0af2b24b0287",
        "meta": {
          "profile": [
            "http://hl7.eu/fhir/laboratory/StructureDefinition/Observation-resultslab-eu-lab"
          ]
        },
        "performer": [
          {
            "display": "The Central European Lab"
          }
        ],
        "category": [
          {
            "coding": [
              {
                "system": "http://terminology.hl7.org/CodeSystem/observation-category",
                "code": "laboratory"
              }
            ]
          }
        ],
        "code": {
          "coding": [
            {
              "code": "89579-7",
              "system": "http://loinc.org",
              "display": "Troponin I.cardiac [Mass/volume] in Serum or Plasma by High sensitivity method"
            }
          ],
          "text": "Troponin I.cardiac [Mass/volume] in Serum or Plasma by High sensitivity method"
        },
        "valueQuantity": {
          "system": "http://unitsofmeasure.org",
          "value": 0,
          "unit": "pg/mL",
          "code": "pg/mL"
        },
        "referenceRange": [
          {
            "low": {
              "value": 0,
              "code": "pg/mL",
              "system": "http://unitsofmeasure.org"
            }
          },
          {
            "high": {
              "value": 26.2,
              "code": "pg/mL",
              "system": "http://unitsofmeasure.org"
            }
          }
        ],
        "text": {
          "status": "generated",
          "div": "<div xmlns=\"http://www.w3.org/1999/xhtml\"><table class=\"hl7__eu__lab__report\"><tr><th>Test</th><th>06-Nov-2016</th><th>Reference&#xA0;Range</th><th>Unit</th></tr><tr><td>Troponin I.cardiac [Mass/volume] in Serum or Plasma by High sensitivity method</td><td>0.0</td><td>0 - 26.2</td><td></td><td>pg/mL</td></tr></table></div>"
        },
        "status": "final",
        "subject": {
          "reference": "urn:uuid:f102369a-8249-40e4-b244-1854f18fa7da",
          "display": "Ludmila Vávrová"
        },
        "effectiveDateTime": "2016-11-06T21:34:53Z",
        "specimen": {
          "reference": "urn:uuid:191fb8ab-4e2b-4249-bae9-a7f0bd8a0a36"
        }
      }
    },
    {
      "fullUrl": "urn:uuid:6cb27d03-6d63-45de-971d-a95d3a1768bc",
      "resource": {
        "resourceType": "Observation",
        "id": "6cb27d03-6d63-45de-971d-a95d3a1768bc",
        "meta": {
          "profile": [
            "http://hl7.eu/fhir/laboratory/StructureDefinition/Observation-resultslab-eu-lab"
          ]
        },
        "performer": [
          {
            "display": "The Central European Lab"
          }
        ],
        "category": [
          {
            "coding": [
              {
                "system": "http://terminology.hl7.org/CodeSystem/observation-category",
                "code": "laboratory"
              }
            ]
          }
        ],
        "code": {
          "coding": [
            {
              "code": "3016-3",
              "system": "http://loinc.org",
              "display": "Thyrotropin [Units/volume] in Serum or Plasma"
            }
          ],
          "text": "Thyrotropin [Units/volume] in Serum or Plasma"
        },
        "valueQuantity": {
          "system": "http://unitsofmeasure.org",
          "value": 4.1,
          "unit": "m[IU]/L",
          "code": "m[IU]/L"
        },
        "referenceRange": [
          {
            "low": {
              "value": 0.5,
              "code": "m[IU]/L",
              "system": "http://unitsofmeasure.org"
            }
          },
          {
            "high": {
              "value": 6,
              "code": "m[IU]/L",
              "system": "http://unitsofmeasure.org"
            }
          }
        ],
        "text": {
          "status": "generated",
          "div": "<div xmlns=\"http://www.w3.org/1999/xhtml\"><table class=\"hl7__eu__lab__report\"><tr><th>Test</th><th>06-Nov-2016</th><th>Reference&#xA0;Range</th><th>Unit</th></tr><tr><td>Thyrotropin [Units/volume] in Serum or Plasma</td><td>4.1</td><td>0.5 - 6</td><td></td><td>m[IU]/L</td></tr></table></div>"
        },
        "status": "final",
        "subject": {
          "reference": "urn:uuid:f102369a-8249-40e4-b244-1854f18fa7da",
          "display": "Ludmila Vávrová"
        },
        "effectiveDateTime": "2016-11-06T21:34:53Z",
        "specimen": {
          "reference": "urn:uuid:191fb8ab-4e2b-4249-bae9-a7f0bd8a0a36"
        }
      }
    },
    {
      "fullUrl": "urn:uuid:485f6bb4-d1e9-434a-986a-d1449c8d7b5d",
      "resource": {
        "resourceType": "Observation",
        "id": "485f6bb4-d1e9-434a-986a-d1449c8d7b5d",
        "meta": {
          "profile": [
            "http://hl7.eu/fhir/laboratory/StructureDefinition/Observation-resultslab-eu-lab"
          ]
        },
        "performer": [
          {
            "display": "The Central European Lab"
          }
        ],
        "category": [
          {
            "coding": [
              {
                "system": "http://terminology.hl7.org/CodeSystem/observation-category",
                "code": "laboratory"
              }
            ]
          }
        ],
        "code": {
          "coding": [
            {
              "code": "4548-4",
              "system": "http://loinc.org",
              "display": "Hemoglobin A1c/Hemoglobin.total in Blood"
            }
          ],
          "text": "Hemoglobin A1c/Hemoglobin.total in Blood"
        },
        "valueQuantity": {
          "system": "http://unitsofmeasure.org",
          "value": 5.2,
          "unit": "%",
          "code": "%"
        },
        "referenceRange": [
          {
            "low": {
              "value": 4.5,
              "code": "%",
              "system": "http://unitsofmeasure.org"
            }
          },
          {
            "high": {
              "value": 6.4,
              "code": "%",
              "system": "http://unitsofmeasure.org"
            }
          }
        ],
        "text": {
          "status": "generated",
          "div": "<div xmlns=\"http://www.w3.org/1999/xhtml\"><table class=\"hl7__eu__lab__report\"><tr><th>Test</th><th>06-Nov-2016</th><th>Reference&#xA0;Range</th><th>Unit</th></tr><tr><td>Hemoglobin A1c/Hemoglobin.total in Blood</td><td>5.2</td><td>4.5 - 6.4</td><td></td><td>%</td></tr></table></div>"
        },
        "status": "final",
        "subject": {
          "reference": "urn:uuid:f102369a-8249-40e4-b244-1854f18fa7da",
          "display": "Ludmila Vávrová"
        },
        "effectiveDateTime": "2016-11-06T21:34:53Z",
        "specimen": {
          "reference": "urn:uuid:dca375b1-2e98-4d0a-b7de-9a2f87b096c0"
        }
      }
    },
    {
      "fullUrl": "urn:uuid:ef272424-3383-4a51-a3de-4afe6f6e45bd",
      "resource": {
        "resourceType": "Observation",
        "id": "ef272424-3383-4a51-a3de-4afe6f6e45bd",
        "meta": {
          "profile": [
            "http://hl7.eu/fhir/laboratory/StructureDefinition/Observation-resultslab-eu-lab"
          ]
        },
        "performer": [
          {
            "display": "The Central European Lab"
          }
        ],
        "category": [
          {
            "coding": [
              {
                "system": "http://terminology.hl7.org/CodeSystem/observation-category",
                "code": "laboratory"
              }
            ]
          }
        ],
        "code": {
          "coding": [
            {
              "code": "25428-4",
              "system": "http://loinc.org",
              "display": "Glucose [Presence] in Urine by Test strip"
            }
          ],
          "text": "Glucose [Presence] in Urine by Test strip"
        },
        "valueQuantity": {
          "system": "http://unitsofmeasure.org",
          "value": 1,
          "unit": "{presence}",
          "code": "{presence}"
        },
        "referenceRange": [
          {
            "low": {
              "value": 0,
              "code": "mg/dL",
              "system": "http://unitsofmeasure.org"
            }
          },
          {
            "high": {
              "value": 0,
              "code": "mg/dL",
              "system": "http://unitsofmeasure.org"
            }
          }
        ],
        "interpretation": [
          {
            "coding": [
              {
                "code": "H",
                "system": "http://terminology.hl7.org/CodeSystem/v3-ObservationInterpretation",
                "display": "High"
              }
            ]
          }
        ],
        "text": {
          "status": "generated",
          "div": "<div xmlns=\"http://www.w3.org/1999/xhtml\"><table class=\"hl7__eu__lab__report\"><tr><th>Test</th><th>06-Nov-2016</th><th>Reference&#xA0;Range</th><th>Unit</th></tr><tr><td>Glucose [Presence] in Urine by Test strip</td><td>1.0</td><td>0 - 0</td><td>H</td><td>{presence}</td></tr></table></div>"
        },
        "status": "final",
        "subject": {
          "reference": "urn:uuid:f102369a-8249-40e4-b244-1854f18fa7da",
          "display": "Ludmila Vávrová"
        },
        "effectiveDateTime": "2016-11-06T21:34:53Z",
        "specimen": {
          "reference": "urn:uuid:50bfbb7b-6c35-4190-ae9f-64832ab1706d"
        }
      }
    },
    {
      "fullUrl": "urn:uuid:754dc900-4cdc-4646-b97b-2ef582aaa323",
      "resource": {
        "resourceType": "Observation",
        "id": "754dc900-4cdc-4646-b97b-2ef582aaa323",
        "meta": {
          "profile": [
            "http://hl7.eu/fhir/laboratory/StructureDefinition/Observation-resultslab-eu-lab"
          ]
        },
        "performer": [
          {
            "display": "The Central European Lab"
          }
        ],
        "category": [
          {
            "coding": [
              {
                "system": "http://terminology.hl7.org/CodeSystem/observation-category",
                "code": "laboratory"
              }
            ]
          }
        ],
        "code": {
          "coding": [
            {
              "code": "5770-3",
              "system": "http://loinc.org",
              "display": "Bilirubin.total [Presence] in Urine by Test strip"
            }
          ],
          "text": "Bilirubin.total [Presence] in Urine by Test strip"
        },
        "valueQuantity": {
          "system": "http://unitsofmeasure.org",
          "value": 1,
          "unit": "{presence}",
          "code": "{presence}"
        },
        "referenceRange": [
          {
            "low": {
              "value": 0,
              "code": "mg/dL",
              "system": "http://unitsofmeasure.org"
            }
          },
          {
            "high": {
              "value": 1,
              "code": "mg/dL",
              "system": "http://unitsofmeasure.org"
            }
          }
        ],
        "text": {
          "status": "generated",
          "div": "<div xmlns=\"http://www.w3.org/1999/xhtml\"><table class=\"hl7__eu__lab__report\"><tr><th>Test</th><th>06-Nov-2016</th><th>Reference&#xA0;Range</th><th>Unit</th></tr><tr><td>Bilirubin.total [Presence] in Urine by Test strip</td><td>1.0</td><td>0 - 1</td><td></td><td>{presence}</td></tr></table></div>"
        },
        "status": "final",
        "subject": {
          "reference": "urn:uuid:f102369a-8249-40e4-b244-1854f18fa7da",
          "display": "Ludmila Vávrová"
        },
        "effectiveDateTime": "2016-11-06T21:34:53Z",
        "specimen": {
          "reference": "urn:uuid:50bfbb7b-6c35-4190-ae9f-64832ab1706d"
        }
      }
    },
    {
      "fullUrl": "urn:uuid:e2466741-fb50-4353-9b48-80f3705b5bff",
      "resource": {
        "resourceType": "Observation",
        "id": "e2466741-fb50-4353-9b48-80f3705b5bff",
        "meta": {
          "profile": [
            "http://hl7.eu/fhir/laboratory/StructureDefinition/Observation-resultslab-eu-lab"
          ]
        },
        "performer": [
          {
            "display": "The Central European Lab"
          }
        ],
        "category": [
          {
            "coding": [
              {
                "system": "http://terminology.hl7.org/CodeSystem/observation-category",
                "code": "laboratory"
              }
            ]
          }
        ],
        "code": {
          "coding": [
            {
              "code": "2514-8",
              "system": "http://loinc.org",
              "display": "Ketones [Presence] in Urine by Test strip"
            }
          ],
          "text": "Ketones [Presence] in Urine by Test strip"
        },
        "valueQuantity": {
          "system": "http://unitsofmeasure.org",
          "value": 1,
          "unit": "{presence}",
          "code": "{presence}"
        },
        "referenceRange": [
          {
            "low": {
              "value": 0.5,
              "code": "mg/dL",
              "system": "http://unitsofmeasure.org"
            }
          },
          {
            "high": {
              "value": 4,
              "code": "mg/dL",
              "system": "http://unitsofmeasure.org"
            }
          }
        ],
        "text": {
          "status": "generated",
          "div": "<div xmlns=\"http://www.w3.org/1999/xhtml\"><table class=\"hl7__eu__lab__report\"><tr><th>Test</th><th>06-Nov-2016</th><th>Reference&#xA0;Range</th><th>Unit</th></tr><tr><td>Ketones [Presence] in Urine by Test strip</td><td>1.0</td><td>0.5 - 4</td><td></td><td>{presence}</td></tr></table></div>"
        },
        "status": "final",
        "subject": {
          "reference": "urn:uuid:f102369a-8249-40e4-b244-1854f18fa7da",
          "display": "Ludmila Vávrová"
        },
        "effectiveDateTime": "2016-11-06T21:34:53Z",
        "specimen": {
          "reference": "urn:uuid:50bfbb7b-6c35-4190-ae9f-64832ab1706d"
        }
      }
    },
    {
      "fullUrl": "urn:uuid:2b54cba8-ad46-4ee3-8bb7-a8d422939b5c",
      "resource": {
        "resourceType": "Observation",
        "id": "2b54cba8-ad46-4ee3-8bb7-a8d422939b5c",
        "meta": {
          "profile": [
            "http://hl7.eu/fhir/laboratory/StructureDefinition/Observation-resultslab-eu-lab"
          ]
        },
        "performer": [
          {
            "display": "The Central European Lab"
          }
        ],
        "category": [
          {
            "coding": [
              {
                "system": "http://terminology.hl7.org/CodeSystem/observation-category",
                "code": "laboratory"
              }
            ]
          }
        ],
        "code": {
          "coding": [
            {
              "code": "5811-5",
              "system": "http://loinc.org",
              "display": "Specific gravity of Urine by Test strip"
            }
          ],
          "text": "Specific gravity of Urine by Test strip"
        },
        "valueQuantity": {
          "system": "http://unitsofmeasure.org",
          "value": 1,
          "unit": "{SG}",
          "code": "{SG}"
        },
        "referenceRange": [
          {
            "low": {
              "value": 1.01,
              "code": "SG",
              "system": "http://unitsofmeasure.org"
            }
          },
          {
            "high": {
              "value": 1.03,
              "code": "SG",
              "system": "http://unitsofmeasure.org"
            }
          }
        ],
        "interpretation": [
          {
            "coding": [
              {
                "code": "L",
                "system": "http://terminology.hl7.org/CodeSystem/v3-ObservationInterpretation",
                "display": "Low"
              }
            ]
          }
        ],
        "text": {
          "status": "generated",
          "div": "<div xmlns=\"http://www.w3.org/1999/xhtml\"><table class=\"hl7__eu__lab__report\"><tr><th>Test</th><th>06-Nov-2016</th><th>Reference&#xA0;Range</th><th>Unit</th></tr><tr><td>Specific gravity of Urine by Test strip</td><td>1.0</td><td>1.01 - 1.03</td><td>L</td><td>{SG}</td></tr></table></div>"
        },
        "status": "final",
        "subject": {
          "reference": "urn:uuid:f102369a-8249-40e4-b244-1854f18fa7da",
          "display": "Ludmila Vávrová"
        },
        "effectiveDateTime": "2016-11-06T21:34:53Z",
        "specimen": {
          "reference": "urn:uuid:50bfbb7b-6c35-4190-ae9f-64832ab1706d"
        }
      }
    },
    {
      "fullUrl": "urn:uuid:4bf76950-e2e5-4cfa-a3da-c754eeff2fc6",
      "resource": {
        "resourceType": "Observation",
        "id": "4bf76950-e2e5-4cfa-a3da-c754eeff2fc6",
        "meta": {
          "profile": [
            "http://hl7.eu/fhir/laboratory/StructureDefinition/Observation-resultslab-eu-lab"
          ]
        },
        "performer": [
          {
            "display": "The Central European Lab"
          }
        ],
        "category": [
          {
            "coding": [
              {
                "system": "http://terminology.hl7.org/CodeSystem/observation-category",
                "code": "laboratory"
              }
            ]
          }
        ],
        "code": {
          "coding": [
            {
              "code": "5803-2",
              "system": "http://loinc.org",
              "display": "pH of Urine by Test strip"
            }
          ],
          "text": "pH of Urine by Test strip"
        },
        "valueQuantity": {
          "system": "http://unitsofmeasure.org",
          "value": 5.6,
          "unit": "[pH]",
          "code": "[pH]"
        },
        "referenceRange": [
          {
            "low": {
              "value": 4.5,
              "code": "pH",
              "system": "http://unitsofmeasure.org"
            }
          },
          {
            "high": {
              "value": 7.5,
              "code": "pH",
              "system": "http://unitsofmeasure.org"
            }
          }
        ],
        "text": {
          "status": "generated",
          "div": "<div xmlns=\"http://www.w3.org/1999/xhtml\"><table class=\"hl7__eu__lab__report\"><tr><th>Test</th><th>06-Nov-2016</th><th>Reference&#xA0;Range</th><th>Unit</th></tr><tr><td>pH of Urine by Test strip</td><td>5.6</td><td>4.5 - 7.5</td><td></td><td>[pH]</td></tr></table></div>"
        },
        "status": "final",
        "subject": {
          "reference": "urn:uuid:f102369a-8249-40e4-b244-1854f18fa7da",
          "display": "Ludmila Vávrová"
        },
        "effectiveDateTime": "2016-11-06T21:34:53Z",
        "specimen": {
          "reference": "urn:uuid:50bfbb7b-6c35-4190-ae9f-64832ab1706d"
        }
      }
    },
    {
      "fullUrl": "urn:uuid:d772e06c-1d0b-4f96-abf8-a8736a6ed8cd",
      "resource": {
        "resourceType": "Observation",
        "id": "d772e06c-1d0b-4f96-abf8-a8736a6ed8cd",
        "meta": {
          "profile": [
            "http://hl7.eu/fhir/laboratory/StructureDefinition/Observation-resultslab-eu-lab"
          ]
        },
        "performer": [
          {
            "display": "The Central European Lab"
          }
        ],
        "category": [
          {
            "coding": [
              {
                "system": "http://terminology.hl7.org/CodeSystem/observation-category",
                "code": "laboratory"
              }
            ]
          }
        ],
        "code": {
          "coding": [
            {
              "code": "20454-5",
              "system": "http://loinc.org",
              "display": "Protein [Presence] in Urine by Test strip"
            }
          ],
          "text": "Protein [Presence] in Urine by Test strip"
        },
        "valueQuantity": {
          "system": "http://unitsofmeasure.org",
          "value": 1,
          "unit": "{presence}",
          "code": "{presence}"
        },
        "referenceRange": [
          {
            "low": {
              "value": 0,
              "code": "mg/dL",
              "system": "http://unitsofmeasure.org"
            }
          },
          {
            "high": {
              "value": 0,
              "code": "mg/dL",
              "system": "http://unitsofmeasure.org"
            }
          }
        ],
        "interpretation": [
          {
            "coding": [
              {
                "code": "H",
                "system": "http://terminology.hl7.org/CodeSystem/v3-ObservationInterpretation",
                "display": "High"
              }
            ]
          }
        ],
        "text": {
          "status": "generated",
          "div": "<div xmlns=\"http://www.w3.org/1999/xhtml\"><table class=\"hl7__eu__lab__report\"><tr><th>Test</th><th>06-Nov-2016</th><th>Reference&#xA0;Range</th><th>Unit</th></tr><tr><td>Protein [Presence] in Urine by Test strip</td><td>1.0</td><td>0 - 0</td><td>H</td><td>{presence}</td></tr></table></div>"
        },
        "status": "final",
        "subject": {
          "reference": "urn:uuid:f102369a-8249-40e4-b244-1854f18fa7da",
          "display": "Ludmila Vávrová"
        },
        "effectiveDateTime": "2016-11-06T21:34:53Z",
        "specimen": {
          "reference": "urn:uuid:50bfbb7b-6c35-4190-ae9f-64832ab1706d"
        }
      }
    },
    {
      "fullUrl": "urn:uuid:081bc5aa-58bc-4d7a-9791-b434a3e0bd25",
      "resource": {
        "resourceType": "Observation",
        "id": "081bc5aa-58bc-4d7a-9791-b434a3e0bd25",
        "meta": {
          "profile": [
            "http://hl7.eu/fhir/laboratory/StructureDefinition/Observation-resultslab-eu-lab"
          ]
        },
        "performer": [
          {
            "display": "The Central European Lab"
          }
        ],
        "category": [
          {
            "coding": [
              {
                "system": "http://terminology.hl7.org/CodeSystem/observation-category",
                "code": "laboratory"
              }
            ]
          }
        ],
        "code": {
          "coding": [
            {
              "code": "5802-4",
              "system": "http://loinc.org",
              "display": "Nitrite [Presence] in Urine by Test strip"
            }
          ],
          "text": "Nitrite [Presence] in Urine by Test strip"
        },
        "valueQuantity": {
          "system": "http://unitsofmeasure.org",
          "value": 1,
          "unit": "{presence}",
          "code": "{presence}"
        },
        "referenceRange": [
          {
            "low": {
              "value": 0,
              "code": "Presence",
              "system": "http://unitsofmeasure.org"
            }
          },
          {
            "high": {
              "value": 1,
              "code": "Presence",
              "system": "http://unitsofmeasure.org"
            }
          }
        ],
        "text": {
          "status": "generated",
          "div": "<div xmlns=\"http://www.w3.org/1999/xhtml\"><table class=\"hl7__eu__lab__report\"><tr><th>Test</th><th>06-Nov-2016</th><th>Reference&#xA0;Range</th><th>Unit</th></tr><tr><td>Nitrite [Presence] in Urine by Test strip</td><td>1.0</td><td>0 - 1</td><td></td><td>{presence}</td></tr></table></div>"
        },
        "status": "final",
        "subject": {
          "reference": "urn:uuid:f102369a-8249-40e4-b244-1854f18fa7da",
          "display": "Ludmila Vávrová"
        },
        "effectiveDateTime": "2016-11-06T21:34:53Z",
        "specimen": {
          "reference": "urn:uuid:50bfbb7b-6c35-4190-ae9f-64832ab1706d"
        }
      }
    },
    {
      "fullUrl": "urn:uuid:c1bc21c6-0bc5-4dc6-babc-b5930512d258",
      "resource": {
        "resourceType": "Observation",
        "id": "c1bc21c6-0bc5-4dc6-babc-b5930512d258",
        "meta": {
          "profile": [
            "http://hl7.eu/fhir/laboratory/StructureDefinition/Observation-resultslab-eu-lab"
          ]
        },
        "performer": [
          {
            "display": "The Central European Lab"
          }
        ],
        "category": [
          {
            "coding": [
              {
                "system": "http://terminology.hl7.org/CodeSystem/observation-category",
                "code": "laboratory"
              }
            ]
          }
        ],
        "code": {
          "coding": [
            {
              "code": "5794-3",
              "system": "http://loinc.org",
              "display": "Hemoglobin [Presence] in Urine by Test strip"
            }
          ],
          "text": "Hemoglobin [Presence] in Urine by Test strip"
        },
        "valueQuantity": {
          "system": "http://unitsofmeasure.org",
          "value": 0,
          "unit": "{presence}",
          "code": "{presence}"
        },
        "referenceRange": [
          {
            "low": {
              "value": 0,
              "code": "Presence",
              "system": "http://unitsofmeasure.org"
            }
          },
          {
            "high": {
              "value": 0,
              "code": "Presence",
              "system": "http://unitsofmeasure.org"
            }
          }
        ],
        "text": {
          "status": "generated",
          "div": "<div xmlns=\"http://www.w3.org/1999/xhtml\"><table class=\"hl7__eu__lab__report\"><tr><th>Test</th><th>06-Nov-2016</th><th>Reference&#xA0;Range</th><th>Unit</th></tr><tr><td>Hemoglobin [Presence] in Urine by Test strip</td><td>0.0</td><td>0 - 0</td><td></td><td>{presence}</td></tr></table></div>"
        },
        "status": "final",
        "subject": {
          "reference": "urn:uuid:f102369a-8249-40e4-b244-1854f18fa7da",
          "display": "Ludmila Vávrová"
        },
        "effectiveDateTime": "2016-11-06T21:34:53Z",
        "specimen": {
          "reference": "urn:uuid:50bfbb7b-6c35-4190-ae9f-64832ab1706d"
        }
      }
    },
    {
      "fullUrl": "urn:uuid:dfdaa299-0f2e-480a-94d1-5313c23d723e",
      "resource": {
        "resourceType": "Observation",
        "id": "dfdaa299-0f2e-480a-94d1-5313c23d723e",
        "meta": {
          "profile": [
            "http://hl7.eu/fhir/laboratory/StructureDefinition/Observation-resultslab-eu-lab"
          ]
        },
        "performer": [
          {
            "display": "The Central European Lab"
          }
        ],
        "category": [
          {
            "coding": [
              {
                "system": "http://terminology.hl7.org/CodeSystem/observation-category",
                "code": "laboratory"
              }
            ]
          }
        ],
        "code": {
          "coding": [
            {
              "code": "5799-2",
              "system": "http://loinc.org",
              "display": "Leukocyte esterase [Presence] in Urine by Test strip"
            }
          ],
          "text": "Leukocyte esterase [Presence] in Urine by Test strip"
        },
        "valueQuantity": {
          "system": "http://unitsofmeasure.org",
          "value": 0,
          "unit": "{presence}",
          "code": "{presence}"
        },
        "referenceRange": [
          {
            "low": {
              "value": 0,
              "code": "Presence",
              "system": "http://unitsofmeasure.org"
            }
          },
          {
            "high": {
              "value": 0,
              "code": "Presence",
              "system": "http://unitsofmeasure.org"
            }
          }
        ],
        "text": {
          "status": "generated",
          "div": "<div xmlns=\"http://www.w3.org/1999/xhtml\"><table class=\"hl7__eu__lab__report\"><tr><th>Test</th><th>06-Nov-2016</th><th>Reference&#xA0;Range</th><th>Unit</th></tr><tr><td>Leukocyte esterase [Presence] in Urine by Test strip</td><td>0.0</td><td>0 - 0</td><td></td><td>{presence}</td></tr></table></div>"
        },
        "status": "final",
        "subject": {
          "reference": "urn:uuid:f102369a-8249-40e4-b244-1854f18fa7da",
          "display": "Ludmila Vávrová"
        },
        "effectiveDateTime": "2016-11-06T21:34:53Z",
        "specimen": {
          "reference": "urn:uuid:50bfbb7b-6c35-4190-ae9f-64832ab1706d"
        }
      }
    },
    {
      "fullUrl": "urn:uuid:7059c67d-ffe8-4cd1-8fc8-dd158361c67b",
      "resource": {
        "resourceType": "Device",
        "id": "7059c67d-ffe8-4cd1-8fc8-dd158361c67b",
        "deviceName": [
          {
            "name": "SYNDERAI Synthetic Generator",
            "type": "manufacturer-name"
          }
        ],
        "version": [
          {
            "value": "5.0"
          }
        ],
        "text": {
          "status": "generated",
          "div": "<div xmlns=\"http://www.w3.org/1999/xhtml\">SYNDERAI Synthetic Generator v5.0</div>"
        },
        "status": "active\"",
        "distinctIdentifier": "synderai-generator-50",
        "manufacturer": "SYNDERAI Project"
      }
    },
    {
      "fullUrl": "urn:uuid:f06fe733-1f8b-49ce-8cf8-16523ca432a0",
      "resource": {
        "resourceType": "Provenance",
        "id": "f06fe733-1f8b-49ce-8cf8-16523ca432a0",
        "target": [
          {
            "reference": "Patient/f102369a-8249-40e4-b244-1854f18fa7da"
          },
          {
            "reference": "Bundle/72ce597e-0f9b-418c-8c32-5d48f90caf04"
          },
          {
            "reference": "Composition/1dff38ad-86ef-4b02-9b5a-e71c4664e713"
          },
          {
            "reference": "PractitionerRole/3620acd8-dae6-4812-9693-cea106322e58"
          },
          {
            "reference": "Practitioner/83f0ff41-26d4-4392-85d8-2b51ba10f8aa"
          },
          {
            "reference": "PractitionerRole/3ed52237-57b2-4421-981f-2a86c20e74df"
          },
          {
            "reference": "Organization/eb8fb148-a712-49b6-8f63-07bcdf57208d"
          }
        ],
        "activity": {
          "text": "Synthetic Example Data Generation"
        },
        "policy": [
          "https://synderai.net/synderai-synthetic-data-policy"
        ],
        "agent": [
          {
            "type": {
              "text": "author"
            },
            "who": {
              "reference": "Device/7059c67d-ffe8-4cd1-8fc8-dd158361c67b"
            }
          }
        ],
        "reason": [
          {
            "text": "Interoperability Testing and Training (non-clinical use)"
          }
        ],
        "text": {
          "status": "generated",
          "div": "<div xmlns=\"http://www.w3.org/1999/xhtml\">Provenance for SYNDERAI Synthetic Example Data Resource</div>"
        },
        "recorded": "2016-11-06T22:34:53Z"
      }
    },
    {
      "fullUrl": "urn:uuid:3620acd8-dae6-4812-9693-cea106322e58",
      "resource": {
        "resourceType": "PractitionerRole",
        "id": "3620acd8-dae6-4812-9693-cea106322e58",
        "meta": {
          "profile": [
            "http://hl7.eu/fhir/base/StructureDefinition/practitionerRole-eu"
          ]
        },
        "text": {
          "status": "generated",
          "div": "<div xmlns=\"http://www.w3.org/1999/xhtml\">Laboratory Role Id: 3620acd8-dae6-4812-9693-cea106322e58</div>"
        },
        "practitioner": {
          "reference": "urn:uuid:83f0ff41-26d4-4392-85d8-2b51ba10f8aa"
        }
      }
    },
    {
      "fullUrl": "urn:uuid:83f0ff41-26d4-4392-85d8-2b51ba10f8aa",
      "resource": {
        "resourceType": "Practitioner",
        "id": "83f0ff41-26d4-4392-85d8-2b51ba10f8aa",
        "meta": {
          "profile": [
            "http://hl7.eu/fhir/base/StructureDefinition/practitioner-eu"
          ]
        },
        "identifier": [
          {
            "assigner": {
              "display": "HL7 Europe"
            },
            "system": "urn:oid:2.16.840.1.113883.2.51.999",
            "value": "3695bee8-1c51-4acf-b355-7ccc56c2a5e1"
          }
        ],
        "name": [
          {
            "prefix": [
              "dr"
            ],
            "given": [
              "Ex"
            ],
            "family": "Ample"
          }
        ],
        "address": [
          {
            "line": [
              "Laboratoire Central Européenne",
              "Boulevard du Jardin Botanique 32"
            ],
            "postalCode": "1000",
            "city": "Brussels",
            "country": "Belgium"
          }
        ],
        "text": {
          "status": "generated",
          "div": "<div xmlns=\"http://www.w3.org/1999/xhtml\">Laboratory: Laboratoire Central Européenne, 1000 Brussels, Belgium</div>"
        }
      }
    }
  ],
  "type": "document",
  "timestamp": "2016-11-06T22:34:53Z"
}
