{
  "resourceType": "Bundle",
  "id": "c5d0c127-093f-4418-b0bc-9fc780f206d1",
  "meta": {
    "profile": [
      "http://hl7.eu/fhir/laboratory/StructureDefinition/Bundle-eu-lab"
    ]
  },
  "identifier": {
    "assigner": {
      "display": "HL7 Europe"
    },
    "system": "urn:oid:2.16.840.1.113883.2.51.999",
    "value": "8111da24-42b9-421d-9e7d-cd3bf3ee3765"
  },
  "entry": [
    {
      "fullUrl": "urn:uuid:38619974-3823-4f70-bfe2-11d51dfd0a38",
      "resource": {
        "resourceType": "Composition",
        "id": "38619974-3823-4f70-bfe2-11d51dfd0a38",
        "meta": {
          "profile": [
            "http://hl7.eu/fhir/laboratory/StructureDefinition/Composition-eu-lab"
          ]
        },
        "identifier": {
          "assigner": {
            "display": "HL7 Europe"
          },
          "system": "urn:oid:2.16.840.1.113883.2.51.999",
          "value": "78458ab2-e3f4-4edb-8601-8b9cded136bc"
        },
        "author": [
          {
            "reference": "urn:uuid:5aa044f0-2268-42f7-aed3-feca17762be7"
          }
        ],
        "category": [
          {
            "coding": [
              {
                "code": "26436-6",
                "system": "http://loinc.org",
                "display": "Laboratory studies (set)"
              }
            ]
          }
        ],
        "type": {
          "coding": [
            {
              "code": "11502-2",
              "system": "http://loinc.org",
              "display": "Laboratory report"
            }
          ],
          "text": "Laboratory Report"
        },
        "section": [
          {
            "code": {
              "coding": [
                {
                  "code": "26436-6",
                  "system": "http://loinc.org",
                  "display": "Laboratory studies (set)"
                }
              ],
              "text": "Laboratory studies"
            },
            "section": [
              {
                "code": {
                  "coding": [
                    {
                      "code": "$18719-5",
                      "system": "http://loinc.org",
                      "display": "Chemistry studies (set)"
                    }
                  ],
                  "text": "Chemistry"
                },
                "entry": [
                  {
                    "reference": "urn:uuid:5e0fc3ac-aabb-438e-8074-38a4756ef73b"
                  },
                  {
                    "reference": "urn:uuid:1481da5b-48f4-4c39-ad4f-0f2b66a8dc71"
                  },
                  {
                    "reference": "urn:uuid:f7b5a86d-2d2e-4967-ac8b-305df66dceaa"
                  },
                  {
                    "reference": "urn:uuid:309599dd-c4e4-475a-9287-855b7ed88815"
                  },
                  {
                    "reference": "urn:uuid:a78d9450-571f-45e6-b0a8-38a0ed375a3b"
                  },
                  {
                    "reference": "urn:uuid:8478b4c3-60a9-4626-a751-7dfea68c9144"
                  },
                  {
                    "reference": "urn:uuid:52775789-2d0e-42e7-b775-73d6bf87a8dd"
                  },
                  {
                    "reference": "urn:uuid:7b6247a0-28b3-472b-a12a-40699f363d95"
                  },
                  {
                    "reference": "urn:uuid:21136c7b-ac5d-47ae-b9f3-52420f41989e"
                  },
                  {
                    "reference": "urn:uuid:96bb6f17-f5be-401e-952b-d3f3036d8d3c"
                  },
                  {
                    "reference": "urn:uuid:b600664e-8b06-4a25-8f25-4f9f5a4fc583"
                  },
                  {
                    "reference": "urn:uuid:276866dc-b443-4ffb-beeb-e549e474223f"
                  },
                  {
                    "reference": "urn:uuid:0afea123-9e95-44bc-8a67-5b2804bc060d"
                  },
                  {
                    "reference": "urn:uuid:754e6802-da70-4f74-93f5-d09174b5a50f"
                  },
                  {
                    "reference": "urn:uuid:d60ac52f-6305-4087-9ae7-0750c6c4c58b"
                  },
                  {
                    "reference": "urn:uuid:6878dbf4-3174-4848-9c32-3ed63b4f1752"
                  },
                  {
                    "reference": "urn:uuid:2866ef3b-241b-43e5-9c6a-ba5de9c425b3"
                  },
                  {
                    "reference": "urn:uuid:fdd67ce3-19bd-4747-aa33-17bb380f48d6"
                  }
                ],
                "text": {
                  "status": "generated",
                  "div": "<div xmlns=\"http://www.w3.org/1999/xhtml\"><h3>Chemistry</h3><table class=\"hl7__eu__lab__report\"><thead><tr><th>Test</th><th>19-JUL-2022</th><th>Reference&#xA0;Range</th><th>Unit</th></tr></thead><tbody><tr><td>Glucose [Mass/volume] in Serum or Plasma</td><td>97.7</td><td>70 - 99</td><td>mg/dL</td></tr><tr><td>Urea nitrogen [Mass/volume] in Serum or Plasma</td><td>18.4</td><td>7 - 50</td><td>mg/dL</td></tr><tr><td>Creatinine [Mass/volume] in Serum or Plasma</td><td><strong>2.0 H</strong></td><td>0.6 - 1.1</td><td>mg/dL</td></tr><tr><td>Calcium [Mass/volume] in Serum or Plasma</td><td>9.9</td><td>8.6 - 10.4</td><td>mg/dL</td></tr><tr><td>Sodium [Moles/volume] in Serum or Plasma</td><td>139.9</td><td>135 - 145</td><td>mmol/L</td></tr><tr><td>Potassium [Moles/volume] in Serum or Plasma</td><td>5.0</td><td>3.5 - 5.1</td><td>mmol/L</td></tr><tr><td>Chloride [Moles/volume] in Serum or Plasma</td><td>107.5</td><td>98 - 108</td><td>mmol/L</td></tr><tr><td>Carbon dioxide, total [Moles/volume] in Serum or Plasma</td><td>25.7</td><td>22 - 32</td><td>mmol/L</td></tr><tr><td>Ketones [Presence] in Urine by Test strip</td><td>Urine ketone test = ++</td><td></td><td></td></tr><tr><td>Hemoglobin A1c/Hemoglobin.total in Blood</td><td><strong>3.3 L</strong></td><td>4 - 6.4</td><td>%</td></tr><tr><td>Glucose [Mass/volume] in Blood</td><td>97.7</td><td>70 - 100</td><td>mg/dL</td></tr><tr><td>Urea nitrogen [Mass/volume] in Blood</td><td>18.4</td><td>7 - 43</td><td>mg/dL</td></tr><tr><td>Creatinine [Mass/volume] in Blood</td><td><strong>3.9 H</strong></td><td>0.6 - 1.1</td><td>mg/dL</td></tr><tr><td>Calcium [Mass/volume] in Blood</td><td>9.9</td><td>8.5 - 10.5</td><td>mg/dL</td></tr><tr><td>Sodium [Moles/volume] in Blood</td><td>139.9</td><td>135 - 145</td><td>mmol/L</td></tr><tr><td>Potassium [Moles/volume] in Blood</td><td>5.0</td><td>3.5 - 5.1</td><td>mmol/L</td></tr><tr><td>Chloride [Moles/volume] in Blood</td><td>107.5</td><td>98 - 108</td><td>mmol/L</td></tr><tr><td>Carbon dioxide, total [Moles/volume] in Blood</td><td>25.7</td><td>22 - 29</td><td>mmol/L</td></tr></tbody></table></div>"
                },
                "title": "Chemistry"
              },
              {
                "code": {
                  "coding": [
                    {
                      "code": "$18729-4",
                      "system": "http://loinc.org",
                      "display": "Urinalysis studies (set)"
                    }
                  ],
                  "text": "Urinalysis"
                },
                "entry": [
                  {
                    "reference": "urn:uuid:8964b19d-735f-4241-bf87-93131996af8e"
                  },
                  {
                    "reference": "urn:uuid:42ccd578-5db4-4fef-adcd-53765d334c05"
                  },
                  {
                    "reference": "urn:uuid:0154738c-be08-4a49-a3d6-cfc6e16bed4a"
                  },
                  {
                    "reference": "urn:uuid:bfbcf311-4796-405a-b245-04b0187123fc"
                  },
                  {
                    "reference": "urn:uuid:aaa73901-263d-4028-bb36-3419c5895048"
                  },
                  {
                    "reference": "urn:uuid:14015f61-27a9-411a-bbc9-b478565a7b45"
                  },
                  {
                    "reference": "urn:uuid:84772651-f4a3-446f-a32d-6a14006b16b7"
                  },
                  {
                    "reference": "urn:uuid:8a3d7c1f-bc8f-4606-8699-df3695c61aea"
                  },
                  {
                    "reference": "urn:uuid:6119adf8-0ddc-43b1-8fa9-2ddd8788b481"
                  },
                  {
                    "reference": "urn:uuid:db5e8597-ee59-4336-8dfb-a694f61c9b4e"
                  },
                  {
                    "reference": "urn:uuid:f6a2d76d-1810-4f3a-99c5-ede17679af80"
                  },
                  {
                    "reference": "urn:uuid:4d1b7514-f168-4767-84cd-7a7442e3c26c"
                  }
                ],
                "text": {
                  "status": "generated",
                  "div": "<div xmlns=\"http://www.w3.org/1999/xhtml\"><h3>Urinalysis</h3><table class=\"hl7__eu__lab__report\"><thead><tr><th>Test</th><th>19-JUL-2022</th><th>Reference&#xA0;Range</th><th>Unit</th></tr></thead><tbody><tr><td>Glucose [Mass/volume] in Urine by Test strip</td><td><strong>1.6 H</strong></td><td>0.8 - 0</td><td>mg/dL</td></tr><tr><td>Glucose [Presence] in Urine by Test strip</td><td>++</td><td></td><td></td></tr><tr><td>Bilirubin.total [Mass/volume] in Urine by Test strip</td><td>0.8</td><td>0 - 1</td><td>mg/dL</td></tr><tr><td>Bilirubin.total [Presence] in Urine by Test strip</td><td>Finding of bilirubin in urine</td><td></td><td></td></tr><tr><td>Ketones [Mass/volume] in Urine by Test strip</td><td><strong>16.9 H</strong></td><td>0 - 4</td><td>mg/dL</td></tr><tr><td>Specific gravity of Urine by Test strip</td><td><strong>1.0 L</strong></td><td>1.005 - 1.03</td><td>{nominal}</td></tr><tr><td>pH of Urine by Test strip</td><td>6.0</td><td>4.6 - 7</td><td>pH</td></tr><tr><td>Protein [Mass/volume] in Urine by Test strip</td><td><strong>260.7 H</strong></td><td>0 - 14</td><td>mg/dL</td></tr><tr><td>Protein [Presence] in Urine by Test strip</td><td>Urine protein test = ++</td><td></td><td></td></tr><tr><td>Nitrite [Presence] in Urine by Test strip</td><td>Urine nitrite negative</td><td></td><td></td></tr><tr><td>Hemoglobin [Presence] in Urine by Test strip</td><td>Urine blood test = negative</td><td></td><td></td></tr><tr><td>Leukocyte esterase [Presence] in Urine by Test strip</td><td>Urine leukocyte test negative</td><td></td><td></td></tr></tbody></table></div>"
                },
                "title": "Urinalysis"
              },
              {
                "code": {
                  "coding": [
                    {
                      "code": "$LP7846-1",
                      "system": "http://loinc.org",
                      "display": "Specimen information"
                    }
                  ],
                  "text": "Specimen information"
                },
                "entry": [
                  {
                    "reference": "urn:uuid:cc074d14-d463-4d9b-9c80-48295c5291b8"
                  },
                  {
                    "reference": "urn:uuid:23fdfd7f-3994-4cbc-a819-83409294d095"
                  },
                  {
                    "reference": "urn:uuid:e7bbc02a-68fb-4228-8fa2-483d523b1d84"
                  },
                  {
                    "reference": "urn:uuid:df1a0fb0-08ba-4d5e-b199-9b95f5cdce21"
                  }
                ],
                "text": {
                  "status": "generated",
                  "div": "<div xmlns=\"http://www.w3.org/1999/xhtml\"><h3>Specimen information</h3><table class=\"hl7__eu__lab__report\"><thead><tr><th>Test</th><th>19-JUL-2022</th><th>Specimen</th><th></th></tr></thead><tbody><tr><td>Appearance of Urine</td><td>Cloudy urine</td><td>Urine</td><td></td></tr><tr><td>Odor of Urine</td><td>Urine smell ammoniacal</td><td>Urine</td><td></td></tr><tr><td>Clarity of Urine</td><td>Translucent</td><td>Urine</td><td></td></tr><tr><td>Color of Urine</td><td>Brown color</td><td>Urine</td><td></td></tr></tbody></table></div>"
                },
                "title": "Specimen information"
              }
            ],
            "title": "Laboratory Report"
          },
          {
            "text": {
              "status": "generated",
              "div": "<div xmlns=\"http://www.w3.org/1999/xhtml\"><h3>Annotation</h3><table class=\"hl7__eu__lab__report\"><tr><th>Conclusion and Recommendations based on this report and previous findings known to us</th></tr><tr><td>The patient shows significantly elevated creatinine in both serum and blood, indicating impaired renal function. Urinalysis reveals marked proteinuria, glucosuria, ketonuria, low specific gravity, and abnormal urine appearance (cloudy, brown, ammoniacal), suggesting possible nephrotic syndrome or advanced diabetic nephropathy, though HbA1c is low. No evidence of urinary infection. Immediate nephrology evaluation is recommended for further assessment and management.</td></tr></table></div>"
            },
            "code": {
              "coding": [
                {
                  "system": "http://loinc.org",
                  "code": "48767-8",
                  "display": "Annotation comment"
                }
              ]
            },
            "title": "Annotation comment"
          }
        ],
        "status": "final",
        "subject": {
          "reference": "urn:uuid:9257ac8f-83d0-489a-a240-bd03813e14e2",
          "display": "Meaghan Neary"
        },
        "date": "2022-07-19T00:11:04Z",
        "title": "Laboratory Report",
        "confidentiality": "N"
      }
    },
    {
      "fullUrl": "urn:uuid:862d4920-bcc8-4d30-8d64-e4915c1330fc",
      "resource": {
        "resourceType": "DiagnosticReport",
        "id": "862d4920-bcc8-4d30-8d64-e4915c1330fc",
        "meta": {
          "profile": [
            "http://hl7.eu/fhir/laboratory/StructureDefinition/DiagnosticReport-eu-lab"
          ]
        },
        "identifier": [
          {
            "assigner": {
              "display": "HL7 Europe"
            },
            "system": "urn:oid:2.16.840.1.113883.2.51.999",
            "value": "49dc9836-c694-4e7b-8ba6-25cd485a6063"
          }
        ],
        "extension": [
          {
            "url": "http://hl7.org/fhir/5.0/StructureDefinition/extension-DiagnosticReport.composition",
            "valueReference": {
              "reference": "urn:uuid:78458ab2-e3f4-4edb-8601-8b9cded136bc"
            }
          }
        ],
        "category": [
          {
            "coding": [
              {
                "code": "26436-6",
                "system": "http://loinc.org",
                "display": "Laboratory studies (set)"
              }
            ]
          }
        ],
        "specimen": [
          {
            "reference": "urn:uuid:cdac2c56-9ffa-4d3c-8c2b-e6895ac7e53a"
          },
          {
            "reference": "urn:uuid:2b027e4b-0c36-4959-a880-4c1b7f5ac7ae"
          },
          {
            "reference": "urn:uuid:5cb45b9b-9c74-4915-aee4-71c76da20332"
          }
        ],
        "result": [
          {
            "reference": "urn:uuid:5e0fc3ac-aabb-438e-8074-38a4756ef73b"
          },
          {
            "reference": "urn:uuid:1481da5b-48f4-4c39-ad4f-0f2b66a8dc71"
          },
          {
            "reference": "urn:uuid:f7b5a86d-2d2e-4967-ac8b-305df66dceaa"
          },
          {
            "reference": "urn:uuid:309599dd-c4e4-475a-9287-855b7ed88815"
          },
          {
            "reference": "urn:uuid:a78d9450-571f-45e6-b0a8-38a0ed375a3b"
          },
          {
            "reference": "urn:uuid:8478b4c3-60a9-4626-a751-7dfea68c9144"
          },
          {
            "reference": "urn:uuid:52775789-2d0e-42e7-b775-73d6bf87a8dd"
          },
          {
            "reference": "urn:uuid:7b6247a0-28b3-472b-a12a-40699f363d95"
          },
          {
            "reference": "urn:uuid:cc074d14-d463-4d9b-9c80-48295c5291b8"
          },
          {
            "reference": "urn:uuid:23fdfd7f-3994-4cbc-a819-83409294d095"
          },
          {
            "reference": "urn:uuid:e7bbc02a-68fb-4228-8fa2-483d523b1d84"
          },
          {
            "reference": "urn:uuid:df1a0fb0-08ba-4d5e-b199-9b95f5cdce21"
          },
          {
            "reference": "urn:uuid:8964b19d-735f-4241-bf87-93131996af8e"
          },
          {
            "reference": "urn:uuid:42ccd578-5db4-4fef-adcd-53765d334c05"
          },
          {
            "reference": "urn:uuid:0154738c-be08-4a49-a3d6-cfc6e16bed4a"
          },
          {
            "reference": "urn:uuid:bfbcf311-4796-405a-b245-04b0187123fc"
          },
          {
            "reference": "urn:uuid:aaa73901-263d-4028-bb36-3419c5895048"
          },
          {
            "reference": "urn:uuid:21136c7b-ac5d-47ae-b9f3-52420f41989e"
          },
          {
            "reference": "urn:uuid:14015f61-27a9-411a-bbc9-b478565a7b45"
          },
          {
            "reference": "urn:uuid:84772651-f4a3-446f-a32d-6a14006b16b7"
          },
          {
            "reference": "urn:uuid:8a3d7c1f-bc8f-4606-8699-df3695c61aea"
          },
          {
            "reference": "urn:uuid:6119adf8-0ddc-43b1-8fa9-2ddd8788b481"
          },
          {
            "reference": "urn:uuid:db5e8597-ee59-4336-8dfb-a694f61c9b4e"
          },
          {
            "reference": "urn:uuid:f6a2d76d-1810-4f3a-99c5-ede17679af80"
          },
          {
            "reference": "urn:uuid:4d1b7514-f168-4767-84cd-7a7442e3c26c"
          },
          {
            "reference": "urn:uuid:96bb6f17-f5be-401e-952b-d3f3036d8d3c"
          },
          {
            "reference": "urn:uuid:b600664e-8b06-4a25-8f25-4f9f5a4fc583"
          },
          {
            "reference": "urn:uuid:276866dc-b443-4ffb-beeb-e549e474223f"
          },
          {
            "reference": "urn:uuid:0afea123-9e95-44bc-8a67-5b2804bc060d"
          },
          {
            "reference": "urn:uuid:754e6802-da70-4f74-93f5-d09174b5a50f"
          },
          {
            "reference": "urn:uuid:d60ac52f-6305-4087-9ae7-0750c6c4c58b"
          },
          {
            "reference": "urn:uuid:6878dbf4-3174-4848-9c32-3ed63b4f1752"
          },
          {
            "reference": "urn:uuid:2866ef3b-241b-43e5-9c6a-ba5de9c425b3"
          },
          {
            "reference": "urn:uuid:fdd67ce3-19bd-4747-aa33-17bb380f48d6"
          }
        ],
        "status": "registered",
        "code": {
          "coding": [
            {
              "code": "11502-2",
              "system": "http://loinc.org",
              "display": "Laboratory report"
            }
          ]
        },
        "subject": {
          "reference": "urn:uuid:9257ac8f-83d0-489a-a240-bd03813e14e2",
          "display": "Meaghan Neary"
        }
      }
    },
    {
      "fullUrl": "urn:uuid:9257ac8f-83d0-489a-a240-bd03813e14e2",
      "resource": {
        "resourceType": "Patient",
        "id": "9257ac8f-83d0-489a-a240-bd03813e14e2",
        "meta": {
          "security": [
            {
              "system": "http://terminology.hl7.org/CodeSystem/v3-ActReason",
              "code": "HTEST"
            },
            {
              "system": "http://terminology.hl7.org/CodeSystem/v3-ActReason",
              "code": "TRAIN"
            }
          ],
          "tag": [
            {
              "system": "https://synderai.net/fhir/CodeSystem/tags",
              "code": "synthetic",
              "display": "SYNDERAI Synthetic data"
            }
          ],
          "profile": [
            "http://hl7.eu/fhir/base/StructureDefinition/patient-eu-core"
          ]
        },
        "identifier": [
          {
            "type": {
              "coding": [
                {
                  "code": "PT",
                  "system": "http://terminology.hl7.org/CodeSystem/v2-0203"
                }
              ]
            },
            "system": "http://ec.europa.eu/identifier/eci",
            "value": "1586-567257-8"
          },
          {
            "type": {
              "coding": [
                {
                  "code": "MR",
                  "system": "http://terminology.hl7.org/CodeSystem/v2-0203"
                }
              ]
            },
            "system": "http://local.setting.eu/identifier",
            "value": "443e6379-f231-b364-3ccb-644740a1aa2a"
          }
        ],
        "name": [
          {
            "family": "Neary"
          },
          {
            "given": [
              "Meaghan"
            ]
          },
          {
            "text": "Meaghan Neary"
          }
        ],
        "address": [
          {
            "line": [
              "64 Linskey Street"
            ],
            "use": "home",
            "type": "physical",
            "postalCode": "D02",
            "city": "Dublin",
            "country": "Ireland"
          }
        ],
        "telecom": [
          {
            "system": "phone",
            "value": "001-967-573-0911x465"
          }
        ],
        "extension": [
          {
            "url": "http://hl7.org/fhir/StructureDefinition/patient-nationality",
            "valueCodeableConcept": {
              "coding": [
                {
                  "code": "IE",
                  "system": "http://hl7.org/fhir/ValueSet/country"
                }
              ]
            }
          }
        ],
        "text": {
          "status": "generated",
          "div": "<div xmlns=\"http://www.w3.org/1999/xhtml\"><table class=\"hl7__ips\"><tr><td>Meaghan Neary</td><td>female</td><td>19-Dec-1960</td></tr></table></div>"
        },
        "gender": "female",
        "birthDate": "1960-12-19"
      }
    },
    {
      "fullUrl": "urn:uuid:72fc49df-aeeb-45b1-b2f9-36d079363f7b",
      "resource": {
        "resourceType": "ServiceRequest",
        "id": "72fc49df-aeeb-45b1-b2f9-36d079363f7b",
        "meta": {
          "profile": [
            "http://hl7.eu/fhir/laboratory/StructureDefinition/ServiceRequest-eu-lab"
          ]
        },
        "identifier": [
          {
            "system": "http://example.org",
            "value": "62d5a15b-84d6-4fdb-9e54-7ef7bfe7594e"
          }
        ],
        "specimen": [
          {
            "reference": "urn:uuid:cdac2c56-9ffa-4d3c-8c2b-e6895ac7e53a"
          },
          {
            "reference": "urn:uuid:2b027e4b-0c36-4959-a880-4c1b7f5ac7ae"
          },
          {
            "reference": "urn:uuid:5cb45b9b-9c74-4915-aee4-71c76da20332"
          }
        ],
        "reasonCode": [
          {
            "coding": [
              {
                "code": "55822004",
                "system": "http://snomed.info/sct",
                "display": "Hyperlipidemia"
              }
            ]
          },
          {
            "coding": [
              {
                "code": "433144002",
                "system": "http://snomed.info/sct",
                "display": "Chronic kidney disease stage 3"
              }
            ]
          },
          {
            "coding": [
              {
                "code": "157141000119108",
                "system": "http://snomed.info/sct",
                "display": "Proteinuria due to type 2 diabetes mellitus"
              }
            ]
          },
          {
            "coding": [
              {
                "code": "431856006",
                "system": "http://snomed.info/sct",
                "display": "Chronic kidney disease stage 2"
              }
            ]
          },
          {
            "coding": [
              {
                "code": "90781000119102",
                "system": "http://snomed.info/sct",
                "display": "Microalbuminuria due to type 2 diabetes mellitus"
              }
            ]
          },
          {
            "coding": [
              {
                "code": "127013003",
                "system": "http://snomed.info/sct",
                "display": "Disorder of kidney due to diabetes mellitus"
              }
            ]
          },
          {
            "coding": [
              {
                "code": "431855005",
                "system": "http://snomed.info/sct",
                "display": "Chronic kidney disease stage 1"
              }
            ]
          },
          {
            "coding": [
              {
                "code": "237602007",
                "system": "http://snomed.info/sct",
                "display": "Metabolic syndrome X"
              }
            ]
          },
          {
            "coding": [
              {
                "code": "271737000",
                "system": "http://snomed.info/sct",
                "display": "Anemia"
              }
            ]
          },
          {
            "coding": [
              {
                "code": "15777000",
                "system": "http://snomed.info/sct",
                "display": "Prediabetes"
              }
            ]
          },
          {
            "coding": [
              {
                "code": "59621000",
                "system": "http://snomed.info/sct",
                "display": "Essential hypertension"
              }
            ]
          }
        ],
        "status": "active",
        "intent": "order",
        "code": {
          "coding": [
            {
              "code": "108252007",
              "system": "http://snomed.info/sct",
              "display": "Laboratory procedure"
            }
          ]
        },
        "subject": {
          "reference": "urn:uuid:9257ac8f-83d0-489a-a240-bd03813e14e2",
          "display": "Meaghan Neary"
        },
        "requester": {
          "reference": "urn:uuid:7d19c860-548b-4bb3-90da-d6bbf4d1bf1b"
        }
      }
    },
    {
      "fullUrl": "urn:uuid:7d19c860-548b-4bb3-90da-d6bbf4d1bf1b",
      "resource": {
        "resourceType": "PractitionerRole",
        "id": "7d19c860-548b-4bb3-90da-d6bbf4d1bf1b",
        "meta": {
          "profile": [
            "http://hl7.eu/fhir/base/StructureDefinition/practitionerRole-eu"
          ]
        },
        "text": {
          "status": "generated",
          "div": "<div xmlns=\"http://www.w3.org/1999/xhtml\">Provider Role Id: 7d19c860-548b-4bb3-90da-d6bbf4d1bf1b</div>"
        },
        "organization": {
          "reference": "urn:uuid:039b4303-b16c-4137-9512-df0f7e84db87"
        }
      }
    },
    {
      "fullUrl": "urn:uuid:039b4303-b16c-4137-9512-df0f7e84db87",
      "resource": {
        "resourceType": "Organization",
        "id": "039b4303-b16c-4137-9512-df0f7e84db87",
        "meta": {
          "profile": [
            "http://hl7.eu/fhir/base/StructureDefinition/organization-eu"
          ]
        },
        "identifier": [
          {
            "assigner": {
              "display": "HL7 Europe"
            },
            "system": "urn:oid:2.16.840.1.113883.2.51.999",
            "value": "6a185892-057f-4390-a752-f1eb53ea641b"
          }
        ],
        "address": [
          {
            "line": [
              "Parnell Square West nan"
            ],
            "city": "Dublin",
            "postalCode": "D01",
            "country": "Ireland"
          }
        ],
        "text": {
          "status": "generated",
          "div": "<div xmlns=\"http://www.w3.org/1999/xhtml\">Provider Organization: Rotunda Hospital</div>"
        },
        "name": "Rotunda Hospital"
      }
    },
    {
      "fullUrl": "urn:uuid:cdac2c56-9ffa-4d3c-8c2b-e6895ac7e53a",
      "resource": {
        "resourceType": "Specimen",
        "id": "cdac2c56-9ffa-4d3c-8c2b-e6895ac7e53a",
        "meta": {
          "profile": [
            "http://hl7.eu/fhir/laboratory/StructureDefinition/Specimen-eu-lab"
          ]
        },
        "collection": {
          "collectedDateTime": "2022-07-18"
        },
        "text": {
          "status": "generated",
          "div": "<div xmlns=\"http://www.w3.org/1999/xhtml\"><table class=\"hl7__eu__lab__report\"><tr><th>Specimen</th><th>Collection Date</th></tr><tr><td>Acellular blood (serum or plasma) specimen</td><td><span class=\"nb\">18-Jul-2022</span></td></tr></table></div>"
        },
        "type": {
          "coding": [
            {
              "code": "122592007",
              "system": "http://snomed.info/sct",
              "display": "Acellular blood (serum or plasma) specimen"
            }
          ]
        }
      }
    },
    {
      "fullUrl": "urn:uuid:2b027e4b-0c36-4959-a880-4c1b7f5ac7ae",
      "resource": {
        "resourceType": "Specimen",
        "id": "2b027e4b-0c36-4959-a880-4c1b7f5ac7ae",
        "meta": {
          "profile": [
            "http://hl7.eu/fhir/laboratory/StructureDefinition/Specimen-eu-lab"
          ]
        },
        "collection": {
          "collectedDateTime": "2022-07-18"
        },
        "text": {
          "status": "generated",
          "div": "<div xmlns=\"http://www.w3.org/1999/xhtml\"><table class=\"hl7__eu__lab__report\"><tr><th>Specimen</th><th>Collection Date</th></tr><tr><td>Urine specimen</td><td><span class=\"nb\">18-Jul-2022</span></td></tr></table></div>"
        },
        "type": {
          "coding": [
            {
              "code": "122575003",
              "system": "http://snomed.info/sct",
              "display": "Urine specimen"
            }
          ]
        }
      }
    },
    {
      "fullUrl": "urn:uuid:5cb45b9b-9c74-4915-aee4-71c76da20332",
      "resource": {
        "resourceType": "Specimen",
        "id": "5cb45b9b-9c74-4915-aee4-71c76da20332",
        "meta": {
          "profile": [
            "http://hl7.eu/fhir/laboratory/StructureDefinition/Specimen-eu-lab"
          ]
        },
        "collection": {
          "collectedDateTime": "2022-07-18"
        },
        "text": {
          "status": "generated",
          "div": "<div xmlns=\"http://www.w3.org/1999/xhtml\"><table class=\"hl7__eu__lab__report\"><tr><th>Specimen</th><th>Collection Date</th></tr><tr><td>Whole blood specimen (specimen)</td><td><span class=\"nb\">18-Jul-2022</span></td></tr></table></div>"
        },
        "type": {
          "coding": [
            {
              "code": "258580003",
              "system": "http://snomed.info/sct",
              "display": "Whole blood specimen (specimen)"
            }
          ]
        }
      }
    },
    {
      "fullUrl": "urn:uuid:5e0fc3ac-aabb-438e-8074-38a4756ef73b",
      "resource": {
        "resourceType": "Observation",
        "id": "5e0fc3ac-aabb-438e-8074-38a4756ef73b",
        "meta": {
          "profile": [
            "http://hl7.eu/fhir/laboratory/StructureDefinition/Observation-resultslab-eu-lab"
          ]
        },
        "performer": [
          {
            "display": "The Central European Lab"
          }
        ],
        "category": [
          {
            "coding": [
              {
                "system": "http://terminology.hl7.org/CodeSystem/observation-category",
                "code": "laboratory"
              }
            ]
          }
        ],
        "code": {
          "coding": [
            {
              "code": "2345-7",
              "system": "http://loinc.org",
              "display": "Glucose [Mass/volume] in Serum or Plasma"
            }
          ],
          "text": "Glucose [Mass/volume] in Serum or Plasma"
        },
        "valueQuantity": {
          "system": "http://unitsofmeasure.org",
          "value": 97.7,
          "unit": "mg/dL",
          "code": "mg/dL"
        },
        "referenceRange": [
          {
            "low": {
              "value": 70,
              "code": "mg/dL",
              "system": "http://unitsofmeasure.org"
            }
          },
          {
            "high": {
              "value": 99,
              "code": "mg/dL",
              "system": "http://unitsofmeasure.org"
            }
          }
        ],
        "text": {
          "status": "generated",
          "div": "<div xmlns=\"http://www.w3.org/1999/xhtml\"><table class=\"hl7__eu__lab__report\"><tr><th>Test</th><th>19-Jul-2022</th><th>Reference&#xA0;Range</th><th>Unit</th></tr><tr><td>Glucose [Mass/volume] in Serum or Plasma</td><td>97.7</td><td>70 - 99</td><td></td><td>mg/dL</td></tr></table></div>"
        },
        "status": "final",
        "subject": {
          "reference": "urn:uuid:9257ac8f-83d0-489a-a240-bd03813e14e2",
          "display": "Meaghan Neary"
        },
        "effectiveDateTime": "2022-07-18T22:11:04Z",
        "specimen": {
          "reference": "urn:uuid:cdac2c56-9ffa-4d3c-8c2b-e6895ac7e53a"
        }
      }
    },
    {
      "fullUrl": "urn:uuid:1481da5b-48f4-4c39-ad4f-0f2b66a8dc71",
      "resource": {
        "resourceType": "Observation",
        "id": "1481da5b-48f4-4c39-ad4f-0f2b66a8dc71",
        "meta": {
          "profile": [
            "http://hl7.eu/fhir/laboratory/StructureDefinition/Observation-resultslab-eu-lab"
          ]
        },
        "performer": [
          {
            "display": "The Central European Lab"
          }
        ],
        "category": [
          {
            "coding": [
              {
                "system": "http://terminology.hl7.org/CodeSystem/observation-category",
                "code": "laboratory"
              }
            ]
          }
        ],
        "code": {
          "coding": [
            {
              "code": "3094-0",
              "system": "http://loinc.org",
              "display": "Urea nitrogen [Mass/volume] in Serum or Plasma"
            }
          ],
          "text": "Urea nitrogen [Mass/volume] in Serum or Plasma"
        },
        "valueQuantity": {
          "system": "http://unitsofmeasure.org",
          "value": 18.4,
          "unit": "mg/dL",
          "code": "mg/dL"
        },
        "referenceRange": [
          {
            "low": {
              "value": 7,
              "code": "mg/dL",
              "system": "http://unitsofmeasure.org"
            }
          },
          {
            "high": {
              "value": 50,
              "code": "mg/dL",
              "system": "http://unitsofmeasure.org"
            }
          }
        ],
        "text": {
          "status": "generated",
          "div": "<div xmlns=\"http://www.w3.org/1999/xhtml\"><table class=\"hl7__eu__lab__report\"><tr><th>Test</th><th>19-Jul-2022</th><th>Reference&#xA0;Range</th><th>Unit</th></tr><tr><td>Urea nitrogen [Mass/volume] in Serum or Plasma</td><td>18.4</td><td>7 - 50</td><td></td><td>mg/dL</td></tr></table></div>"
        },
        "status": "final",
        "subject": {
          "reference": "urn:uuid:9257ac8f-83d0-489a-a240-bd03813e14e2",
          "display": "Meaghan Neary"
        },
        "effectiveDateTime": "2022-07-18T22:11:04Z",
        "specimen": {
          "reference": "urn:uuid:cdac2c56-9ffa-4d3c-8c2b-e6895ac7e53a"
        }
      }
    },
    {
      "fullUrl": "urn:uuid:f7b5a86d-2d2e-4967-ac8b-305df66dceaa",
      "resource": {
        "resourceType": "Observation",
        "id": "f7b5a86d-2d2e-4967-ac8b-305df66dceaa",
        "meta": {
          "profile": [
            "http://hl7.eu/fhir/laboratory/StructureDefinition/Observation-resultslab-eu-lab"
          ]
        },
        "performer": [
          {
            "display": "The Central European Lab"
          }
        ],
        "category": [
          {
            "coding": [
              {
                "system": "http://terminology.hl7.org/CodeSystem/observation-category",
                "code": "laboratory"
              }
            ]
          }
        ],
        "code": {
          "coding": [
            {
              "code": "2160-0",
              "system": "http://loinc.org",
              "display": "Creatinine [Mass/volume] in Serum or Plasma"
            }
          ],
          "text": "Creatinine [Mass/volume] in Serum or Plasma"
        },
        "valueQuantity": {
          "system": "http://unitsofmeasure.org",
          "value": 2,
          "unit": "mg/dL",
          "code": "mg/dL"
        },
        "referenceRange": [
          {
            "low": {
              "value": 0.6,
              "code": "mg/dL",
              "system": "http://unitsofmeasure.org"
            }
          },
          {
            "high": {
              "value": 1.1,
              "code": "mg/dL",
              "system": "http://unitsofmeasure.org"
            }
          }
        ],
        "interpretation": [
          {
            "coding": [
              {
                "code": "H",
                "system": "http://terminology.hl7.org/CodeSystem/v3-ObservationInterpretation",
                "display": "High"
              }
            ]
          }
        ],
        "text": {
          "status": "generated",
          "div": "<div xmlns=\"http://www.w3.org/1999/xhtml\"><table class=\"hl7__eu__lab__report\"><tr><th>Test</th><th>19-Jul-2022</th><th>Reference&#xA0;Range</th><th>Unit</th></tr><tr><td>Creatinine [Mass/volume] in Serum or Plasma</td><td>2.0</td><td>0.6 - 1.1</td><td>H</td><td>mg/dL</td></tr></table></div>"
        },
        "status": "final",
        "subject": {
          "reference": "urn:uuid:9257ac8f-83d0-489a-a240-bd03813e14e2",
          "display": "Meaghan Neary"
        },
        "effectiveDateTime": "2022-07-18T22:11:04Z",
        "specimen": {
          "reference": "urn:uuid:cdac2c56-9ffa-4d3c-8c2b-e6895ac7e53a"
        }
      }
    },
    {
      "fullUrl": "urn:uuid:309599dd-c4e4-475a-9287-855b7ed88815",
      "resource": {
        "resourceType": "Observation",
        "id": "309599dd-c4e4-475a-9287-855b7ed88815",
        "meta": {
          "profile": [
            "http://hl7.eu/fhir/laboratory/StructureDefinition/Observation-resultslab-eu-lab"
          ]
        },
        "performer": [
          {
            "display": "The Central European Lab"
          }
        ],
        "category": [
          {
            "coding": [
              {
                "system": "http://terminology.hl7.org/CodeSystem/observation-category",
                "code": "laboratory"
              }
            ]
          }
        ],
        "code": {
          "coding": [
            {
              "code": "17861-6",
              "system": "http://loinc.org",
              "display": "Calcium [Mass/volume] in Serum or Plasma"
            }
          ],
          "text": "Calcium [Mass/volume] in Serum or Plasma"
        },
        "valueQuantity": {
          "system": "http://unitsofmeasure.org",
          "value": 9.9,
          "unit": "mg/dL",
          "code": "mg/dL"
        },
        "referenceRange": [
          {
            "low": {
              "value": 8.6,
              "code": "mg/dL",
              "system": "http://unitsofmeasure.org"
            }
          },
          {
            "high": {
              "value": 10.4,
              "code": "mg/dL",
              "system": "http://unitsofmeasure.org"
            }
          }
        ],
        "text": {
          "status": "generated",
          "div": "<div xmlns=\"http://www.w3.org/1999/xhtml\"><table class=\"hl7__eu__lab__report\"><tr><th>Test</th><th>19-Jul-2022</th><th>Reference&#xA0;Range</th><th>Unit</th></tr><tr><td>Calcium [Mass/volume] in Serum or Plasma</td><td>9.9</td><td>8.6 - 10.4</td><td></td><td>mg/dL</td></tr></table></div>"
        },
        "status": "final",
        "subject": {
          "reference": "urn:uuid:9257ac8f-83d0-489a-a240-bd03813e14e2",
          "display": "Meaghan Neary"
        },
        "effectiveDateTime": "2022-07-18T22:11:04Z",
        "specimen": {
          "reference": "urn:uuid:cdac2c56-9ffa-4d3c-8c2b-e6895ac7e53a"
        }
      }
    },
    {
      "fullUrl": "urn:uuid:a78d9450-571f-45e6-b0a8-38a0ed375a3b",
      "resource": {
        "resourceType": "Observation",
        "id": "a78d9450-571f-45e6-b0a8-38a0ed375a3b",
        "meta": {
          "profile": [
            "http://hl7.eu/fhir/laboratory/StructureDefinition/Observation-resultslab-eu-lab"
          ]
        },
        "performer": [
          {
            "display": "The Central European Lab"
          }
        ],
        "category": [
          {
            "coding": [
              {
                "system": "http://terminology.hl7.org/CodeSystem/observation-category",
                "code": "laboratory"
              }
            ]
          }
        ],
        "code": {
          "coding": [
            {
              "code": "2951-2",
              "system": "http://loinc.org",
              "display": "Sodium [Moles/volume] in Serum or Plasma"
            }
          ],
          "text": "Sodium [Moles/volume] in Serum or Plasma"
        },
        "valueQuantity": {
          "system": "http://unitsofmeasure.org",
          "value": 139.9,
          "unit": "mmol/L",
          "code": "mmol/L"
        },
        "referenceRange": [
          {
            "low": {
              "value": 135,
              "code": "mmol/L",
              "system": "http://unitsofmeasure.org"
            }
          },
          {
            "high": {
              "value": 145,
              "code": "mmol/L",
              "system": "http://unitsofmeasure.org"
            }
          }
        ],
        "text": {
          "status": "generated",
          "div": "<div xmlns=\"http://www.w3.org/1999/xhtml\"><table class=\"hl7__eu__lab__report\"><tr><th>Test</th><th>19-Jul-2022</th><th>Reference&#xA0;Range</th><th>Unit</th></tr><tr><td>Sodium [Moles/volume] in Serum or Plasma</td><td>139.9</td><td>135 - 145</td><td></td><td>mmol/L</td></tr></table></div>"
        },
        "status": "final",
        "subject": {
          "reference": "urn:uuid:9257ac8f-83d0-489a-a240-bd03813e14e2",
          "display": "Meaghan Neary"
        },
        "effectiveDateTime": "2022-07-18T22:11:04Z",
        "specimen": {
          "reference": "urn:uuid:cdac2c56-9ffa-4d3c-8c2b-e6895ac7e53a"
        }
      }
    },
    {
      "fullUrl": "urn:uuid:8478b4c3-60a9-4626-a751-7dfea68c9144",
      "resource": {
        "resourceType": "Observation",
        "id": "8478b4c3-60a9-4626-a751-7dfea68c9144",
        "meta": {
          "profile": [
            "http://hl7.eu/fhir/laboratory/StructureDefinition/Observation-resultslab-eu-lab"
          ]
        },
        "performer": [
          {
            "display": "The Central European Lab"
          }
        ],
        "category": [
          {
            "coding": [
              {
                "system": "http://terminology.hl7.org/CodeSystem/observation-category",
                "code": "laboratory"
              }
            ]
          }
        ],
        "code": {
          "coding": [
            {
              "code": "2823-3",
              "system": "http://loinc.org",
              "display": "Potassium [Moles/volume] in Serum or Plasma"
            }
          ],
          "text": "Potassium [Moles/volume] in Serum or Plasma"
        },
        "valueQuantity": {
          "system": "http://unitsofmeasure.org",
          "value": 5,
          "unit": "mmol/L",
          "code": "mmol/L"
        },
        "referenceRange": [
          {
            "low": {
              "value": 3.5,
              "code": "mmol/L",
              "system": "http://unitsofmeasure.org"
            }
          },
          {
            "high": {
              "value": 5.1,
              "code": "mmol/L",
              "system": "http://unitsofmeasure.org"
            }
          }
        ],
        "text": {
          "status": "generated",
          "div": "<div xmlns=\"http://www.w3.org/1999/xhtml\"><table class=\"hl7__eu__lab__report\"><tr><th>Test</th><th>19-Jul-2022</th><th>Reference&#xA0;Range</th><th>Unit</th></tr><tr><td>Potassium [Moles/volume] in Serum or Plasma</td><td>5.0</td><td>3.5 - 5.1</td><td></td><td>mmol/L</td></tr></table></div>"
        },
        "status": "final",
        "subject": {
          "reference": "urn:uuid:9257ac8f-83d0-489a-a240-bd03813e14e2",
          "display": "Meaghan Neary"
        },
        "effectiveDateTime": "2022-07-18T22:11:04Z",
        "specimen": {
          "reference": "urn:uuid:cdac2c56-9ffa-4d3c-8c2b-e6895ac7e53a"
        }
      }
    },
    {
      "fullUrl": "urn:uuid:52775789-2d0e-42e7-b775-73d6bf87a8dd",
      "resource": {
        "resourceType": "Observation",
        "id": "52775789-2d0e-42e7-b775-73d6bf87a8dd",
        "meta": {
          "profile": [
            "http://hl7.eu/fhir/laboratory/StructureDefinition/Observation-resultslab-eu-lab"
          ]
        },
        "performer": [
          {
            "display": "The Central European Lab"
          }
        ],
        "category": [
          {
            "coding": [
              {
                "system": "http://terminology.hl7.org/CodeSystem/observation-category",
                "code": "laboratory"
              }
            ]
          }
        ],
        "code": {
          "coding": [
            {
              "code": "2075-0",
              "system": "http://loinc.org",
              "display": "Chloride [Moles/volume] in Serum or Plasma"
            }
          ],
          "text": "Chloride [Moles/volume] in Serum or Plasma"
        },
        "valueQuantity": {
          "system": "http://unitsofmeasure.org",
          "value": 107.5,
          "unit": "mmol/L",
          "code": "mmol/L"
        },
        "referenceRange": [
          {
            "low": {
              "value": 98,
              "code": "mmol/L",
              "system": "http://unitsofmeasure.org"
            }
          },
          {
            "high": {
              "value": 108,
              "code": "mmol/L",
              "system": "http://unitsofmeasure.org"
            }
          }
        ],
        "text": {
          "status": "generated",
          "div": "<div xmlns=\"http://www.w3.org/1999/xhtml\"><table class=\"hl7__eu__lab__report\"><tr><th>Test</th><th>19-Jul-2022</th><th>Reference&#xA0;Range</th><th>Unit</th></tr><tr><td>Chloride [Moles/volume] in Serum or Plasma</td><td>107.5</td><td>98 - 108</td><td></td><td>mmol/L</td></tr></table></div>"
        },
        "status": "final",
        "subject": {
          "reference": "urn:uuid:9257ac8f-83d0-489a-a240-bd03813e14e2",
          "display": "Meaghan Neary"
        },
        "effectiveDateTime": "2022-07-18T22:11:04Z",
        "specimen": {
          "reference": "urn:uuid:cdac2c56-9ffa-4d3c-8c2b-e6895ac7e53a"
        }
      }
    },
    {
      "fullUrl": "urn:uuid:7b6247a0-28b3-472b-a12a-40699f363d95",
      "resource": {
        "resourceType": "Observation",
        "id": "7b6247a0-28b3-472b-a12a-40699f363d95",
        "meta": {
          "profile": [
            "http://hl7.eu/fhir/laboratory/StructureDefinition/Observation-resultslab-eu-lab"
          ]
        },
        "performer": [
          {
            "display": "The Central European Lab"
          }
        ],
        "category": [
          {
            "coding": [
              {
                "system": "http://terminology.hl7.org/CodeSystem/observation-category",
                "code": "laboratory"
              }
            ]
          }
        ],
        "code": {
          "coding": [
            {
              "code": "2028-9",
              "system": "http://loinc.org",
              "display": "Carbon dioxide, total [Moles/volume] in Serum or Plasma"
            }
          ],
          "text": "Carbon dioxide, total [Moles/volume] in Serum or Plasma"
        },
        "valueQuantity": {
          "system": "http://unitsofmeasure.org",
          "value": 25.7,
          "unit": "mmol/L",
          "code": "mmol/L"
        },
        "referenceRange": [
          {
            "low": {
              "value": 22,
              "code": "mmol/L",
              "system": "http://unitsofmeasure.org"
            }
          },
          {
            "high": {
              "value": 32,
              "code": "mmol/L",
              "system": "http://unitsofmeasure.org"
            }
          }
        ],
        "text": {
          "status": "generated",
          "div": "<div xmlns=\"http://www.w3.org/1999/xhtml\"><table class=\"hl7__eu__lab__report\"><tr><th>Test</th><th>19-Jul-2022</th><th>Reference&#xA0;Range</th><th>Unit</th></tr><tr><td>Carbon dioxide, total [Moles/volume] in Serum or Plasma</td><td>25.7</td><td>22 - 32</td><td></td><td>mmol/L</td></tr></table></div>"
        },
        "status": "final",
        "subject": {
          "reference": "urn:uuid:9257ac8f-83d0-489a-a240-bd03813e14e2",
          "display": "Meaghan Neary"
        },
        "effectiveDateTime": "2022-07-18T22:11:04Z",
        "specimen": {
          "reference": "urn:uuid:cdac2c56-9ffa-4d3c-8c2b-e6895ac7e53a"
        }
      }
    },
    {
      "fullUrl": "urn:uuid:cc074d14-d463-4d9b-9c80-48295c5291b8",
      "resource": {
        "resourceType": "Observation",
        "id": "cc074d14-d463-4d9b-9c80-48295c5291b8",
        "meta": {
          "profile": [
            "http://hl7.eu/fhir/laboratory/StructureDefinition/Observation-resultslab-eu-lab"
          ]
        },
        "performer": [
          {
            "display": "The Central European Lab"
          }
        ],
        "category": [
          {
            "coding": [
              {
                "system": "http://terminology.hl7.org/CodeSystem/observation-category",
                "code": "laboratory"
              }
            ]
          }
        ],
        "code": {
          "coding": [
            {
              "code": "5767-9",
              "system": "http://loinc.org",
              "display": "Appearance of Urine"
            }
          ],
          "text": "Appearance of Urine"
        },
        "text": {
          "status": "generated",
          "div": "<div xmlns=\"http://www.w3.org/1999/xhtml\"><table class=\"hl7__eu__lab__report\"><tr><th>Test</th><th>19-Jul-2022</th><th>Reference&#xA0;Range</th><th>Unit</th></tr><tr><td>Appearance of Urine</td></tr></table></div>"
        },
        "status": "final",
        "subject": {
          "reference": "urn:uuid:9257ac8f-83d0-489a-a240-bd03813e14e2",
          "display": "Meaghan Neary"
        },
        "effectiveDateTime": "2022-07-18T22:11:04Z",
        "specimen": {
          "reference": "urn:uuid:2b027e4b-0c36-4959-a880-4c1b7f5ac7ae"
        }
      }
    },
    {
      "fullUrl": "urn:uuid:23fdfd7f-3994-4cbc-a819-83409294d095",
      "resource": {
        "resourceType": "Observation",
        "id": "23fdfd7f-3994-4cbc-a819-83409294d095",
        "meta": {
          "profile": [
            "http://hl7.eu/fhir/laboratory/StructureDefinition/Observation-resultslab-eu-lab"
          ]
        },
        "performer": [
          {
            "display": "The Central European Lab"
          }
        ],
        "category": [
          {
            "coding": [
              {
                "system": "http://terminology.hl7.org/CodeSystem/observation-category",
                "code": "laboratory"
              }
            ]
          }
        ],
        "code": {
          "coding": [
            {
              "code": "34533-0",
              "system": "http://loinc.org",
              "display": "Odor of Urine"
            }
          ],
          "text": "Odor of Urine"
        },
        "text": {
          "status": "generated",
          "div": "<div xmlns=\"http://www.w3.org/1999/xhtml\"><table class=\"hl7__eu__lab__report\"><tr><th>Test</th><th>19-Jul-2022</th><th>Reference&#xA0;Range</th><th>Unit</th></tr><tr><td>Odor of Urine</td></tr></table></div>"
        },
        "status": "final",
        "subject": {
          "reference": "urn:uuid:9257ac8f-83d0-489a-a240-bd03813e14e2",
          "display": "Meaghan Neary"
        },
        "effectiveDateTime": "2022-07-18T22:11:04Z",
        "specimen": {
          "reference": "urn:uuid:2b027e4b-0c36-4959-a880-4c1b7f5ac7ae"
        }
      }
    },
    {
      "fullUrl": "urn:uuid:e7bbc02a-68fb-4228-8fa2-483d523b1d84",
      "resource": {
        "resourceType": "Observation",
        "id": "e7bbc02a-68fb-4228-8fa2-483d523b1d84",
        "meta": {
          "profile": [
            "http://hl7.eu/fhir/laboratory/StructureDefinition/Observation-resultslab-eu-lab"
          ]
        },
        "performer": [
          {
            "display": "The Central European Lab"
          }
        ],
        "category": [
          {
            "coding": [
              {
                "system": "http://terminology.hl7.org/CodeSystem/observation-category",
                "code": "laboratory"
              }
            ]
          }
        ],
        "code": {
          "coding": [
            {
              "code": "32167-9",
              "system": "http://loinc.org",
              "display": "Clarity of Urine"
            }
          ],
          "text": "Clarity of Urine"
        },
        "text": {
          "status": "generated",
          "div": "<div xmlns=\"http://www.w3.org/1999/xhtml\"><table class=\"hl7__eu__lab__report\"><tr><th>Test</th><th>19-Jul-2022</th><th>Reference&#xA0;Range</th><th>Unit</th></tr><tr><td>Clarity of Urine</td></tr></table></div>"
        },
        "status": "final",
        "subject": {
          "reference": "urn:uuid:9257ac8f-83d0-489a-a240-bd03813e14e2",
          "display": "Meaghan Neary"
        },
        "effectiveDateTime": "2022-07-18T22:11:04Z",
        "specimen": {
          "reference": "urn:uuid:2b027e4b-0c36-4959-a880-4c1b7f5ac7ae"
        }
      }
    },
    {
      "fullUrl": "urn:uuid:df1a0fb0-08ba-4d5e-b199-9b95f5cdce21",
      "resource": {
        "resourceType": "Observation",
        "id": "df1a0fb0-08ba-4d5e-b199-9b95f5cdce21",
        "meta": {
          "profile": [
            "http://hl7.eu/fhir/laboratory/StructureDefinition/Observation-resultslab-eu-lab"
          ]
        },
        "performer": [
          {
            "display": "The Central European Lab"
          }
        ],
        "category": [
          {
            "coding": [
              {
                "system": "http://terminology.hl7.org/CodeSystem/observation-category",
                "code": "laboratory"
              }
            ]
          }
        ],
        "code": {
          "coding": [
            {
              "code": "5778-6",
              "system": "http://loinc.org",
              "display": "Color of Urine"
            }
          ],
          "text": "Color of Urine"
        },
        "text": {
          "status": "generated",
          "div": "<div xmlns=\"http://www.w3.org/1999/xhtml\"><table class=\"hl7__eu__lab__report\"><tr><th>Test</th><th>19-Jul-2022</th><th>Reference&#xA0;Range</th><th>Unit</th></tr><tr><td>Color of Urine</td></tr></table></div>"
        },
        "status": "final",
        "subject": {
          "reference": "urn:uuid:9257ac8f-83d0-489a-a240-bd03813e14e2",
          "display": "Meaghan Neary"
        },
        "effectiveDateTime": "2022-07-18T22:11:04Z",
        "specimen": {
          "reference": "urn:uuid:2b027e4b-0c36-4959-a880-4c1b7f5ac7ae"
        }
      }
    },
    {
      "fullUrl": "urn:uuid:8964b19d-735f-4241-bf87-93131996af8e",
      "resource": {
        "resourceType": "Observation",
        "id": "8964b19d-735f-4241-bf87-93131996af8e",
        "meta": {
          "profile": [
            "http://hl7.eu/fhir/laboratory/StructureDefinition/Observation-resultslab-eu-lab"
          ]
        },
        "performer": [
          {
            "display": "The Central European Lab"
          }
        ],
        "category": [
          {
            "coding": [
              {
                "system": "http://terminology.hl7.org/CodeSystem/observation-category",
                "code": "laboratory"
              }
            ]
          }
        ],
        "code": {
          "coding": [
            {
              "code": "5792-7",
              "system": "http://loinc.org",
              "display": "Glucose [Mass/volume] in Urine by Test strip"
            }
          ],
          "text": "Glucose [Mass/volume] in Urine by Test strip"
        },
        "valueQuantity": {
          "system": "http://unitsofmeasure.org",
          "value": 1.6,
          "unit": "mg/dL",
          "code": "mg/dL"
        },
        "referenceRange": [
          {
            "low": {
              "value": 0.8,
              "code": "mg/dL",
              "system": "http://unitsofmeasure.org"
            }
          },
          {
            "high": {
              "value": 0,
              "code": "mg/dL",
              "system": "http://unitsofmeasure.org"
            }
          }
        ],
        "interpretation": [
          {
            "coding": [
              {
                "code": "H",
                "system": "http://terminology.hl7.org/CodeSystem/v3-ObservationInterpretation",
                "display": "High"
              }
            ]
          }
        ],
        "text": {
          "status": "generated",
          "div": "<div xmlns=\"http://www.w3.org/1999/xhtml\"><table class=\"hl7__eu__lab__report\"><tr><th>Test</th><th>19-Jul-2022</th><th>Reference&#xA0;Range</th><th>Unit</th></tr><tr><td>Glucose [Mass/volume] in Urine by Test strip</td><td>1.6</td><td>0.8 - 0</td><td>H</td><td>mg/dL</td></tr></table></div>"
        },
        "status": "final",
        "subject": {
          "reference": "urn:uuid:9257ac8f-83d0-489a-a240-bd03813e14e2",
          "display": "Meaghan Neary"
        },
        "effectiveDateTime": "2022-07-18T22:11:04Z",
        "specimen": {
          "reference": "urn:uuid:2b027e4b-0c36-4959-a880-4c1b7f5ac7ae"
        }
      }
    },
    {
      "fullUrl": "urn:uuid:42ccd578-5db4-4fef-adcd-53765d334c05",
      "resource": {
        "resourceType": "Observation",
        "id": "42ccd578-5db4-4fef-adcd-53765d334c05",
        "meta": {
          "profile": [
            "http://hl7.eu/fhir/laboratory/StructureDefinition/Observation-resultslab-eu-lab"
          ]
        },
        "performer": [
          {
            "display": "The Central European Lab"
          }
        ],
        "category": [
          {
            "coding": [
              {
                "system": "http://terminology.hl7.org/CodeSystem/observation-category",
                "code": "laboratory"
              }
            ]
          }
        ],
        "code": {
          "coding": [
            {
              "code": "25428-4",
              "system": "http://loinc.org",
              "display": "Glucose [Presence] in Urine by Test strip"
            }
          ],
          "text": "Glucose [Presence] in Urine by Test strip"
        },
        "text": {
          "status": "generated",
          "div": "<div xmlns=\"http://www.w3.org/1999/xhtml\"><table class=\"hl7__eu__lab__report\"><tr><th>Test</th><th>19-Jul-2022</th><th>Reference&#xA0;Range</th><th>Unit</th></tr><tr><td>Glucose [Presence] in Urine by Test strip</td></tr></table></div>"
        },
        "status": "final",
        "subject": {
          "reference": "urn:uuid:9257ac8f-83d0-489a-a240-bd03813e14e2",
          "display": "Meaghan Neary"
        },
        "effectiveDateTime": "2022-07-18T22:11:04Z",
        "specimen": {
          "reference": "urn:uuid:2b027e4b-0c36-4959-a880-4c1b7f5ac7ae"
        }
      }
    },
    {
      "fullUrl": "urn:uuid:0154738c-be08-4a49-a3d6-cfc6e16bed4a",
      "resource": {
        "resourceType": "Observation",
        "id": "0154738c-be08-4a49-a3d6-cfc6e16bed4a",
        "meta": {
          "profile": [
            "http://hl7.eu/fhir/laboratory/StructureDefinition/Observation-resultslab-eu-lab"
          ]
        },
        "performer": [
          {
            "display": "The Central European Lab"
          }
        ],
        "category": [
          {
            "coding": [
              {
                "system": "http://terminology.hl7.org/CodeSystem/observation-category",
                "code": "laboratory"
              }
            ]
          }
        ],
        "code": {
          "coding": [
            {
              "code": "20505-4",
              "system": "http://loinc.org",
              "display": "Bilirubin.total [Mass/volume] in Urine by Test strip"
            }
          ],
          "text": "Bilirubin.total [Mass/volume] in Urine by Test strip"
        },
        "valueQuantity": {
          "system": "http://unitsofmeasure.org",
          "value": 0.8,
          "unit": "mg/dL",
          "code": "mg/dL"
        },
        "referenceRange": [
          {
            "low": {
              "value": 0,
              "code": "mg/dL",
              "system": "http://unitsofmeasure.org"
            }
          },
          {
            "high": {
              "value": 1,
              "code": "mg/dL",
              "system": "http://unitsofmeasure.org"
            }
          }
        ],
        "text": {
          "status": "generated",
          "div": "<div xmlns=\"http://www.w3.org/1999/xhtml\"><table class=\"hl7__eu__lab__report\"><tr><th>Test</th><th>19-Jul-2022</th><th>Reference&#xA0;Range</th><th>Unit</th></tr><tr><td>Bilirubin.total [Mass/volume] in Urine by Test strip</td><td>0.8</td><td>0 - 1</td><td></td><td>mg/dL</td></tr></table></div>"
        },
        "status": "final",
        "subject": {
          "reference": "urn:uuid:9257ac8f-83d0-489a-a240-bd03813e14e2",
          "display": "Meaghan Neary"
        },
        "effectiveDateTime": "2022-07-18T22:11:04Z",
        "specimen": {
          "reference": "urn:uuid:2b027e4b-0c36-4959-a880-4c1b7f5ac7ae"
        }
      }
    },
    {
      "fullUrl": "urn:uuid:bfbcf311-4796-405a-b245-04b0187123fc",
      "resource": {
        "resourceType": "Observation",
        "id": "bfbcf311-4796-405a-b245-04b0187123fc",
        "meta": {
          "profile": [
            "http://hl7.eu/fhir/laboratory/StructureDefinition/Observation-resultslab-eu-lab"
          ]
        },
        "performer": [
          {
            "display": "The Central European Lab"
          }
        ],
        "category": [
          {
            "coding": [
              {
                "system": "http://terminology.hl7.org/CodeSystem/observation-category",
                "code": "laboratory"
              }
            ]
          }
        ],
        "code": {
          "coding": [
            {
              "code": "5770-3",
              "system": "http://loinc.org",
              "display": "Bilirubin.total [Presence] in Urine by Test strip"
            }
          ],
          "text": "Bilirubin.total [Presence] in Urine by Test strip"
        },
        "text": {
          "status": "generated",
          "div": "<div xmlns=\"http://www.w3.org/1999/xhtml\"><table class=\"hl7__eu__lab__report\"><tr><th>Test</th><th>19-Jul-2022</th><th>Reference&#xA0;Range</th><th>Unit</th></tr><tr><td>Bilirubin.total [Presence] in Urine by Test strip</td></tr></table></div>"
        },
        "status": "final",
        "subject": {
          "reference": "urn:uuid:9257ac8f-83d0-489a-a240-bd03813e14e2",
          "display": "Meaghan Neary"
        },
        "effectiveDateTime": "2022-07-18T22:11:04Z",
        "specimen": {
          "reference": "urn:uuid:2b027e4b-0c36-4959-a880-4c1b7f5ac7ae"
        }
      }
    },
    {
      "fullUrl": "urn:uuid:aaa73901-263d-4028-bb36-3419c5895048",
      "resource": {
        "resourceType": "Observation",
        "id": "aaa73901-263d-4028-bb36-3419c5895048",
        "meta": {
          "profile": [
            "http://hl7.eu/fhir/laboratory/StructureDefinition/Observation-resultslab-eu-lab"
          ]
        },
        "performer": [
          {
            "display": "The Central European Lab"
          }
        ],
        "category": [
          {
            "coding": [
              {
                "system": "http://terminology.hl7.org/CodeSystem/observation-category",
                "code": "laboratory"
              }
            ]
          }
        ],
        "code": {
          "coding": [
            {
              "code": "5797-6",
              "system": "http://loinc.org",
              "display": "Ketones [Mass/volume] in Urine by Test strip"
            }
          ],
          "text": "Ketones [Mass/volume] in Urine by Test strip"
        },
        "valueQuantity": {
          "system": "http://unitsofmeasure.org",
          "value": 16.9,
          "unit": "mg/dL",
          "code": "mg/dL"
        },
        "referenceRange": [
          {
            "low": {
              "value": 0,
              "code": "mg/dL",
              "system": "http://unitsofmeasure.org"
            }
          },
          {
            "high": {
              "value": 4,
              "code": "mg/dL",
              "system": "http://unitsofmeasure.org"
            }
          }
        ],
        "interpretation": [
          {
            "coding": [
              {
                "code": "H",
                "system": "http://terminology.hl7.org/CodeSystem/v3-ObservationInterpretation",
                "display": "High"
              }
            ]
          }
        ],
        "text": {
          "status": "generated",
          "div": "<div xmlns=\"http://www.w3.org/1999/xhtml\"><table class=\"hl7__eu__lab__report\"><tr><th>Test</th><th>19-Jul-2022</th><th>Reference&#xA0;Range</th><th>Unit</th></tr><tr><td>Ketones [Mass/volume] in Urine by Test strip</td><td>16.9</td><td>0 - 4</td><td>H</td><td>mg/dL</td></tr></table></div>"
        },
        "status": "final",
        "subject": {
          "reference": "urn:uuid:9257ac8f-83d0-489a-a240-bd03813e14e2",
          "display": "Meaghan Neary"
        },
        "effectiveDateTime": "2022-07-18T22:11:04Z",
        "specimen": {
          "reference": "urn:uuid:2b027e4b-0c36-4959-a880-4c1b7f5ac7ae"
        }
      }
    },
    {
      "fullUrl": "urn:uuid:21136c7b-ac5d-47ae-b9f3-52420f41989e",
      "resource": {
        "resourceType": "Observation",
        "id": "21136c7b-ac5d-47ae-b9f3-52420f41989e",
        "meta": {
          "profile": [
            "http://hl7.eu/fhir/laboratory/StructureDefinition/Observation-resultslab-eu-lab"
          ]
        },
        "performer": [
          {
            "display": "The Central European Lab"
          }
        ],
        "category": [
          {
            "coding": [
              {
                "system": "http://terminology.hl7.org/CodeSystem/observation-category",
                "code": "laboratory"
              }
            ]
          }
        ],
        "code": {
          "coding": [
            {
              "code": "2514-8",
              "system": "http://loinc.org",
              "display": "Ketones [Presence] in Urine by Test strip"
            }
          ],
          "text": "Ketones [Presence] in Urine by Test strip"
        },
        "text": {
          "status": "generated",
          "div": "<div xmlns=\"http://www.w3.org/1999/xhtml\"><table class=\"hl7__eu__lab__report\"><tr><th>Test</th><th>19-Jul-2022</th><th>Reference&#xA0;Range</th><th>Unit</th></tr><tr><td>Ketones [Presence] in Urine by Test strip</td></tr></table></div>"
        },
        "status": "final",
        "subject": {
          "reference": "urn:uuid:9257ac8f-83d0-489a-a240-bd03813e14e2",
          "display": "Meaghan Neary"
        },
        "effectiveDateTime": "2022-07-18T22:11:04Z",
        "specimen": {
          "reference": "urn:uuid:2b027e4b-0c36-4959-a880-4c1b7f5ac7ae"
        }
      }
    },
    {
      "fullUrl": "urn:uuid:14015f61-27a9-411a-bbc9-b478565a7b45",
      "resource": {
        "resourceType": "Observation",
        "id": "14015f61-27a9-411a-bbc9-b478565a7b45",
        "meta": {
          "profile": [
            "http://hl7.eu/fhir/laboratory/StructureDefinition/Observation-resultslab-eu-lab"
          ]
        },
        "performer": [
          {
            "display": "The Central European Lab"
          }
        ],
        "category": [
          {
            "coding": [
              {
                "system": "http://terminology.hl7.org/CodeSystem/observation-category",
                "code": "laboratory"
              }
            ]
          }
        ],
        "code": {
          "coding": [
            {
              "code": "5811-5",
              "system": "http://loinc.org",
              "display": "Specific gravity of Urine by Test strip"
            }
          ],
          "text": "Specific gravity of Urine by Test strip"
        },
        "valueQuantity": {
          "system": "http://unitsofmeasure.org",
          "value": 1,
          "unit": "{nominal}",
          "code": "{nominal}"
        },
        "referenceRange": [
          {
            "low": {
              "value": 1.005,
              "code": "g/mL",
              "system": "http://unitsofmeasure.org"
            }
          },
          {
            "high": {
              "value": 1.03,
              "code": "g/mL",
              "system": "http://unitsofmeasure.org"
            }
          }
        ],
        "interpretation": [
          {
            "coding": [
              {
                "code": "L",
                "system": "http://terminology.hl7.org/CodeSystem/v3-ObservationInterpretation",
                "display": "Low"
              }
            ]
          }
        ],
        "text": {
          "status": "generated",
          "div": "<div xmlns=\"http://www.w3.org/1999/xhtml\"><table class=\"hl7__eu__lab__report\"><tr><th>Test</th><th>19-Jul-2022</th><th>Reference&#xA0;Range</th><th>Unit</th></tr><tr><td>Specific gravity of Urine by Test strip</td><td>1.0</td><td>1.005 - 1.03</td><td>L</td><td>{nominal}</td></tr></table></div>"
        },
        "status": "final",
        "subject": {
          "reference": "urn:uuid:9257ac8f-83d0-489a-a240-bd03813e14e2",
          "display": "Meaghan Neary"
        },
        "effectiveDateTime": "2022-07-18T22:11:04Z",
        "specimen": {
          "reference": "urn:uuid:2b027e4b-0c36-4959-a880-4c1b7f5ac7ae"
        }
      }
    },
    {
      "fullUrl": "urn:uuid:84772651-f4a3-446f-a32d-6a14006b16b7",
      "resource": {
        "resourceType": "Observation",
        "id": "84772651-f4a3-446f-a32d-6a14006b16b7",
        "meta": {
          "profile": [
            "http://hl7.eu/fhir/laboratory/StructureDefinition/Observation-resultslab-eu-lab"
          ]
        },
        "performer": [
          {
            "display": "The Central European Lab"
          }
        ],
        "category": [
          {
            "coding": [
              {
                "system": "http://terminology.hl7.org/CodeSystem/observation-category",
                "code": "laboratory"
              }
            ]
          }
        ],
        "code": {
          "coding": [
            {
              "code": "5803-2",
              "system": "http://loinc.org",
              "display": "pH of Urine by Test strip"
            }
          ],
          "text": "pH of Urine by Test strip"
        },
        "valueQuantity": {
          "system": "http://unitsofmeasure.org",
          "value": 6,
          "unit": "pH",
          "code": "pH"
        },
        "referenceRange": [
          {
            "low": {
              "value": 4.6,
              "code": "pH",
              "system": "http://unitsofmeasure.org"
            }
          },
          {
            "high": {
              "value": 7,
              "code": "pH",
              "system": "http://unitsofmeasure.org"
            }
          }
        ],
        "text": {
          "status": "generated",
          "div": "<div xmlns=\"http://www.w3.org/1999/xhtml\"><table class=\"hl7__eu__lab__report\"><tr><th>Test</th><th>19-Jul-2022</th><th>Reference&#xA0;Range</th><th>Unit</th></tr><tr><td>pH of Urine by Test strip</td><td>6.0</td><td>4.6 - 7</td><td></td><td>pH</td></tr></table></div>"
        },
        "status": "final",
        "subject": {
          "reference": "urn:uuid:9257ac8f-83d0-489a-a240-bd03813e14e2",
          "display": "Meaghan Neary"
        },
        "effectiveDateTime": "2022-07-18T22:11:04Z",
        "specimen": {
          "reference": "urn:uuid:2b027e4b-0c36-4959-a880-4c1b7f5ac7ae"
        }
      }
    },
    {
      "fullUrl": "urn:uuid:8a3d7c1f-bc8f-4606-8699-df3695c61aea",
      "resource": {
        "resourceType": "Observation",
        "id": "8a3d7c1f-bc8f-4606-8699-df3695c61aea",
        "meta": {
          "profile": [
            "http://hl7.eu/fhir/laboratory/StructureDefinition/Observation-resultslab-eu-lab"
          ]
        },
        "performer": [
          {
            "display": "The Central European Lab"
          }
        ],
        "category": [
          {
            "coding": [
              {
                "system": "http://terminology.hl7.org/CodeSystem/observation-category",
                "code": "laboratory"
              }
            ]
          }
        ],
        "code": {
          "coding": [
            {
              "code": "5804-0",
              "system": "http://loinc.org",
              "display": "Protein [Mass/volume] in Urine by Test strip"
            }
          ],
          "text": "Protein [Mass/volume] in Urine by Test strip"
        },
        "valueQuantity": {
          "system": "http://unitsofmeasure.org",
          "value": 260.7,
          "unit": "mg/dL",
          "code": "mg/dL"
        },
        "referenceRange": [
          {
            "low": {
              "value": 0,
              "code": "mg/dL",
              "system": "http://unitsofmeasure.org"
            }
          },
          {
            "high": {
              "value": 14,
              "code": "mg/dL",
              "system": "http://unitsofmeasure.org"
            }
          }
        ],
        "interpretation": [
          {
            "coding": [
              {
                "code": "H",
                "system": "http://terminology.hl7.org/CodeSystem/v3-ObservationInterpretation",
                "display": "High"
              }
            ]
          }
        ],
        "text": {
          "status": "generated",
          "div": "<div xmlns=\"http://www.w3.org/1999/xhtml\"><table class=\"hl7__eu__lab__report\"><tr><th>Test</th><th>19-Jul-2022</th><th>Reference&#xA0;Range</th><th>Unit</th></tr><tr><td>Protein [Mass/volume] in Urine by Test strip</td><td>260.7</td><td>0 - 14</td><td>H</td><td>mg/dL</td></tr></table></div>"
        },
        "status": "final",
        "subject": {
          "reference": "urn:uuid:9257ac8f-83d0-489a-a240-bd03813e14e2",
          "display": "Meaghan Neary"
        },
        "effectiveDateTime": "2022-07-18T22:11:04Z",
        "specimen": {
          "reference": "urn:uuid:2b027e4b-0c36-4959-a880-4c1b7f5ac7ae"
        }
      }
    },
    {
      "fullUrl": "urn:uuid:6119adf8-0ddc-43b1-8fa9-2ddd8788b481",
      "resource": {
        "resourceType": "Observation",
        "id": "6119adf8-0ddc-43b1-8fa9-2ddd8788b481",
        "meta": {
          "profile": [
            "http://hl7.eu/fhir/laboratory/StructureDefinition/Observation-resultslab-eu-lab"
          ]
        },
        "performer": [
          {
            "display": "The Central European Lab"
          }
        ],
        "category": [
          {
            "coding": [
              {
                "system": "http://terminology.hl7.org/CodeSystem/observation-category",
                "code": "laboratory"
              }
            ]
          }
        ],
        "code": {
          "coding": [
            {
              "code": "20454-5",
              "system": "http://loinc.org",
              "display": "Protein [Presence] in Urine by Test strip"
            }
          ],
          "text": "Protein [Presence] in Urine by Test strip"
        },
        "text": {
          "status": "generated",
          "div": "<div xmlns=\"http://www.w3.org/1999/xhtml\"><table class=\"hl7__eu__lab__report\"><tr><th>Test</th><th>19-Jul-2022</th><th>Reference&#xA0;Range</th><th>Unit</th></tr><tr><td>Protein [Presence] in Urine by Test strip</td></tr></table></div>"
        },
        "status": "final",
        "subject": {
          "reference": "urn:uuid:9257ac8f-83d0-489a-a240-bd03813e14e2",
          "display": "Meaghan Neary"
        },
        "effectiveDateTime": "2022-07-18T22:11:04Z",
        "specimen": {
          "reference": "urn:uuid:2b027e4b-0c36-4959-a880-4c1b7f5ac7ae"
        }
      }
    },
    {
      "fullUrl": "urn:uuid:db5e8597-ee59-4336-8dfb-a694f61c9b4e",
      "resource": {
        "resourceType": "Observation",
        "id": "db5e8597-ee59-4336-8dfb-a694f61c9b4e",
        "meta": {
          "profile": [
            "http://hl7.eu/fhir/laboratory/StructureDefinition/Observation-resultslab-eu-lab"
          ]
        },
        "performer": [
          {
            "display": "The Central European Lab"
          }
        ],
        "category": [
          {
            "coding": [
              {
                "system": "http://terminology.hl7.org/CodeSystem/observation-category",
                "code": "laboratory"
              }
            ]
          }
        ],
        "code": {
          "coding": [
            {
              "code": "5802-4",
              "system": "http://loinc.org",
              "display": "Nitrite [Presence] in Urine by Test strip"
            }
          ],
          "text": "Nitrite [Presence] in Urine by Test strip"
        },
        "text": {
          "status": "generated",
          "div": "<div xmlns=\"http://www.w3.org/1999/xhtml\"><table class=\"hl7__eu__lab__report\"><tr><th>Test</th><th>19-Jul-2022</th><th>Reference&#xA0;Range</th><th>Unit</th></tr><tr><td>Nitrite [Presence] in Urine by Test strip</td></tr></table></div>"
        },
        "status": "final",
        "subject": {
          "reference": "urn:uuid:9257ac8f-83d0-489a-a240-bd03813e14e2",
          "display": "Meaghan Neary"
        },
        "effectiveDateTime": "2022-07-18T22:11:04Z",
        "specimen": {
          "reference": "urn:uuid:2b027e4b-0c36-4959-a880-4c1b7f5ac7ae"
        }
      }
    },
    {
      "fullUrl": "urn:uuid:f6a2d76d-1810-4f3a-99c5-ede17679af80",
      "resource": {
        "resourceType": "Observation",
        "id": "f6a2d76d-1810-4f3a-99c5-ede17679af80",
        "meta": {
          "profile": [
            "http://hl7.eu/fhir/laboratory/StructureDefinition/Observation-resultslab-eu-lab"
          ]
        },
        "performer": [
          {
            "display": "The Central European Lab"
          }
        ],
        "category": [
          {
            "coding": [
              {
                "system": "http://terminology.hl7.org/CodeSystem/observation-category",
                "code": "laboratory"
              }
            ]
          }
        ],
        "code": {
          "coding": [
            {
              "code": "5794-3",
              "system": "http://loinc.org",
              "display": "Hemoglobin [Presence] in Urine by Test strip"
            }
          ],
          "text": "Hemoglobin [Presence] in Urine by Test strip"
        },
        "text": {
          "status": "generated",
          "div": "<div xmlns=\"http://www.w3.org/1999/xhtml\"><table class=\"hl7__eu__lab__report\"><tr><th>Test</th><th>19-Jul-2022</th><th>Reference&#xA0;Range</th><th>Unit</th></tr><tr><td>Hemoglobin [Presence] in Urine by Test strip</td></tr></table></div>"
        },
        "status": "final",
        "subject": {
          "reference": "urn:uuid:9257ac8f-83d0-489a-a240-bd03813e14e2",
          "display": "Meaghan Neary"
        },
        "effectiveDateTime": "2022-07-18T22:11:04Z",
        "specimen": {
          "reference": "urn:uuid:2b027e4b-0c36-4959-a880-4c1b7f5ac7ae"
        }
      }
    },
    {
      "fullUrl": "urn:uuid:4d1b7514-f168-4767-84cd-7a7442e3c26c",
      "resource": {
        "resourceType": "Observation",
        "id": "4d1b7514-f168-4767-84cd-7a7442e3c26c",
        "meta": {
          "profile": [
            "http://hl7.eu/fhir/laboratory/StructureDefinition/Observation-resultslab-eu-lab"
          ]
        },
        "performer": [
          {
            "display": "The Central European Lab"
          }
        ],
        "category": [
          {
            "coding": [
              {
                "system": "http://terminology.hl7.org/CodeSystem/observation-category",
                "code": "laboratory"
              }
            ]
          }
        ],
        "code": {
          "coding": [
            {
              "code": "5799-2",
              "system": "http://loinc.org",
              "display": "Leukocyte esterase [Presence] in Urine by Test strip"
            }
          ],
          "text": "Leukocyte esterase [Presence] in Urine by Test strip"
        },
        "text": {
          "status": "generated",
          "div": "<div xmlns=\"http://www.w3.org/1999/xhtml\"><table class=\"hl7__eu__lab__report\"><tr><th>Test</th><th>19-Jul-2022</th><th>Reference&#xA0;Range</th><th>Unit</th></tr><tr><td>Leukocyte esterase [Presence] in Urine by Test strip</td></tr></table></div>"
        },
        "status": "final",
        "subject": {
          "reference": "urn:uuid:9257ac8f-83d0-489a-a240-bd03813e14e2",
          "display": "Meaghan Neary"
        },
        "effectiveDateTime": "2022-07-18T22:11:04Z",
        "specimen": {
          "reference": "urn:uuid:2b027e4b-0c36-4959-a880-4c1b7f5ac7ae"
        }
      }
    },
    {
      "fullUrl": "urn:uuid:96bb6f17-f5be-401e-952b-d3f3036d8d3c",
      "resource": {
        "resourceType": "Observation",
        "id": "96bb6f17-f5be-401e-952b-d3f3036d8d3c",
        "meta": {
          "profile": [
            "http://hl7.eu/fhir/laboratory/StructureDefinition/Observation-resultslab-eu-lab"
          ]
        },
        "performer": [
          {
            "display": "The Central European Lab"
          }
        ],
        "category": [
          {
            "coding": [
              {
                "system": "http://terminology.hl7.org/CodeSystem/observation-category",
                "code": "laboratory"
              }
            ]
          }
        ],
        "code": {
          "coding": [
            {
              "code": "4548-4",
              "system": "http://loinc.org",
              "display": "Hemoglobin A1c/Hemoglobin.total in Blood"
            }
          ],
          "text": "Hemoglobin A1c/Hemoglobin.total in Blood"
        },
        "valueQuantity": {
          "system": "http://unitsofmeasure.org",
          "value": 3.3,
          "unit": "%",
          "code": "%"
        },
        "referenceRange": [
          {
            "low": {
              "value": 4,
              "code": "%",
              "system": "http://unitsofmeasure.org"
            }
          },
          {
            "high": {
              "value": 6.4,
              "code": "%",
              "system": "http://unitsofmeasure.org"
            }
          }
        ],
        "interpretation": [
          {
            "coding": [
              {
                "code": "L",
                "system": "http://terminology.hl7.org/CodeSystem/v3-ObservationInterpretation",
                "display": "Low"
              }
            ]
          }
        ],
        "text": {
          "status": "generated",
          "div": "<div xmlns=\"http://www.w3.org/1999/xhtml\"><table class=\"hl7__eu__lab__report\"><tr><th>Test</th><th>19-Jul-2022</th><th>Reference&#xA0;Range</th><th>Unit</th></tr><tr><td>Hemoglobin A1c/Hemoglobin.total in Blood</td><td>3.3</td><td>4 - 6.4</td><td>L</td><td>%</td></tr></table></div>"
        },
        "status": "final",
        "subject": {
          "reference": "urn:uuid:9257ac8f-83d0-489a-a240-bd03813e14e2",
          "display": "Meaghan Neary"
        },
        "effectiveDateTime": "2022-07-18T22:11:04Z",
        "specimen": {
          "reference": "urn:uuid:5cb45b9b-9c74-4915-aee4-71c76da20332"
        }
      }
    },
    {
      "fullUrl": "urn:uuid:b600664e-8b06-4a25-8f25-4f9f5a4fc583",
      "resource": {
        "resourceType": "Observation",
        "id": "b600664e-8b06-4a25-8f25-4f9f5a4fc583",
        "meta": {
          "profile": [
            "http://hl7.eu/fhir/laboratory/StructureDefinition/Observation-resultslab-eu-lab"
          ]
        },
        "performer": [
          {
            "display": "The Central European Lab"
          }
        ],
        "category": [
          {
            "coding": [
              {
                "system": "http://terminology.hl7.org/CodeSystem/observation-category",
                "code": "laboratory"
              }
            ]
          }
        ],
        "code": {
          "coding": [
            {
              "code": "2339-0",
              "system": "http://loinc.org",
              "display": "Glucose [Mass/volume] in Blood"
            }
          ],
          "text": "Glucose [Mass/volume] in Blood"
        },
        "valueQuantity": {
          "system": "http://unitsofmeasure.org",
          "value": 97.7,
          "unit": "mg/dL",
          "code": "mg/dL"
        },
        "referenceRange": [
          {
            "low": {
              "value": 70,
              "code": "mg/dL",
              "system": "http://unitsofmeasure.org"
            }
          },
          {
            "high": {
              "value": 100,
              "code": "mg/dL",
              "system": "http://unitsofmeasure.org"
            }
          }
        ],
        "text": {
          "status": "generated",
          "div": "<div xmlns=\"http://www.w3.org/1999/xhtml\"><table class=\"hl7__eu__lab__report\"><tr><th>Test</th><th>19-Jul-2022</th><th>Reference&#xA0;Range</th><th>Unit</th></tr><tr><td>Glucose [Mass/volume] in Blood</td><td>97.7</td><td>70 - 100</td><td></td><td>mg/dL</td></tr></table></div>"
        },
        "status": "final",
        "subject": {
          "reference": "urn:uuid:9257ac8f-83d0-489a-a240-bd03813e14e2",
          "display": "Meaghan Neary"
        },
        "effectiveDateTime": "2022-07-18T22:11:04Z",
        "specimen": {
          "reference": "urn:uuid:5cb45b9b-9c74-4915-aee4-71c76da20332"
        }
      }
    },
    {
      "fullUrl": "urn:uuid:276866dc-b443-4ffb-beeb-e549e474223f",
      "resource": {
        "resourceType": "Observation",
        "id": "276866dc-b443-4ffb-beeb-e549e474223f",
        "meta": {
          "profile": [
            "http://hl7.eu/fhir/laboratory/StructureDefinition/Observation-resultslab-eu-lab"
          ]
        },
        "performer": [
          {
            "display": "The Central European Lab"
          }
        ],
        "category": [
          {
            "coding": [
              {
                "system": "http://terminology.hl7.org/CodeSystem/observation-category",
                "code": "laboratory"
              }
            ]
          }
        ],
        "code": {
          "coding": [
            {
              "code": "6299-2",
              "system": "http://loinc.org",
              "display": "Urea nitrogen [Mass/volume] in Blood"
            }
          ],
          "text": "Urea nitrogen [Mass/volume] in Blood"
        },
        "valueQuantity": {
          "system": "http://unitsofmeasure.org",
          "value": 18.4,
          "unit": "mg/dL",
          "code": "mg/dL"
        },
        "referenceRange": [
          {
            "low": {
              "value": 7,
              "code": "mg/dL",
              "system": "http://unitsofmeasure.org"
            }
          },
          {
            "high": {
              "value": 43,
              "code": "mg/dL",
              "system": "http://unitsofmeasure.org"
            }
          }
        ],
        "text": {
          "status": "generated",
          "div": "<div xmlns=\"http://www.w3.org/1999/xhtml\"><table class=\"hl7__eu__lab__report\"><tr><th>Test</th><th>19-Jul-2022</th><th>Reference&#xA0;Range</th><th>Unit</th></tr><tr><td>Urea nitrogen [Mass/volume] in Blood</td><td>18.4</td><td>7 - 43</td><td></td><td>mg/dL</td></tr></table></div>"
        },
        "status": "final",
        "subject": {
          "reference": "urn:uuid:9257ac8f-83d0-489a-a240-bd03813e14e2",
          "display": "Meaghan Neary"
        },
        "effectiveDateTime": "2022-07-18T22:11:04Z",
        "specimen": {
          "reference": "urn:uuid:5cb45b9b-9c74-4915-aee4-71c76da20332"
        }
      }
    },
    {
      "fullUrl": "urn:uuid:0afea123-9e95-44bc-8a67-5b2804bc060d",
      "resource": {
        "resourceType": "Observation",
        "id": "0afea123-9e95-44bc-8a67-5b2804bc060d",
        "meta": {
          "profile": [
            "http://hl7.eu/fhir/laboratory/StructureDefinition/Observation-resultslab-eu-lab"
          ]
        },
        "performer": [
          {
            "display": "The Central European Lab"
          }
        ],
        "category": [
          {
            "coding": [
              {
                "system": "http://terminology.hl7.org/CodeSystem/observation-category",
                "code": "laboratory"
              }
            ]
          }
        ],
        "code": {
          "coding": [
            {
              "code": "38483-4",
              "system": "http://loinc.org",
              "display": "Creatinine [Mass/volume] in Blood"
            }
          ],
          "text": "Creatinine [Mass/volume] in Blood"
        },
        "valueQuantity": {
          "system": "http://unitsofmeasure.org",
          "value": 3.9,
          "unit": "mg/dL",
          "code": "mg/dL"
        },
        "referenceRange": [
          {
            "low": {
              "value": 0.6,
              "code": "mg/dL",
              "system": "http://unitsofmeasure.org"
            }
          },
          {
            "high": {
              "value": 1.1,
              "code": "mg/dL",
              "system": "http://unitsofmeasure.org"
            }
          }
        ],
        "interpretation": [
          {
            "coding": [
              {
                "code": "H",
                "system": "http://terminology.hl7.org/CodeSystem/v3-ObservationInterpretation",
                "display": "High"
              }
            ]
          }
        ],
        "text": {
          "status": "generated",
          "div": "<div xmlns=\"http://www.w3.org/1999/xhtml\"><table class=\"hl7__eu__lab__report\"><tr><th>Test</th><th>19-Jul-2022</th><th>Reference&#xA0;Range</th><th>Unit</th></tr><tr><td>Creatinine [Mass/volume] in Blood</td><td>3.9</td><td>0.6 - 1.1</td><td>H</td><td>mg/dL</td></tr></table></div>"
        },
        "status": "final",
        "subject": {
          "reference": "urn:uuid:9257ac8f-83d0-489a-a240-bd03813e14e2",
          "display": "Meaghan Neary"
        },
        "effectiveDateTime": "2022-07-18T22:11:04Z",
        "specimen": {
          "reference": "urn:uuid:5cb45b9b-9c74-4915-aee4-71c76da20332"
        }
      }
    },
    {
      "fullUrl": "urn:uuid:754e6802-da70-4f74-93f5-d09174b5a50f",
      "resource": {
        "resourceType": "Observation",
        "id": "754e6802-da70-4f74-93f5-d09174b5a50f",
        "meta": {
          "profile": [
            "http://hl7.eu/fhir/laboratory/StructureDefinition/Observation-resultslab-eu-lab"
          ]
        },
        "performer": [
          {
            "display": "The Central European Lab"
          }
        ],
        "category": [
          {
            "coding": [
              {
                "system": "http://terminology.hl7.org/CodeSystem/observation-category",
                "code": "laboratory"
              }
            ]
          }
        ],
        "code": {
          "coding": [
            {
              "code": "49765-1",
              "system": "http://loinc.org",
              "display": "Calcium [Mass/volume] in Blood"
            }
          ],
          "text": "Calcium [Mass/volume] in Blood"
        },
        "valueQuantity": {
          "system": "http://unitsofmeasure.org",
          "value": 9.9,
          "unit": "mg/dL",
          "code": "mg/dL"
        },
        "referenceRange": [
          {
            "low": {
              "value": 8.5,
              "code": "mg/dL",
              "system": "http://unitsofmeasure.org"
            }
          },
          {
            "high": {
              "value": 10.5,
              "code": "mg/dL",
              "system": "http://unitsofmeasure.org"
            }
          }
        ],
        "text": {
          "status": "generated",
          "div": "<div xmlns=\"http://www.w3.org/1999/xhtml\"><table class=\"hl7__eu__lab__report\"><tr><th>Test</th><th>19-Jul-2022</th><th>Reference&#xA0;Range</th><th>Unit</th></tr><tr><td>Calcium [Mass/volume] in Blood</td><td>9.9</td><td>8.5 - 10.5</td><td></td><td>mg/dL</td></tr></table></div>"
        },
        "status": "final",
        "subject": {
          "reference": "urn:uuid:9257ac8f-83d0-489a-a240-bd03813e14e2",
          "display": "Meaghan Neary"
        },
        "effectiveDateTime": "2022-07-18T22:11:04Z",
        "specimen": {
          "reference": "urn:uuid:5cb45b9b-9c74-4915-aee4-71c76da20332"
        }
      }
    },
    {
      "fullUrl": "urn:uuid:d60ac52f-6305-4087-9ae7-0750c6c4c58b",
      "resource": {
        "resourceType": "Observation",
        "id": "d60ac52f-6305-4087-9ae7-0750c6c4c58b",
        "meta": {
          "profile": [
            "http://hl7.eu/fhir/laboratory/StructureDefinition/Observation-resultslab-eu-lab"
          ]
        },
        "performer": [
          {
            "display": "The Central European Lab"
          }
        ],
        "category": [
          {
            "coding": [
              {
                "system": "http://terminology.hl7.org/CodeSystem/observation-category",
                "code": "laboratory"
              }
            ]
          }
        ],
        "code": {
          "coding": [
            {
              "code": "2947-0",
              "system": "http://loinc.org",
              "display": "Sodium [Moles/volume] in Blood"
            }
          ],
          "text": "Sodium [Moles/volume] in Blood"
        },
        "valueQuantity": {
          "system": "http://unitsofmeasure.org",
          "value": 139.9,
          "unit": "mmol/L",
          "code": "mmol/L"
        },
        "referenceRange": [
          {
            "low": {
              "value": 135,
              "code": "mmol/L",
              "system": "http://unitsofmeasure.org"
            }
          },
          {
            "high": {
              "value": 145,
              "code": "mmol/L",
              "system": "http://unitsofmeasure.org"
            }
          }
        ],
        "text": {
          "status": "generated",
          "div": "<div xmlns=\"http://www.w3.org/1999/xhtml\"><table class=\"hl7__eu__lab__report\"><tr><th>Test</th><th>19-Jul-2022</th><th>Reference&#xA0;Range</th><th>Unit</th></tr><tr><td>Sodium [Moles/volume] in Blood</td><td>139.9</td><td>135 - 145</td><td></td><td>mmol/L</td></tr></table></div>"
        },
        "status": "final",
        "subject": {
          "reference": "urn:uuid:9257ac8f-83d0-489a-a240-bd03813e14e2",
          "display": "Meaghan Neary"
        },
        "effectiveDateTime": "2022-07-18T22:11:04Z",
        "specimen": {
          "reference": "urn:uuid:5cb45b9b-9c74-4915-aee4-71c76da20332"
        }
      }
    },
    {
      "fullUrl": "urn:uuid:6878dbf4-3174-4848-9c32-3ed63b4f1752",
      "resource": {
        "resourceType": "Observation",
        "id": "6878dbf4-3174-4848-9c32-3ed63b4f1752",
        "meta": {
          "profile": [
            "http://hl7.eu/fhir/laboratory/StructureDefinition/Observation-resultslab-eu-lab"
          ]
        },
        "performer": [
          {
            "display": "The Central European Lab"
          }
        ],
        "category": [
          {
            "coding": [
              {
                "system": "http://terminology.hl7.org/CodeSystem/observation-category",
                "code": "laboratory"
              }
            ]
          }
        ],
        "code": {
          "coding": [
            {
              "code": "6298-4",
              "system": "http://loinc.org",
              "display": "Potassium [Moles/volume] in Blood"
            }
          ],
          "text": "Potassium [Moles/volume] in Blood"
        },
        "valueQuantity": {
          "system": "http://unitsofmeasure.org",
          "value": 5,
          "unit": "mmol/L",
          "code": "mmol/L"
        },
        "referenceRange": [
          {
            "low": {
              "value": 3.5,
              "code": "mmol/L",
              "system": "http://unitsofmeasure.org"
            }
          },
          {
            "high": {
              "value": 5.1,
              "code": "mmol/L",
              "system": "http://unitsofmeasure.org"
            }
          }
        ],
        "text": {
          "status": "generated",
          "div": "<div xmlns=\"http://www.w3.org/1999/xhtml\"><table class=\"hl7__eu__lab__report\"><tr><th>Test</th><th>19-Jul-2022</th><th>Reference&#xA0;Range</th><th>Unit</th></tr><tr><td>Potassium [Moles/volume] in Blood</td><td>5.0</td><td>3.5 - 5.1</td><td></td><td>mmol/L</td></tr></table></div>"
        },
        "status": "final",
        "subject": {
          "reference": "urn:uuid:9257ac8f-83d0-489a-a240-bd03813e14e2",
          "display": "Meaghan Neary"
        },
        "effectiveDateTime": "2022-07-18T22:11:04Z",
        "specimen": {
          "reference": "urn:uuid:5cb45b9b-9c74-4915-aee4-71c76da20332"
        }
      }
    },
    {
      "fullUrl": "urn:uuid:2866ef3b-241b-43e5-9c6a-ba5de9c425b3",
      "resource": {
        "resourceType": "Observation",
        "id": "2866ef3b-241b-43e5-9c6a-ba5de9c425b3",
        "meta": {
          "profile": [
            "http://hl7.eu/fhir/laboratory/StructureDefinition/Observation-resultslab-eu-lab"
          ]
        },
        "performer": [
          {
            "display": "The Central European Lab"
          }
        ],
        "category": [
          {
            "coding": [
              {
                "system": "http://terminology.hl7.org/CodeSystem/observation-category",
                "code": "laboratory"
              }
            ]
          }
        ],
        "code": {
          "coding": [
            {
              "code": "2069-3",
              "system": "http://loinc.org",
              "display": "Chloride [Moles/volume] in Blood"
            }
          ],
          "text": "Chloride [Moles/volume] in Blood"
        },
        "valueQuantity": {
          "system": "http://unitsofmeasure.org",
          "value": 107.5,
          "unit": "mmol/L",
          "code": "mmol/L"
        },
        "referenceRange": [
          {
            "low": {
              "value": 98,
              "code": "mmol/L",
              "system": "http://unitsofmeasure.org"
            }
          },
          {
            "high": {
              "value": 108,
              "code": "mmol/L",
              "system": "http://unitsofmeasure.org"
            }
          }
        ],
        "text": {
          "status": "generated",
          "div": "<div xmlns=\"http://www.w3.org/1999/xhtml\"><table class=\"hl7__eu__lab__report\"><tr><th>Test</th><th>19-Jul-2022</th><th>Reference&#xA0;Range</th><th>Unit</th></tr><tr><td>Chloride [Moles/volume] in Blood</td><td>107.5</td><td>98 - 108</td><td></td><td>mmol/L</td></tr></table></div>"
        },
        "status": "final",
        "subject": {
          "reference": "urn:uuid:9257ac8f-83d0-489a-a240-bd03813e14e2",
          "display": "Meaghan Neary"
        },
        "effectiveDateTime": "2022-07-18T22:11:04Z",
        "specimen": {
          "reference": "urn:uuid:5cb45b9b-9c74-4915-aee4-71c76da20332"
        }
      }
    },
    {
      "fullUrl": "urn:uuid:fdd67ce3-19bd-4747-aa33-17bb380f48d6",
      "resource": {
        "resourceType": "Observation",
        "id": "fdd67ce3-19bd-4747-aa33-17bb380f48d6",
        "meta": {
          "profile": [
            "http://hl7.eu/fhir/laboratory/StructureDefinition/Observation-resultslab-eu-lab"
          ]
        },
        "performer": [
          {
            "display": "The Central European Lab"
          }
        ],
        "category": [
          {
            "coding": [
              {
                "system": "http://terminology.hl7.org/CodeSystem/observation-category",
                "code": "laboratory"
              }
            ]
          }
        ],
        "code": {
          "coding": [
            {
              "code": "20565-8",
              "system": "http://loinc.org",
              "display": "Carbon dioxide, total [Moles/volume] in Blood"
            }
          ],
          "text": "Carbon dioxide, total [Moles/volume] in Blood"
        },
        "valueQuantity": {
          "system": "http://unitsofmeasure.org",
          "value": 25.7,
          "unit": "mmol/L",
          "code": "mmol/L"
        },
        "referenceRange": [
          {
            "low": {
              "value": 22,
              "code": "mmol/L",
              "system": "http://unitsofmeasure.org"
            }
          },
          {
            "high": {
              "value": 29,
              "code": "mmol/L",
              "system": "http://unitsofmeasure.org"
            }
          }
        ],
        "text": {
          "status": "generated",
          "div": "<div xmlns=\"http://www.w3.org/1999/xhtml\"><table class=\"hl7__eu__lab__report\"><tr><th>Test</th><th>19-Jul-2022</th><th>Reference&#xA0;Range</th><th>Unit</th></tr><tr><td>Carbon dioxide, total [Moles/volume] in Blood</td><td>25.7</td><td>22 - 29</td><td></td><td>mmol/L</td></tr></table></div>"
        },
        "status": "final",
        "subject": {
          "reference": "urn:uuid:9257ac8f-83d0-489a-a240-bd03813e14e2",
          "display": "Meaghan Neary"
        },
        "effectiveDateTime": "2022-07-18T22:11:04Z",
        "specimen": {
          "reference": "urn:uuid:5cb45b9b-9c74-4915-aee4-71c76da20332"
        }
      }
    },
    {
      "fullUrl": "urn:uuid:24aca5d8-0ba4-4aeb-840d-57382bc50444",
      "resource": {
        "resourceType": "Device",
        "id": "24aca5d8-0ba4-4aeb-840d-57382bc50444",
        "deviceName": [
          {
            "name": "SYNDERAI Synthetic Generator",
            "type": "manufacturer-name"
          }
        ],
        "version": [
          {
            "value": "5.0"
          }
        ],
        "text": {
          "status": "generated",
          "div": "<div xmlns=\"http://www.w3.org/1999/xhtml\">SYNDERAI Synthetic Generator v5.0</div>"
        },
        "status": "active\"",
        "distinctIdentifier": "synderai-generator-50",
        "manufacturer": "SYNDERAI Project"
      }
    },
    {
      "fullUrl": "urn:uuid:5ee2ea35-90a6-4923-a26e-9118fe5c8b3c",
      "resource": {
        "resourceType": "Provenance",
        "id": "5ee2ea35-90a6-4923-a26e-9118fe5c8b3c",
        "target": [
          {
            "reference": "Patient/9257ac8f-83d0-489a-a240-bd03813e14e2"
          },
          {
            "reference": "Bundle/c5d0c127-093f-4418-b0bc-9fc780f206d1"
          },
          {
            "reference": "Composition/38619974-3823-4f70-bfe2-11d51dfd0a38"
          },
          {
            "reference": "PractitionerRole/5aa044f0-2268-42f7-aed3-feca17762be7"
          },
          {
            "reference": "Practitioner/d8daced3-75df-4efd-9fd0-f6d854ac6d77"
          },
          {
            "reference": "PractitionerRole/7d19c860-548b-4bb3-90da-d6bbf4d1bf1b"
          },
          {
            "reference": "Organization/039b4303-b16c-4137-9512-df0f7e84db87"
          }
        ],
        "activity": {
          "text": "Synthetic Example Data Generation"
        },
        "policy": [
          "https://synderai.net/synderai-synthetic-data-policy"
        ],
        "agent": [
          {
            "type": {
              "text": "author"
            },
            "who": {
              "reference": "Device/24aca5d8-0ba4-4aeb-840d-57382bc50444"
            }
          }
        ],
        "reason": [
          {
            "text": "Interoperability Testing and Training (non-clinical use)"
          }
        ],
        "text": {
          "status": "generated",
          "div": "<div xmlns=\"http://www.w3.org/1999/xhtml\">Provenance for SYNDERAI Synthetic Example Data Resource</div>"
        },
        "recorded": "2022-07-19T00:11:04Z"
      }
    },
    {
      "fullUrl": "urn:uuid:5aa044f0-2268-42f7-aed3-feca17762be7",
      "resource": {
        "resourceType": "PractitionerRole",
        "id": "5aa044f0-2268-42f7-aed3-feca17762be7",
        "meta": {
          "profile": [
            "http://hl7.eu/fhir/base/StructureDefinition/practitionerRole-eu"
          ]
        },
        "text": {
          "status": "generated",
          "div": "<div xmlns=\"http://www.w3.org/1999/xhtml\">Laboratory Role Id: 5aa044f0-2268-42f7-aed3-feca17762be7</div>"
        },
        "practitioner": {
          "reference": "urn:uuid:d8daced3-75df-4efd-9fd0-f6d854ac6d77"
        }
      }
    },
    {
      "fullUrl": "urn:uuid:d8daced3-75df-4efd-9fd0-f6d854ac6d77",
      "resource": {
        "resourceType": "Practitioner",
        "id": "d8daced3-75df-4efd-9fd0-f6d854ac6d77",
        "meta": {
          "profile": [
            "http://hl7.eu/fhir/base/StructureDefinition/practitioner-eu"
          ]
        },
        "identifier": [
          {
            "assigner": {
              "display": "HL7 Europe"
            },
            "system": "urn:oid:2.16.840.1.113883.2.51.999",
            "value": "d56fff2d-e88f-4f2e-a041-74a6b802f414"
          }
        ],
        "name": [
          {
            "prefix": [
              "dr"
            ],
            "given": [
              "Ex"
            ],
            "family": "Ample"
          }
        ],
        "address": [
          {
            "line": [
              "Laboratoire Central Européenne",
              "Boulevard du Jardin Botanique 32"
            ],
            "postalCode": "1000",
            "city": "Brussels",
            "country": "Belgium"
          }
        ],
        "text": {
          "status": "generated",
          "div": "<div xmlns=\"http://www.w3.org/1999/xhtml\">Laboratory: Laboratoire Central Européenne, 1000 Brussels, Belgium</div>"
        }
      }
    }
  ],
  "type": "document",
  "timestamp": "2022-07-19T00:11:04Z"
}
