{
  "resourceType": "Bundle",
  "id": "a4cb3ee3-c62b-4420-a15b-aa1ef08b56d4",
  "meta": {
    "profile": [
      "http://hl7.eu/fhir/laboratory/StructureDefinition/Bundle-eu-lab"
    ]
  },
  "identifier": {
    "assigner": {
      "display": "HL7 Europe"
    },
    "system": "urn:oid:2.16.840.1.113883.2.51.999",
    "value": "94655614-87cc-43ad-ab05-e33f2fc31c8c"
  },
  "entry": [
    {
      "fullUrl": "urn:uuid:4af624b1-82be-4310-aadc-18e0935f59c8",
      "resource": {
        "resourceType": "Composition",
        "id": "4af624b1-82be-4310-aadc-18e0935f59c8",
        "meta": {
          "profile": [
            "http://hl7.eu/fhir/laboratory/StructureDefinition/Composition-eu-lab"
          ]
        },
        "identifier": {
          "assigner": {
            "display": "HL7 Europe"
          },
          "system": "urn:oid:2.16.840.1.113883.2.51.999",
          "value": "04126b1a-aa1e-4a6f-99a8-1e85f9d2933d"
        },
        "author": [
          {
            "reference": "urn:uuid:34d6e2a2-e892-4ea5-b9db-f1c4828eaf68"
          }
        ],
        "category": [
          {
            "coding": [
              {
                "code": "26436-6",
                "system": "http://loinc.org",
                "display": "Laboratory studies (set)"
              }
            ]
          }
        ],
        "type": {
          "coding": [
            {
              "code": "11502-2",
              "system": "http://loinc.org",
              "display": "Laboratory report"
            }
          ],
          "text": "Laboratory Report"
        },
        "section": [
          {
            "code": {
              "coding": [
                {
                  "code": "26436-6",
                  "system": "http://loinc.org",
                  "display": "Laboratory studies (set)"
                }
              ],
              "text": "Laboratory studies"
            },
            "section": [
              {
                "code": {
                  "coding": [
                    {
                      "code": "$18719-5",
                      "system": "http://loinc.org",
                      "display": "Chemistry studies (set)"
                    }
                  ],
                  "text": "Chemistry"
                },
                "entry": [
                  {
                    "reference": "urn:uuid:55c6bf6e-6460-4307-a6c3-3f3ba8e373dd"
                  },
                  {
                    "reference": "urn:uuid:745e30d4-4941-4f3f-af0e-a20350261711"
                  },
                  {
                    "reference": "urn:uuid:992287a4-84a7-45ae-a743-986824e51e3b"
                  },
                  {
                    "reference": "urn:uuid:358a0bfc-6e1b-4ede-9584-ef67842a0ce1"
                  },
                  {
                    "reference": "urn:uuid:c0fc2db0-0589-4d59-a41f-fd9a55c89ac9"
                  },
                  {
                    "reference": "urn:uuid:0f7b53d3-7b87-4a46-8471-074291b8d30c"
                  },
                  {
                    "reference": "urn:uuid:c63b53da-7408-4ca5-b6fa-69e63b0bde98"
                  },
                  {
                    "reference": "urn:uuid:b5761296-878a-4bf1-9483-00c997f9f7b5"
                  },
                  {
                    "reference": "urn:uuid:430c8ea9-1cf1-4438-b3dc-1276e1c76c82"
                  },
                  {
                    "reference": "urn:uuid:4a9a7862-868a-4908-9b06-13c027eb51c3"
                  },
                  {
                    "reference": "urn:uuid:ea9bfd7c-7960-4410-94a8-85988da9d233"
                  },
                  {
                    "reference": "urn:uuid:2d445195-a9f9-4982-bf95-e964e1ed33c4"
                  },
                  {
                    "reference": "urn:uuid:3b84236a-ef5e-469f-a98d-3fd3b1f4d66e"
                  },
                  {
                    "reference": "urn:uuid:298e0a77-4f47-40df-9838-07d93bad743a"
                  },
                  {
                    "reference": "urn:uuid:f09491f2-e445-440f-8d31-ae5b6dc527b0"
                  },
                  {
                    "reference": "urn:uuid:db9a17fe-2bca-4d3e-8b49-71a952825ade"
                  }
                ],
                "text": {
                  "status": "generated",
                  "div": "<div xmlns=\"http://www.w3.org/1999/xhtml\"><h3>Chemistry</h3><table class=\"hl7__eu__lab__report\"><thead><tr><th>Test</th><th>24-FEB-2018</th><th>Reference&#xA0;Range</th><th>Unit</th></tr></thead><tbody><tr><td>Glucose [Mass/volume] in Blood</td><td>95.5</td><td>70 - 140</td><td>mg/dL</td></tr><tr><td>Urea nitrogen [Mass/volume] in Blood</td><td>16.6</td><td>7 - 30</td><td>mg/dL</td></tr><tr><td>Creatinine [Mass/volume] in Blood</td><td><strong>3.1 H</strong></td><td>0.5 - 1.3</td><td>mg/dL</td></tr><tr><td>Calcium [Mass/volume] in Blood</td><td>10.0</td><td>8.6 - 10.2</td><td>mg/dL</td></tr><tr><td>Sodium [Moles/volume] in Blood</td><td>136.7</td><td>135 - 145</td><td>mmol/L</td></tr><tr><td>Potassium [Moles/volume] in Blood</td><td>3.8</td><td>3.5 - 5.1</td><td>mmol/L</td></tr><tr><td>Chloride [Moles/volume] in Blood</td><td>109.1</td><td>98 - 114</td><td>mmol/L</td></tr><tr><td>Carbon dioxide, total [Moles/volume] in Blood</td><td>23.9</td><td>22 - 32</td><td>mmol/L</td></tr><tr><td>Protein [Mass/volume] in Serum or Plasma</td><td>6.4</td><td>6 - 8.3</td><td>g/dL</td></tr><tr><td>Albumin [Mass/volume] in Serum or Plasma</td><td>5.5</td><td>3.5 - 5.5</td><td>g/dL</td></tr><tr><td>Globulin [Mass/volume] in Serum by calculation</td><td>2.5</td><td>2 - 3.5</td><td>g/L</td></tr><tr><td>Bilirubin.total [Mass/volume] in Serum or Plasma</td><td>1.1</td><td>0.3 - 1.2</td><td>mg/dL</td></tr><tr><td>Alkaline phosphatase [Enzymatic activity/volume] in Serum or Plasma</td><td>119.6</td><td>44 - 142</td><td>U/L</td></tr><tr><td>Alanine aminotransferase [Enzymatic activity/volume] in Serum or Plasma</td><td><strong>50.7 H</strong></td><td>7 - 40</td><td>U/L</td></tr><tr><td>Aspartate aminotransferase [Enzymatic activity/volume] in Serum or Plasma</td><td>28.4</td><td>10 - 40</td><td>U/L</td></tr><tr><td>Ketones [Presence] in Urine by Test strip</td><td>Urine ketone test = +++</td><td></td><td></td></tr></tbody></table></div>"
                },
                "title": "Chemistry"
              },
              {
                "code": {
                  "coding": [
                    {
                      "code": "$18729-4",
                      "system": "http://loinc.org",
                      "display": "Urinalysis studies (set)"
                    }
                  ],
                  "text": "Urinalysis"
                },
                "entry": [
                  {
                    "reference": "urn:uuid:2cdf4c09-f592-4777-b13d-05f6fff79104"
                  },
                  {
                    "reference": "urn:uuid:6af5b538-5504-4cf1-9444-b2fd22b6193f"
                  },
                  {
                    "reference": "urn:uuid:126b2bd2-f600-4705-b82d-8c0acc27da6f"
                  },
                  {
                    "reference": "urn:uuid:128954de-8fc6-4072-a890-1a1d371d0e57"
                  },
                  {
                    "reference": "urn:uuid:727bb454-5d74-4e43-ad8f-50e400c84818"
                  },
                  {
                    "reference": "urn:uuid:54a273b4-31ea-4b4d-a860-949b11e9c2b4"
                  },
                  {
                    "reference": "urn:uuid:6669ce90-4125-4734-a7a0-c98d7214edab"
                  },
                  {
                    "reference": "urn:uuid:6fc0016e-105a-4c39-a23a-0891262b0446"
                  },
                  {
                    "reference": "urn:uuid:5119f8d5-6a54-4bcb-ae1f-3462d18eee5e"
                  },
                  {
                    "reference": "urn:uuid:eb20d4b8-4184-4475-a133-ad76dc8243b7"
                  },
                  {
                    "reference": "urn:uuid:0199697f-859d-453b-be4c-2c4017a9338a"
                  },
                  {
                    "reference": "urn:uuid:74302a30-6d9d-486d-a292-d77bf0d37a52"
                  }
                ],
                "text": {
                  "status": "generated",
                  "div": "<div xmlns=\"http://www.w3.org/1999/xhtml\"><h3>Urinalysis</h3><table class=\"hl7__eu__lab__report\"><thead><tr><th>Test</th><th>24-FEB-2018</th><th>Reference&#xA0;Range</th><th>Unit</th></tr></thead><tbody><tr><td>Glucose [Mass/volume] in Urine by Test strip</td><td><strong>0.5 L</strong></td><td>0.8 - 0</td><td>mg/dL</td></tr><tr><td>Glucose [Presence] in Urine by Test strip</td><td>++</td><td></td><td></td></tr><tr><td>Bilirubin.total [Mass/volume] in Urine by Test strip</td><td>0.4</td><td>0 - 1.5</td><td>mg/dL</td></tr><tr><td>Bilirubin.total [Presence] in Urine by Test strip</td><td>Finding of bilirubin in urine</td><td></td><td></td></tr><tr><td>Ketones [Mass/volume] in Urine by Test strip</td><td>5.7</td><td>0 - 8</td><td>mg/dL</td></tr><tr><td>Specific gravity of Urine by Test strip</td><td><strong>1.0 L</strong></td><td>1.01 - 1.03</td><td>{nominal}</td></tr><tr><td>pH of Urine by Test strip</td><td>5.6</td><td>4.6 - 7.5</td><td>pH</td></tr><tr><td>Protein [Mass/volume] in Urine by Test strip</td><td><strong>318.1 H</strong></td><td>0 - 14</td><td>mg/dL</td></tr><tr><td>Protein [Presence] in Urine by Test strip</td><td>Urine protein test = +++</td><td></td><td></td></tr><tr><td>Nitrite [Presence] in Urine by Test strip</td><td>Urine nitrite negative</td><td></td><td></td></tr><tr><td>Hemoglobin [Presence] in Urine by Test strip</td><td>Urine blood test = negative</td><td></td><td></td></tr><tr><td>Leukocyte esterase [Presence] in Urine by Test strip</td><td>Urine leukocyte test negative</td><td></td><td></td></tr></tbody></table></div>"
                },
                "title": "Urinalysis"
              },
              {
                "code": {
                  "coding": [
                    {
                      "code": "$LP7846-1",
                      "system": "http://loinc.org",
                      "display": "Specimen information"
                    }
                  ],
                  "text": "Specimen information"
                },
                "entry": [
                  {
                    "reference": "urn:uuid:53b8c406-f620-49d7-b847-5228290ee53b"
                  },
                  {
                    "reference": "urn:uuid:bdf6b255-5658-463d-9da5-a769005a4eb7"
                  },
                  {
                    "reference": "urn:uuid:22034840-4eb3-436d-a70f-d4a69c7b6177"
                  },
                  {
                    "reference": "urn:uuid:29be6e62-aee3-4968-833c-537bf4c2fd8b"
                  }
                ],
                "text": {
                  "status": "generated",
                  "div": "<div xmlns=\"http://www.w3.org/1999/xhtml\"><h3>Specimen information</h3><table class=\"hl7__eu__lab__report\"><thead><tr><th>Test</th><th>24-FEB-2018</th><th>Specimen</th><th></th></tr></thead><tbody><tr><td>Appearance of Urine</td><td>Cloudy urine</td><td>Urine</td><td></td></tr><tr><td>Odor of Urine</td><td>Urine smell ammoniacal</td><td>Urine</td><td></td></tr><tr><td>Clarity of Urine</td><td>Translucent</td><td>Urine</td><td></td></tr><tr><td>Color of Urine</td><td>Brown color</td><td>Urine</td><td></td></tr></tbody></table></div>"
                },
                "title": "Specimen information"
              }
            ],
            "title": "Laboratory Report"
          },
          {
            "text": {
              "status": "generated",
              "div": "<div xmlns=\"http://www.w3.org/1999/xhtml\"><h3>Annotation</h3><table class=\"hl7__eu__lab__report\"><tr><th>Conclusion and Recommendations based on this report and previous findings known to us</th></tr><tr><td>The patient shows markedly elevated serum creatinine, indicating significant renal impairment, and elevated ALT, suggesting possible liver involvement. Urinalysis reveals proteinuria, glucosuria, ketonuria, low specific gravity, and abnormal urine appearance, supporting renal dysfunction and possible metabolic derangement (e.g., diabetes or acute illness). Further clinical correlation and nephrology evaluation are recommended.</td></tr></table></div>"
            },
            "code": {
              "coding": [
                {
                  "system": "http://loinc.org",
                  "code": "48767-8",
                  "display": "Annotation comment"
                }
              ]
            },
            "title": "Annotation comment"
          }
        ],
        "status": "final",
        "subject": {
          "reference": "urn:uuid:506b7aef-fc29-4895-add7-aa39e6034667",
          "display": "Maria Nohlmans"
        },
        "date": "2018-02-24T19:00:39Z",
        "title": "Laboratory Report",
        "confidentiality": "N"
      }
    },
    {
      "fullUrl": "urn:uuid:0ee2814e-f1c2-48c9-9629-4347a0ac9fe4",
      "resource": {
        "resourceType": "DiagnosticReport",
        "id": "0ee2814e-f1c2-48c9-9629-4347a0ac9fe4",
        "meta": {
          "profile": [
            "http://hl7.eu/fhir/laboratory/StructureDefinition/DiagnosticReport-eu-lab"
          ]
        },
        "identifier": [
          {
            "assigner": {
              "display": "HL7 Europe"
            },
            "system": "urn:oid:2.16.840.1.113883.2.51.999",
            "value": "1c08eb18-12e8-45bf-ab85-8f943427900e"
          }
        ],
        "extension": [
          {
            "url": "http://hl7.org/fhir/5.0/StructureDefinition/extension-DiagnosticReport.composition",
            "valueReference": {
              "reference": "urn:uuid:04126b1a-aa1e-4a6f-99a8-1e85f9d2933d"
            }
          }
        ],
        "category": [
          {
            "coding": [
              {
                "code": "26436-6",
                "system": "http://loinc.org",
                "display": "Laboratory studies (set)"
              }
            ]
          }
        ],
        "specimen": [
          {
            "reference": "urn:uuid:05276a11-e83d-4426-93b3-6d38e3a278b9"
          },
          {
            "reference": "urn:uuid:0efedf66-b093-4e21-98f6-58d743c8df12"
          },
          {
            "reference": "urn:uuid:1e04c9a2-d4d5-4ff0-b065-bab4d9acea14"
          },
          {
            "reference": "urn:uuid:684b1bf6-fbff-4949-9b65-3f03960550d6"
          }
        ],
        "result": [
          {
            "reference": "urn:uuid:55c6bf6e-6460-4307-a6c3-3f3ba8e373dd"
          },
          {
            "reference": "urn:uuid:745e30d4-4941-4f3f-af0e-a20350261711"
          },
          {
            "reference": "urn:uuid:992287a4-84a7-45ae-a743-986824e51e3b"
          },
          {
            "reference": "urn:uuid:358a0bfc-6e1b-4ede-9584-ef67842a0ce1"
          },
          {
            "reference": "urn:uuid:c0fc2db0-0589-4d59-a41f-fd9a55c89ac9"
          },
          {
            "reference": "urn:uuid:0f7b53d3-7b87-4a46-8471-074291b8d30c"
          },
          {
            "reference": "urn:uuid:c63b53da-7408-4ca5-b6fa-69e63b0bde98"
          },
          {
            "reference": "urn:uuid:b5761296-878a-4bf1-9483-00c997f9f7b5"
          },
          {
            "reference": "urn:uuid:430c8ea9-1cf1-4438-b3dc-1276e1c76c82"
          },
          {
            "reference": "urn:uuid:4a9a7862-868a-4908-9b06-13c027eb51c3"
          },
          {
            "reference": "urn:uuid:ea9bfd7c-7960-4410-94a8-85988da9d233"
          },
          {
            "reference": "urn:uuid:2d445195-a9f9-4982-bf95-e964e1ed33c4"
          },
          {
            "reference": "urn:uuid:3b84236a-ef5e-469f-a98d-3fd3b1f4d66e"
          },
          {
            "reference": "urn:uuid:298e0a77-4f47-40df-9838-07d93bad743a"
          },
          {
            "reference": "urn:uuid:f09491f2-e445-440f-8d31-ae5b6dc527b0"
          },
          {
            "reference": "urn:uuid:53b8c406-f620-49d7-b847-5228290ee53b"
          },
          {
            "reference": "urn:uuid:bdf6b255-5658-463d-9da5-a769005a4eb7"
          },
          {
            "reference": "urn:uuid:22034840-4eb3-436d-a70f-d4a69c7b6177"
          },
          {
            "reference": "urn:uuid:29be6e62-aee3-4968-833c-537bf4c2fd8b"
          },
          {
            "reference": "urn:uuid:2cdf4c09-f592-4777-b13d-05f6fff79104"
          },
          {
            "reference": "urn:uuid:6af5b538-5504-4cf1-9444-b2fd22b6193f"
          },
          {
            "reference": "urn:uuid:126b2bd2-f600-4705-b82d-8c0acc27da6f"
          },
          {
            "reference": "urn:uuid:128954de-8fc6-4072-a890-1a1d371d0e57"
          },
          {
            "reference": "urn:uuid:727bb454-5d74-4e43-ad8f-50e400c84818"
          },
          {
            "reference": "urn:uuid:db9a17fe-2bca-4d3e-8b49-71a952825ade"
          },
          {
            "reference": "urn:uuid:54a273b4-31ea-4b4d-a860-949b11e9c2b4"
          },
          {
            "reference": "urn:uuid:6669ce90-4125-4734-a7a0-c98d7214edab"
          },
          {
            "reference": "urn:uuid:6fc0016e-105a-4c39-a23a-0891262b0446"
          },
          {
            "reference": "urn:uuid:5119f8d5-6a54-4bcb-ae1f-3462d18eee5e"
          },
          {
            "reference": "urn:uuid:eb20d4b8-4184-4475-a133-ad76dc8243b7"
          },
          {
            "reference": "urn:uuid:0199697f-859d-453b-be4c-2c4017a9338a"
          },
          {
            "reference": "urn:uuid:74302a30-6d9d-486d-a292-d77bf0d37a52"
          }
        ],
        "status": "registered",
        "code": {
          "coding": [
            {
              "code": "11502-2",
              "system": "http://loinc.org",
              "display": "Laboratory report"
            }
          ]
        },
        "subject": {
          "reference": "urn:uuid:506b7aef-fc29-4895-add7-aa39e6034667",
          "display": "Maria Nohlmans"
        }
      }
    },
    {
      "fullUrl": "urn:uuid:506b7aef-fc29-4895-add7-aa39e6034667",
      "resource": {
        "resourceType": "Patient",
        "id": "506b7aef-fc29-4895-add7-aa39e6034667",
        "meta": {
          "security": [
            {
              "system": "http://terminology.hl7.org/CodeSystem/v3-ActReason",
              "code": "HTEST"
            },
            {
              "system": "http://terminology.hl7.org/CodeSystem/v3-ActReason",
              "code": "TRAIN"
            }
          ],
          "tag": [
            {
              "system": "https://synderai.net/fhir/CodeSystem/tags",
              "code": "synthetic",
              "display": "SYNDERAI Synthetic data"
            }
          ],
          "profile": [
            "http://hl7.eu/fhir/base/StructureDefinition/patient-eu-core"
          ]
        },
        "identifier": [
          {
            "type": {
              "coding": [
                {
                  "code": "PT",
                  "system": "http://terminology.hl7.org/CodeSystem/v2-0203"
                }
              ]
            },
            "system": "http://ec.europa.eu/identifier/eci",
            "value": "6886-506417-1"
          },
          {
            "type": {
              "coding": [
                {
                  "code": "MR",
                  "system": "http://terminology.hl7.org/CodeSystem/v2-0203"
                }
              ]
            },
            "system": "http://local.setting.eu/identifier",
            "value": "2cb21ed6-b617-b1f3-2290-589a710de5ee"
          }
        ],
        "name": [
          {
            "family": "Nohlmans"
          },
          {
            "given": [
              "Maria"
            ]
          },
          {
            "text": "Maria Nohlmans"
          }
        ],
        "address": [
          {
            "line": [
              "Alfons-Wulff-Weg 1"
            ],
            "use": "home",
            "type": "physical",
            "postalCode": "25813",
            "city": "Husum",
            "country": "Germany"
          }
        ],
        "telecom": [
          {
            "system": "phone",
            "value": "+49(0)1911 105501"
          }
        ],
        "extension": [
          {
            "url": "http://hl7.org/fhir/StructureDefinition/patient-nationality",
            "valueCodeableConcept": {
              "coding": [
                {
                  "code": "DE",
                  "system": "http://hl7.org/fhir/ValueSet/country"
                }
              ]
            }
          }
        ],
        "text": {
          "status": "generated",
          "div": "<div xmlns=\"http://www.w3.org/1999/xhtml\"><table class=\"hl7__ips\"><tr><td>Maria Nohlmans</td><td>female</td><td>11-Jun-1947</td></tr></table></div>"
        },
        "gender": "female",
        "birthDate": "1947-06-11"
      }
    },
    {
      "fullUrl": "urn:uuid:dd9840b8-0f26-44d7-84b0-4c0234cfb79e",
      "resource": {
        "resourceType": "ServiceRequest",
        "id": "dd9840b8-0f26-44d7-84b0-4c0234cfb79e",
        "meta": {
          "profile": [
            "http://hl7.eu/fhir/laboratory/StructureDefinition/ServiceRequest-eu-lab"
          ]
        },
        "identifier": [
          {
            "system": "http://example.org",
            "value": "cb9b876b-274f-4e1e-a1e4-0b2edc336f9a"
          }
        ],
        "specimen": [
          {
            "reference": "urn:uuid:05276a11-e83d-4426-93b3-6d38e3a278b9"
          },
          {
            "reference": "urn:uuid:0efedf66-b093-4e21-98f6-58d743c8df12"
          },
          {
            "reference": "urn:uuid:1e04c9a2-d4d5-4ff0-b065-bab4d9acea14"
          },
          {
            "reference": "urn:uuid:684b1bf6-fbff-4949-9b65-3f03960550d6"
          }
        ],
        "reasonCode": [
          {
            "coding": [
              {
                "code": "401314000",
                "system": "http://snomed.info/sct",
                "display": "Acute non-ST segment elevation myocardial infarction"
              }
            ]
          },
          {
            "coding": [
              {
                "code": "157141000119108",
                "system": "http://snomed.info/sct",
                "display": "Proteinuria due to type 2 diabetes mellitus"
              }
            ]
          },
          {
            "coding": [
              {
                "code": "237602007",
                "system": "http://snomed.info/sct",
                "display": "Metabolic syndrome X"
              }
            ]
          },
          {
            "coding": [
              {
                "code": "90781000119102",
                "system": "http://snomed.info/sct",
                "display": "Microalbuminuria due to type 2 diabetes mellitus"
              }
            ]
          },
          {
            "coding": [
              {
                "code": "127013003",
                "system": "http://snomed.info/sct",
                "display": "Disorder of kidney due to diabetes mellitus"
              }
            ]
          },
          {
            "coding": [
              {
                "code": "59621000",
                "system": "http://snomed.info/sct",
                "display": "Essential hypertension"
              }
            ]
          },
          {
            "coding": [
              {
                "code": "271737000",
                "system": "http://snomed.info/sct",
                "display": "Anemia"
              }
            ]
          },
          {
            "coding": [
              {
                "code": "15777000",
                "system": "http://snomed.info/sct",
                "display": "Prediabetes"
              }
            ]
          }
        ],
        "status": "active",
        "intent": "order",
        "code": {
          "coding": [
            {
              "code": "108252007",
              "system": "http://snomed.info/sct",
              "display": "Laboratory procedure"
            }
          ]
        },
        "subject": {
          "reference": "urn:uuid:506b7aef-fc29-4895-add7-aa39e6034667",
          "display": "Maria Nohlmans"
        },
        "requester": {
          "reference": "urn:uuid:731b4563-c1fa-424a-8572-d617ab593286"
        }
      }
    },
    {
      "fullUrl": "urn:uuid:731b4563-c1fa-424a-8572-d617ab593286",
      "resource": {
        "resourceType": "PractitionerRole",
        "id": "731b4563-c1fa-424a-8572-d617ab593286",
        "meta": {
          "profile": [
            "http://hl7.eu/fhir/base/StructureDefinition/practitionerRole-eu"
          ]
        },
        "text": {
          "status": "generated",
          "div": "<div xmlns=\"http://www.w3.org/1999/xhtml\">Provider Role Id: 731b4563-c1fa-424a-8572-d617ab593286</div>"
        },
        "organization": {
          "reference": "urn:uuid:88e429fa-f9ce-4e8a-864b-e5c84537640b"
        }
      }
    },
    {
      "fullUrl": "urn:uuid:88e429fa-f9ce-4e8a-864b-e5c84537640b",
      "resource": {
        "resourceType": "Organization",
        "id": "88e429fa-f9ce-4e8a-864b-e5c84537640b",
        "meta": {
          "profile": [
            "http://hl7.eu/fhir/base/StructureDefinition/organization-eu"
          ]
        },
        "identifier": [
          {
            "assigner": {
              "display": "HL7 Europe"
            },
            "system": "urn:oid:2.16.840.1.113883.2.51.999",
            "value": "7869914b-fc26-4fe1-8457-01e7dbd02068"
          }
        ],
        "address": [
          {
            "line": [
              "Brinckmannstraße 35"
            ],
            "city": "Husum",
            "postalCode": "25813",
            "country": "Germany"
          }
        ],
        "text": {
          "status": "generated",
          "div": "<div xmlns=\"http://www.w3.org/1999/xhtml\">Provider Organization: Dr. Wolfram Hussels Kieferorthopäde</div>"
        },
        "name": "Dr. Wolfram Hussels Kieferorthopäde"
      }
    },
    {
      "fullUrl": "urn:uuid:05276a11-e83d-4426-93b3-6d38e3a278b9",
      "resource": {
        "resourceType": "Specimen",
        "id": "05276a11-e83d-4426-93b3-6d38e3a278b9",
        "meta": {
          "profile": [
            "http://hl7.eu/fhir/laboratory/StructureDefinition/Specimen-eu-lab"
          ]
        },
        "collection": {
          "collectedDateTime": "2018-02-24"
        },
        "text": {
          "status": "generated",
          "div": "<div xmlns=\"http://www.w3.org/1999/xhtml\"><table class=\"hl7__eu__lab__report\"><tr><th>Specimen</th><th>Collection Date</th></tr><tr><td>Whole blood specimen (specimen)</td><td><span class=\"nb\">24-Feb-2018</span></td></tr></table></div>"
        },
        "type": {
          "coding": [
            {
              "code": "258580003",
              "system": "http://snomed.info/sct",
              "display": "Whole blood specimen (specimen)"
            }
          ]
        }
      }
    },
    {
      "fullUrl": "urn:uuid:0efedf66-b093-4e21-98f6-58d743c8df12",
      "resource": {
        "resourceType": "Specimen",
        "id": "0efedf66-b093-4e21-98f6-58d743c8df12",
        "meta": {
          "profile": [
            "http://hl7.eu/fhir/laboratory/StructureDefinition/Specimen-eu-lab"
          ]
        },
        "collection": {
          "collectedDateTime": "2018-02-24"
        },
        "text": {
          "status": "generated",
          "div": "<div xmlns=\"http://www.w3.org/1999/xhtml\"><table class=\"hl7__eu__lab__report\"><tr><th>Specimen</th><th>Collection Date</th></tr><tr><td>Acellular blood (serum or plasma) specimen</td><td><span class=\"nb\">24-Feb-2018</span></td></tr></table></div>"
        },
        "type": {
          "coding": [
            {
              "code": "122592007",
              "system": "http://snomed.info/sct",
              "display": "Acellular blood (serum or plasma) specimen"
            }
          ]
        }
      }
    },
    {
      "fullUrl": "urn:uuid:1e04c9a2-d4d5-4ff0-b065-bab4d9acea14",
      "resource": {
        "resourceType": "Specimen",
        "id": "1e04c9a2-d4d5-4ff0-b065-bab4d9acea14",
        "meta": {
          "profile": [
            "http://hl7.eu/fhir/laboratory/StructureDefinition/Specimen-eu-lab"
          ]
        },
        "collection": {
          "collectedDateTime": "2018-02-24"
        },
        "text": {
          "status": "generated",
          "div": "<div xmlns=\"http://www.w3.org/1999/xhtml\"><table class=\"hl7__eu__lab__report\"><tr><th>Specimen</th><th>Collection Date</th></tr><tr><td>Serum specimen</td><td><span class=\"nb\">24-Feb-2018</span></td></tr></table></div>"
        },
        "type": {
          "coding": [
            {
              "code": "119364003",
              "system": "http://snomed.info/sct",
              "display": "Serum specimen"
            }
          ]
        }
      }
    },
    {
      "fullUrl": "urn:uuid:684b1bf6-fbff-4949-9b65-3f03960550d6",
      "resource": {
        "resourceType": "Specimen",
        "id": "684b1bf6-fbff-4949-9b65-3f03960550d6",
        "meta": {
          "profile": [
            "http://hl7.eu/fhir/laboratory/StructureDefinition/Specimen-eu-lab"
          ]
        },
        "collection": {
          "collectedDateTime": "2018-02-24"
        },
        "text": {
          "status": "generated",
          "div": "<div xmlns=\"http://www.w3.org/1999/xhtml\"><table class=\"hl7__eu__lab__report\"><tr><th>Specimen</th><th>Collection Date</th></tr><tr><td>Urine specimen</td><td><span class=\"nb\">24-Feb-2018</span></td></tr></table></div>"
        },
        "type": {
          "coding": [
            {
              "code": "122575003",
              "system": "http://snomed.info/sct",
              "display": "Urine specimen"
            }
          ]
        }
      }
    },
    {
      "fullUrl": "urn:uuid:55c6bf6e-6460-4307-a6c3-3f3ba8e373dd",
      "resource": {
        "resourceType": "Observation",
        "id": "55c6bf6e-6460-4307-a6c3-3f3ba8e373dd",
        "meta": {
          "profile": [
            "http://hl7.eu/fhir/laboratory/StructureDefinition/Observation-resultslab-eu-lab"
          ]
        },
        "performer": [
          {
            "display": "The Central European Lab"
          }
        ],
        "category": [
          {
            "coding": [
              {
                "system": "http://terminology.hl7.org/CodeSystem/observation-category",
                "code": "laboratory"
              }
            ]
          }
        ],
        "code": {
          "coding": [
            {
              "code": "2339-0",
              "system": "http://loinc.org",
              "display": "Glucose [Mass/volume] in Blood"
            }
          ],
          "text": "Glucose [Mass/volume] in Blood"
        },
        "valueQuantity": {
          "system": "http://unitsofmeasure.org",
          "value": 95.5,
          "unit": "mg/dL",
          "code": "mg/dL"
        },
        "referenceRange": [
          {
            "low": {
              "value": 70,
              "code": "mg/dL",
              "system": "http://unitsofmeasure.org"
            }
          },
          {
            "high": {
              "value": 140,
              "code": "mg/dL",
              "system": "http://unitsofmeasure.org"
            }
          }
        ],
        "text": {
          "status": "generated",
          "div": "<div xmlns=\"http://www.w3.org/1999/xhtml\"><table class=\"hl7__eu__lab__report\"><tr><th>Test</th><th>24-Feb-2018</th><th>Reference&#xA0;Range</th><th>Unit</th></tr><tr><td>Glucose [Mass/volume] in Blood</td><td>95.5</td><td>70 - 140</td><td></td><td>mg/dL</td></tr></table></div>"
        },
        "status": "final",
        "subject": {
          "reference": "urn:uuid:506b7aef-fc29-4895-add7-aa39e6034667",
          "display": "Maria Nohlmans"
        },
        "effectiveDateTime": "2018-02-24T18:00:39Z",
        "specimen": {
          "reference": "urn:uuid:05276a11-e83d-4426-93b3-6d38e3a278b9"
        }
      }
    },
    {
      "fullUrl": "urn:uuid:745e30d4-4941-4f3f-af0e-a20350261711",
      "resource": {
        "resourceType": "Observation",
        "id": "745e30d4-4941-4f3f-af0e-a20350261711",
        "meta": {
          "profile": [
            "http://hl7.eu/fhir/laboratory/StructureDefinition/Observation-resultslab-eu-lab"
          ]
        },
        "performer": [
          {
            "display": "The Central European Lab"
          }
        ],
        "category": [
          {
            "coding": [
              {
                "system": "http://terminology.hl7.org/CodeSystem/observation-category",
                "code": "laboratory"
              }
            ]
          }
        ],
        "code": {
          "coding": [
            {
              "code": "6299-2",
              "system": "http://loinc.org",
              "display": "Urea nitrogen [Mass/volume] in Blood"
            }
          ],
          "text": "Urea nitrogen [Mass/volume] in Blood"
        },
        "valueQuantity": {
          "system": "http://unitsofmeasure.org",
          "value": 16.6,
          "unit": "mg/dL",
          "code": "mg/dL"
        },
        "referenceRange": [
          {
            "low": {
              "value": 7,
              "code": "mg/dL",
              "system": "http://unitsofmeasure.org"
            }
          },
          {
            "high": {
              "value": 30,
              "code": "mg/dL",
              "system": "http://unitsofmeasure.org"
            }
          }
        ],
        "text": {
          "status": "generated",
          "div": "<div xmlns=\"http://www.w3.org/1999/xhtml\"><table class=\"hl7__eu__lab__report\"><tr><th>Test</th><th>24-Feb-2018</th><th>Reference&#xA0;Range</th><th>Unit</th></tr><tr><td>Urea nitrogen [Mass/volume] in Blood</td><td>16.6</td><td>7 - 30</td><td></td><td>mg/dL</td></tr></table></div>"
        },
        "status": "final",
        "subject": {
          "reference": "urn:uuid:506b7aef-fc29-4895-add7-aa39e6034667",
          "display": "Maria Nohlmans"
        },
        "effectiveDateTime": "2018-02-24T18:00:39Z",
        "specimen": {
          "reference": "urn:uuid:05276a11-e83d-4426-93b3-6d38e3a278b9"
        }
      }
    },
    {
      "fullUrl": "urn:uuid:992287a4-84a7-45ae-a743-986824e51e3b",
      "resource": {
        "resourceType": "Observation",
        "id": "992287a4-84a7-45ae-a743-986824e51e3b",
        "meta": {
          "profile": [
            "http://hl7.eu/fhir/laboratory/StructureDefinition/Observation-resultslab-eu-lab"
          ]
        },
        "performer": [
          {
            "display": "The Central European Lab"
          }
        ],
        "category": [
          {
            "coding": [
              {
                "system": "http://terminology.hl7.org/CodeSystem/observation-category",
                "code": "laboratory"
              }
            ]
          }
        ],
        "code": {
          "coding": [
            {
              "code": "38483-4",
              "system": "http://loinc.org",
              "display": "Creatinine [Mass/volume] in Blood"
            }
          ],
          "text": "Creatinine [Mass/volume] in Blood"
        },
        "valueQuantity": {
          "system": "http://unitsofmeasure.org",
          "value": 3.1,
          "unit": "mg/dL",
          "code": "mg/dL"
        },
        "referenceRange": [
          {
            "low": {
              "value": 0.5,
              "code": "mg/dL",
              "system": "http://unitsofmeasure.org"
            }
          },
          {
            "high": {
              "value": 1.3,
              "code": "mg/dL",
              "system": "http://unitsofmeasure.org"
            }
          }
        ],
        "interpretation": [
          {
            "coding": [
              {
                "code": "H",
                "system": "http://terminology.hl7.org/CodeSystem/v3-ObservationInterpretation",
                "display": "High"
              }
            ]
          }
        ],
        "text": {
          "status": "generated",
          "div": "<div xmlns=\"http://www.w3.org/1999/xhtml\"><table class=\"hl7__eu__lab__report\"><tr><th>Test</th><th>24-Feb-2018</th><th>Reference&#xA0;Range</th><th>Unit</th></tr><tr><td>Creatinine [Mass/volume] in Blood</td><td>3.1</td><td>0.5 - 1.3</td><td>H</td><td>mg/dL</td></tr></table></div>"
        },
        "status": "final",
        "subject": {
          "reference": "urn:uuid:506b7aef-fc29-4895-add7-aa39e6034667",
          "display": "Maria Nohlmans"
        },
        "effectiveDateTime": "2018-02-24T18:00:39Z",
        "specimen": {
          "reference": "urn:uuid:05276a11-e83d-4426-93b3-6d38e3a278b9"
        }
      }
    },
    {
      "fullUrl": "urn:uuid:358a0bfc-6e1b-4ede-9584-ef67842a0ce1",
      "resource": {
        "resourceType": "Observation",
        "id": "358a0bfc-6e1b-4ede-9584-ef67842a0ce1",
        "meta": {
          "profile": [
            "http://hl7.eu/fhir/laboratory/StructureDefinition/Observation-resultslab-eu-lab"
          ]
        },
        "performer": [
          {
            "display": "The Central European Lab"
          }
        ],
        "category": [
          {
            "coding": [
              {
                "system": "http://terminology.hl7.org/CodeSystem/observation-category",
                "code": "laboratory"
              }
            ]
          }
        ],
        "code": {
          "coding": [
            {
              "code": "49765-1",
              "system": "http://loinc.org",
              "display": "Calcium [Mass/volume] in Blood"
            }
          ],
          "text": "Calcium [Mass/volume] in Blood"
        },
        "valueQuantity": {
          "system": "http://unitsofmeasure.org",
          "value": 10,
          "unit": "mg/dL",
          "code": "mg/dL"
        },
        "referenceRange": [
          {
            "low": {
              "value": 8.6,
              "code": "mg/dL",
              "system": "http://unitsofmeasure.org"
            }
          },
          {
            "high": {
              "value": 10.2,
              "code": "mg/dL",
              "system": "http://unitsofmeasure.org"
            }
          }
        ],
        "text": {
          "status": "generated",
          "div": "<div xmlns=\"http://www.w3.org/1999/xhtml\"><table class=\"hl7__eu__lab__report\"><tr><th>Test</th><th>24-Feb-2018</th><th>Reference&#xA0;Range</th><th>Unit</th></tr><tr><td>Calcium [Mass/volume] in Blood</td><td>10.0</td><td>8.6 - 10.2</td><td></td><td>mg/dL</td></tr></table></div>"
        },
        "status": "final",
        "subject": {
          "reference": "urn:uuid:506b7aef-fc29-4895-add7-aa39e6034667",
          "display": "Maria Nohlmans"
        },
        "effectiveDateTime": "2018-02-24T18:00:39Z",
        "specimen": {
          "reference": "urn:uuid:05276a11-e83d-4426-93b3-6d38e3a278b9"
        }
      }
    },
    {
      "fullUrl": "urn:uuid:c0fc2db0-0589-4d59-a41f-fd9a55c89ac9",
      "resource": {
        "resourceType": "Observation",
        "id": "c0fc2db0-0589-4d59-a41f-fd9a55c89ac9",
        "meta": {
          "profile": [
            "http://hl7.eu/fhir/laboratory/StructureDefinition/Observation-resultslab-eu-lab"
          ]
        },
        "performer": [
          {
            "display": "The Central European Lab"
          }
        ],
        "category": [
          {
            "coding": [
              {
                "system": "http://terminology.hl7.org/CodeSystem/observation-category",
                "code": "laboratory"
              }
            ]
          }
        ],
        "code": {
          "coding": [
            {
              "code": "2947-0",
              "system": "http://loinc.org",
              "display": "Sodium [Moles/volume] in Blood"
            }
          ],
          "text": "Sodium [Moles/volume] in Blood"
        },
        "valueQuantity": {
          "system": "http://unitsofmeasure.org",
          "value": 136.7,
          "unit": "mmol/L",
          "code": "mmol/L"
        },
        "referenceRange": [
          {
            "low": {
              "value": 135,
              "code": "mmol/L",
              "system": "http://unitsofmeasure.org"
            }
          },
          {
            "high": {
              "value": 145,
              "code": "mmol/L",
              "system": "http://unitsofmeasure.org"
            }
          }
        ],
        "text": {
          "status": "generated",
          "div": "<div xmlns=\"http://www.w3.org/1999/xhtml\"><table class=\"hl7__eu__lab__report\"><tr><th>Test</th><th>24-Feb-2018</th><th>Reference&#xA0;Range</th><th>Unit</th></tr><tr><td>Sodium [Moles/volume] in Blood</td><td>136.7</td><td>135 - 145</td><td></td><td>mmol/L</td></tr></table></div>"
        },
        "status": "final",
        "subject": {
          "reference": "urn:uuid:506b7aef-fc29-4895-add7-aa39e6034667",
          "display": "Maria Nohlmans"
        },
        "effectiveDateTime": "2018-02-24T18:00:39Z",
        "specimen": {
          "reference": "urn:uuid:05276a11-e83d-4426-93b3-6d38e3a278b9"
        }
      }
    },
    {
      "fullUrl": "urn:uuid:0f7b53d3-7b87-4a46-8471-074291b8d30c",
      "resource": {
        "resourceType": "Observation",
        "id": "0f7b53d3-7b87-4a46-8471-074291b8d30c",
        "meta": {
          "profile": [
            "http://hl7.eu/fhir/laboratory/StructureDefinition/Observation-resultslab-eu-lab"
          ]
        },
        "performer": [
          {
            "display": "The Central European Lab"
          }
        ],
        "category": [
          {
            "coding": [
              {
                "system": "http://terminology.hl7.org/CodeSystem/observation-category",
                "code": "laboratory"
              }
            ]
          }
        ],
        "code": {
          "coding": [
            {
              "code": "6298-4",
              "system": "http://loinc.org",
              "display": "Potassium [Moles/volume] in Blood"
            }
          ],
          "text": "Potassium [Moles/volume] in Blood"
        },
        "valueQuantity": {
          "system": "http://unitsofmeasure.org",
          "value": 3.8,
          "unit": "mmol/L",
          "code": "mmol/L"
        },
        "referenceRange": [
          {
            "low": {
              "value": 3.5,
              "code": "mmol/L",
              "system": "http://unitsofmeasure.org"
            }
          },
          {
            "high": {
              "value": 5.1,
              "code": "mmol/L",
              "system": "http://unitsofmeasure.org"
            }
          }
        ],
        "text": {
          "status": "generated",
          "div": "<div xmlns=\"http://www.w3.org/1999/xhtml\"><table class=\"hl7__eu__lab__report\"><tr><th>Test</th><th>24-Feb-2018</th><th>Reference&#xA0;Range</th><th>Unit</th></tr><tr><td>Potassium [Moles/volume] in Blood</td><td>3.8</td><td>3.5 - 5.1</td><td></td><td>mmol/L</td></tr></table></div>"
        },
        "status": "final",
        "subject": {
          "reference": "urn:uuid:506b7aef-fc29-4895-add7-aa39e6034667",
          "display": "Maria Nohlmans"
        },
        "effectiveDateTime": "2018-02-24T18:00:39Z",
        "specimen": {
          "reference": "urn:uuid:05276a11-e83d-4426-93b3-6d38e3a278b9"
        }
      }
    },
    {
      "fullUrl": "urn:uuid:c63b53da-7408-4ca5-b6fa-69e63b0bde98",
      "resource": {
        "resourceType": "Observation",
        "id": "c63b53da-7408-4ca5-b6fa-69e63b0bde98",
        "meta": {
          "profile": [
            "http://hl7.eu/fhir/laboratory/StructureDefinition/Observation-resultslab-eu-lab"
          ]
        },
        "performer": [
          {
            "display": "The Central European Lab"
          }
        ],
        "category": [
          {
            "coding": [
              {
                "system": "http://terminology.hl7.org/CodeSystem/observation-category",
                "code": "laboratory"
              }
            ]
          }
        ],
        "code": {
          "coding": [
            {
              "code": "2069-3",
              "system": "http://loinc.org",
              "display": "Chloride [Moles/volume] in Blood"
            }
          ],
          "text": "Chloride [Moles/volume] in Blood"
        },
        "valueQuantity": {
          "system": "http://unitsofmeasure.org",
          "value": 109.1,
          "unit": "mmol/L",
          "code": "mmol/L"
        },
        "referenceRange": [
          {
            "low": {
              "value": 98,
              "code": "mmol/L",
              "system": "http://unitsofmeasure.org"
            }
          },
          {
            "high": {
              "value": 114,
              "code": "mmol/L",
              "system": "http://unitsofmeasure.org"
            }
          }
        ],
        "text": {
          "status": "generated",
          "div": "<div xmlns=\"http://www.w3.org/1999/xhtml\"><table class=\"hl7__eu__lab__report\"><tr><th>Test</th><th>24-Feb-2018</th><th>Reference&#xA0;Range</th><th>Unit</th></tr><tr><td>Chloride [Moles/volume] in Blood</td><td>109.1</td><td>98 - 114</td><td></td><td>mmol/L</td></tr></table></div>"
        },
        "status": "final",
        "subject": {
          "reference": "urn:uuid:506b7aef-fc29-4895-add7-aa39e6034667",
          "display": "Maria Nohlmans"
        },
        "effectiveDateTime": "2018-02-24T18:00:39Z",
        "specimen": {
          "reference": "urn:uuid:05276a11-e83d-4426-93b3-6d38e3a278b9"
        }
      }
    },
    {
      "fullUrl": "urn:uuid:b5761296-878a-4bf1-9483-00c997f9f7b5",
      "resource": {
        "resourceType": "Observation",
        "id": "b5761296-878a-4bf1-9483-00c997f9f7b5",
        "meta": {
          "profile": [
            "http://hl7.eu/fhir/laboratory/StructureDefinition/Observation-resultslab-eu-lab"
          ]
        },
        "performer": [
          {
            "display": "The Central European Lab"
          }
        ],
        "category": [
          {
            "coding": [
              {
                "system": "http://terminology.hl7.org/CodeSystem/observation-category",
                "code": "laboratory"
              }
            ]
          }
        ],
        "code": {
          "coding": [
            {
              "code": "20565-8",
              "system": "http://loinc.org",
              "display": "Carbon dioxide, total [Moles/volume] in Blood"
            }
          ],
          "text": "Carbon dioxide, total [Moles/volume] in Blood"
        },
        "valueQuantity": {
          "system": "http://unitsofmeasure.org",
          "value": 23.9,
          "unit": "mmol/L",
          "code": "mmol/L"
        },
        "referenceRange": [
          {
            "low": {
              "value": 22,
              "code": "mmol/L",
              "system": "http://unitsofmeasure.org"
            }
          },
          {
            "high": {
              "value": 32,
              "code": "mmol/L",
              "system": "http://unitsofmeasure.org"
            }
          }
        ],
        "text": {
          "status": "generated",
          "div": "<div xmlns=\"http://www.w3.org/1999/xhtml\"><table class=\"hl7__eu__lab__report\"><tr><th>Test</th><th>24-Feb-2018</th><th>Reference&#xA0;Range</th><th>Unit</th></tr><tr><td>Carbon dioxide, total [Moles/volume] in Blood</td><td>23.9</td><td>22 - 32</td><td></td><td>mmol/L</td></tr></table></div>"
        },
        "status": "final",
        "subject": {
          "reference": "urn:uuid:506b7aef-fc29-4895-add7-aa39e6034667",
          "display": "Maria Nohlmans"
        },
        "effectiveDateTime": "2018-02-24T18:00:39Z",
        "specimen": {
          "reference": "urn:uuid:05276a11-e83d-4426-93b3-6d38e3a278b9"
        }
      }
    },
    {
      "fullUrl": "urn:uuid:430c8ea9-1cf1-4438-b3dc-1276e1c76c82",
      "resource": {
        "resourceType": "Observation",
        "id": "430c8ea9-1cf1-4438-b3dc-1276e1c76c82",
        "meta": {
          "profile": [
            "http://hl7.eu/fhir/laboratory/StructureDefinition/Observation-resultslab-eu-lab"
          ]
        },
        "performer": [
          {
            "display": "The Central European Lab"
          }
        ],
        "category": [
          {
            "coding": [
              {
                "system": "http://terminology.hl7.org/CodeSystem/observation-category",
                "code": "laboratory"
              }
            ]
          }
        ],
        "code": {
          "coding": [
            {
              "code": "2885-2",
              "system": "http://loinc.org",
              "display": "Protein [Mass/volume] in Serum or Plasma"
            }
          ],
          "text": "Protein [Mass/volume] in Serum or Plasma"
        },
        "valueQuantity": {
          "system": "http://unitsofmeasure.org",
          "value": 6.4,
          "unit": "g/dL",
          "code": "g/dL"
        },
        "referenceRange": [
          {
            "low": {
              "value": 6,
              "code": "g/dL",
              "system": "http://unitsofmeasure.org"
            }
          },
          {
            "high": {
              "value": 8.3,
              "code": "g/dL",
              "system": "http://unitsofmeasure.org"
            }
          }
        ],
        "text": {
          "status": "generated",
          "div": "<div xmlns=\"http://www.w3.org/1999/xhtml\"><table class=\"hl7__eu__lab__report\"><tr><th>Test</th><th>24-Feb-2018</th><th>Reference&#xA0;Range</th><th>Unit</th></tr><tr><td>Protein [Mass/volume] in Serum or Plasma</td><td>6.4</td><td>6 - 8.3</td><td></td><td>g/dL</td></tr></table></div>"
        },
        "status": "final",
        "subject": {
          "reference": "urn:uuid:506b7aef-fc29-4895-add7-aa39e6034667",
          "display": "Maria Nohlmans"
        },
        "effectiveDateTime": "2018-02-24T18:00:39Z",
        "specimen": {
          "reference": "urn:uuid:0efedf66-b093-4e21-98f6-58d743c8df12"
        }
      }
    },
    {
      "fullUrl": "urn:uuid:4a9a7862-868a-4908-9b06-13c027eb51c3",
      "resource": {
        "resourceType": "Observation",
        "id": "4a9a7862-868a-4908-9b06-13c027eb51c3",
        "meta": {
          "profile": [
            "http://hl7.eu/fhir/laboratory/StructureDefinition/Observation-resultslab-eu-lab"
          ]
        },
        "performer": [
          {
            "display": "The Central European Lab"
          }
        ],
        "category": [
          {
            "coding": [
              {
                "system": "http://terminology.hl7.org/CodeSystem/observation-category",
                "code": "laboratory"
              }
            ]
          }
        ],
        "code": {
          "coding": [
            {
              "code": "1751-7",
              "system": "http://loinc.org",
              "display": "Albumin [Mass/volume] in Serum or Plasma"
            }
          ],
          "text": "Albumin [Mass/volume] in Serum or Plasma"
        },
        "valueQuantity": {
          "system": "http://unitsofmeasure.org",
          "value": 5.5,
          "unit": "g/dL",
          "code": "g/dL"
        },
        "referenceRange": [
          {
            "low": {
              "value": 3.5,
              "code": "g/dL",
              "system": "http://unitsofmeasure.org"
            }
          },
          {
            "high": {
              "value": 5.5,
              "code": "g/dL",
              "system": "http://unitsofmeasure.org"
            }
          }
        ],
        "text": {
          "status": "generated",
          "div": "<div xmlns=\"http://www.w3.org/1999/xhtml\"><table class=\"hl7__eu__lab__report\"><tr><th>Test</th><th>24-Feb-2018</th><th>Reference&#xA0;Range</th><th>Unit</th></tr><tr><td>Albumin [Mass/volume] in Serum or Plasma</td><td>5.5</td><td>3.5 - 5.5</td><td></td><td>g/dL</td></tr></table></div>"
        },
        "status": "final",
        "subject": {
          "reference": "urn:uuid:506b7aef-fc29-4895-add7-aa39e6034667",
          "display": "Maria Nohlmans"
        },
        "effectiveDateTime": "2018-02-24T18:00:39Z",
        "specimen": {
          "reference": "urn:uuid:0efedf66-b093-4e21-98f6-58d743c8df12"
        }
      }
    },
    {
      "fullUrl": "urn:uuid:ea9bfd7c-7960-4410-94a8-85988da9d233",
      "resource": {
        "resourceType": "Observation",
        "id": "ea9bfd7c-7960-4410-94a8-85988da9d233",
        "meta": {
          "profile": [
            "http://hl7.eu/fhir/laboratory/StructureDefinition/Observation-resultslab-eu-lab"
          ]
        },
        "performer": [
          {
            "display": "The Central European Lab"
          }
        ],
        "category": [
          {
            "coding": [
              {
                "system": "http://terminology.hl7.org/CodeSystem/observation-category",
                "code": "laboratory"
              }
            ]
          }
        ],
        "code": {
          "coding": [
            {
              "code": "10834-0",
              "system": "http://loinc.org",
              "display": "Globulin [Mass/volume] in Serum by calculation"
            }
          ],
          "text": "Globulin [Mass/volume] in Serum by calculation"
        },
        "valueQuantity": {
          "system": "http://unitsofmeasure.org",
          "value": 2.5,
          "unit": "g/L",
          "code": "g/L"
        },
        "referenceRange": [
          {
            "low": {
              "value": 2,
              "code": "g/L",
              "system": "http://unitsofmeasure.org"
            }
          },
          {
            "high": {
              "value": 3.5,
              "code": "g/L",
              "system": "http://unitsofmeasure.org"
            }
          }
        ],
        "text": {
          "status": "generated",
          "div": "<div xmlns=\"http://www.w3.org/1999/xhtml\"><table class=\"hl7__eu__lab__report\"><tr><th>Test</th><th>24-Feb-2018</th><th>Reference&#xA0;Range</th><th>Unit</th></tr><tr><td>Globulin [Mass/volume] in Serum by calculation</td><td>2.5</td><td>2 - 3.5</td><td></td><td>g/L</td></tr></table></div>"
        },
        "status": "final",
        "subject": {
          "reference": "urn:uuid:506b7aef-fc29-4895-add7-aa39e6034667",
          "display": "Maria Nohlmans"
        },
        "effectiveDateTime": "2018-02-24T18:00:39Z",
        "specimen": {
          "reference": "urn:uuid:1e04c9a2-d4d5-4ff0-b065-bab4d9acea14"
        }
      }
    },
    {
      "fullUrl": "urn:uuid:2d445195-a9f9-4982-bf95-e964e1ed33c4",
      "resource": {
        "resourceType": "Observation",
        "id": "2d445195-a9f9-4982-bf95-e964e1ed33c4",
        "meta": {
          "profile": [
            "http://hl7.eu/fhir/laboratory/StructureDefinition/Observation-resultslab-eu-lab"
          ]
        },
        "performer": [
          {
            "display": "The Central European Lab"
          }
        ],
        "category": [
          {
            "coding": [
              {
                "system": "http://terminology.hl7.org/CodeSystem/observation-category",
                "code": "laboratory"
              }
            ]
          }
        ],
        "code": {
          "coding": [
            {
              "code": "1975-2",
              "system": "http://loinc.org",
              "display": "Bilirubin.total [Mass/volume] in Serum or Plasma"
            }
          ],
          "text": "Bilirubin.total [Mass/volume] in Serum or Plasma"
        },
        "valueQuantity": {
          "system": "http://unitsofmeasure.org",
          "value": 1.1,
          "unit": "mg/dL",
          "code": "mg/dL"
        },
        "referenceRange": [
          {
            "low": {
              "value": 0.3,
              "code": "mg/dL",
              "system": "http://unitsofmeasure.org"
            }
          },
          {
            "high": {
              "value": 1.2,
              "code": "mg/dL",
              "system": "http://unitsofmeasure.org"
            }
          }
        ],
        "text": {
          "status": "generated",
          "div": "<div xmlns=\"http://www.w3.org/1999/xhtml\"><table class=\"hl7__eu__lab__report\"><tr><th>Test</th><th>24-Feb-2018</th><th>Reference&#xA0;Range</th><th>Unit</th></tr><tr><td>Bilirubin.total [Mass/volume] in Serum or Plasma</td><td>1.1</td><td>0.3 - 1.2</td><td></td><td>mg/dL</td></tr></table></div>"
        },
        "status": "final",
        "subject": {
          "reference": "urn:uuid:506b7aef-fc29-4895-add7-aa39e6034667",
          "display": "Maria Nohlmans"
        },
        "effectiveDateTime": "2018-02-24T18:00:39Z",
        "specimen": {
          "reference": "urn:uuid:0efedf66-b093-4e21-98f6-58d743c8df12"
        }
      }
    },
    {
      "fullUrl": "urn:uuid:3b84236a-ef5e-469f-a98d-3fd3b1f4d66e",
      "resource": {
        "resourceType": "Observation",
        "id": "3b84236a-ef5e-469f-a98d-3fd3b1f4d66e",
        "meta": {
          "profile": [
            "http://hl7.eu/fhir/laboratory/StructureDefinition/Observation-resultslab-eu-lab"
          ]
        },
        "performer": [
          {
            "display": "The Central European Lab"
          }
        ],
        "category": [
          {
            "coding": [
              {
                "system": "http://terminology.hl7.org/CodeSystem/observation-category",
                "code": "laboratory"
              }
            ]
          }
        ],
        "code": {
          "coding": [
            {
              "code": "6768-6",
              "system": "http://loinc.org",
              "display": "Alkaline phosphatase [Enzymatic activity/volume] in Serum or Plasma"
            }
          ],
          "text": "Alkaline phosphatase [Enzymatic activity/volume] in Serum or Plasma"
        },
        "valueQuantity": {
          "system": "http://unitsofmeasure.org",
          "value": 119.6,
          "unit": "U/L",
          "code": "U/L"
        },
        "referenceRange": [
          {
            "low": {
              "value": 44,
              "code": "U/L",
              "system": "http://unitsofmeasure.org"
            }
          },
          {
            "high": {
              "value": 142,
              "code": "U/L",
              "system": "http://unitsofmeasure.org"
            }
          }
        ],
        "text": {
          "status": "generated",
          "div": "<div xmlns=\"http://www.w3.org/1999/xhtml\"><table class=\"hl7__eu__lab__report\"><tr><th>Test</th><th>24-Feb-2018</th><th>Reference&#xA0;Range</th><th>Unit</th></tr><tr><td>Alkaline phosphatase [Enzymatic activity/volume] in Serum or Plasma</td><td>119.6</td><td>44 - 142</td><td></td><td>U/L</td></tr></table></div>"
        },
        "status": "final",
        "subject": {
          "reference": "urn:uuid:506b7aef-fc29-4895-add7-aa39e6034667",
          "display": "Maria Nohlmans"
        },
        "effectiveDateTime": "2018-02-24T18:00:39Z",
        "specimen": {
          "reference": "urn:uuid:0efedf66-b093-4e21-98f6-58d743c8df12"
        }
      }
    },
    {
      "fullUrl": "urn:uuid:298e0a77-4f47-40df-9838-07d93bad743a",
      "resource": {
        "resourceType": "Observation",
        "id": "298e0a77-4f47-40df-9838-07d93bad743a",
        "meta": {
          "profile": [
            "http://hl7.eu/fhir/laboratory/StructureDefinition/Observation-resultslab-eu-lab"
          ]
        },
        "performer": [
          {
            "display": "The Central European Lab"
          }
        ],
        "category": [
          {
            "coding": [
              {
                "system": "http://terminology.hl7.org/CodeSystem/observation-category",
                "code": "laboratory"
              }
            ]
          }
        ],
        "code": {
          "coding": [
            {
              "code": "1742-6",
              "system": "http://loinc.org",
              "display": "Alanine aminotransferase [Enzymatic activity/volume] in Serum or Plasma"
            }
          ],
          "text": "Alanine aminotransferase [Enzymatic activity/volume] in Serum or Plasma"
        },
        "valueQuantity": {
          "system": "http://unitsofmeasure.org",
          "value": 50.7,
          "unit": "U/L",
          "code": "U/L"
        },
        "referenceRange": [
          {
            "low": {
              "value": 7,
              "code": "U/L",
              "system": "http://unitsofmeasure.org"
            }
          },
          {
            "high": {
              "value": 40,
              "code": "U/L",
              "system": "http://unitsofmeasure.org"
            }
          }
        ],
        "interpretation": [
          {
            "coding": [
              {
                "code": "H",
                "system": "http://terminology.hl7.org/CodeSystem/v3-ObservationInterpretation",
                "display": "High"
              }
            ]
          }
        ],
        "text": {
          "status": "generated",
          "div": "<div xmlns=\"http://www.w3.org/1999/xhtml\"><table class=\"hl7__eu__lab__report\"><tr><th>Test</th><th>24-Feb-2018</th><th>Reference&#xA0;Range</th><th>Unit</th></tr><tr><td>Alanine aminotransferase [Enzymatic activity/volume] in Serum or Plasma</td><td>50.7</td><td>7 - 40</td><td>H</td><td>U/L</td></tr></table></div>"
        },
        "status": "final",
        "subject": {
          "reference": "urn:uuid:506b7aef-fc29-4895-add7-aa39e6034667",
          "display": "Maria Nohlmans"
        },
        "effectiveDateTime": "2018-02-24T18:00:39Z",
        "specimen": {
          "reference": "urn:uuid:0efedf66-b093-4e21-98f6-58d743c8df12"
        }
      }
    },
    {
      "fullUrl": "urn:uuid:f09491f2-e445-440f-8d31-ae5b6dc527b0",
      "resource": {
        "resourceType": "Observation",
        "id": "f09491f2-e445-440f-8d31-ae5b6dc527b0",
        "meta": {
          "profile": [
            "http://hl7.eu/fhir/laboratory/StructureDefinition/Observation-resultslab-eu-lab"
          ]
        },
        "performer": [
          {
            "display": "The Central European Lab"
          }
        ],
        "category": [
          {
            "coding": [
              {
                "system": "http://terminology.hl7.org/CodeSystem/observation-category",
                "code": "laboratory"
              }
            ]
          }
        ],
        "code": {
          "coding": [
            {
              "code": "1920-8",
              "system": "http://loinc.org",
              "display": "Aspartate aminotransferase [Enzymatic activity/volume] in Serum or Plasma"
            }
          ],
          "text": "Aspartate aminotransferase [Enzymatic activity/volume] in Serum or Plasma"
        },
        "valueQuantity": {
          "system": "http://unitsofmeasure.org",
          "value": 28.4,
          "unit": "U/L",
          "code": "U/L"
        },
        "referenceRange": [
          {
            "low": {
              "value": 10,
              "code": "U/L",
              "system": "http://unitsofmeasure.org"
            }
          },
          {
            "high": {
              "value": 40,
              "code": "U/L",
              "system": "http://unitsofmeasure.org"
            }
          }
        ],
        "text": {
          "status": "generated",
          "div": "<div xmlns=\"http://www.w3.org/1999/xhtml\"><table class=\"hl7__eu__lab__report\"><tr><th>Test</th><th>24-Feb-2018</th><th>Reference&#xA0;Range</th><th>Unit</th></tr><tr><td>Aspartate aminotransferase [Enzymatic activity/volume] in Serum or Plasma</td><td>28.4</td><td>10 - 40</td><td></td><td>U/L</td></tr></table></div>"
        },
        "status": "final",
        "subject": {
          "reference": "urn:uuid:506b7aef-fc29-4895-add7-aa39e6034667",
          "display": "Maria Nohlmans"
        },
        "effectiveDateTime": "2018-02-24T18:00:39Z",
        "specimen": {
          "reference": "urn:uuid:0efedf66-b093-4e21-98f6-58d743c8df12"
        }
      }
    },
    {
      "fullUrl": "urn:uuid:53b8c406-f620-49d7-b847-5228290ee53b",
      "resource": {
        "resourceType": "Observation",
        "id": "53b8c406-f620-49d7-b847-5228290ee53b",
        "meta": {
          "profile": [
            "http://hl7.eu/fhir/laboratory/StructureDefinition/Observation-resultslab-eu-lab"
          ]
        },
        "performer": [
          {
            "display": "The Central European Lab"
          }
        ],
        "category": [
          {
            "coding": [
              {
                "system": "http://terminology.hl7.org/CodeSystem/observation-category",
                "code": "laboratory"
              }
            ]
          }
        ],
        "code": {
          "coding": [
            {
              "code": "5767-9",
              "system": "http://loinc.org",
              "display": "Appearance of Urine"
            }
          ],
          "text": "Appearance of Urine"
        },
        "text": {
          "status": "generated",
          "div": "<div xmlns=\"http://www.w3.org/1999/xhtml\"><table class=\"hl7__eu__lab__report\"><tr><th>Test</th><th>24-Feb-2018</th><th>Reference&#xA0;Range</th><th>Unit</th></tr><tr><td>Appearance of Urine</td></tr></table></div>"
        },
        "status": "final",
        "subject": {
          "reference": "urn:uuid:506b7aef-fc29-4895-add7-aa39e6034667",
          "display": "Maria Nohlmans"
        },
        "effectiveDateTime": "2018-02-24T18:00:39Z",
        "specimen": {
          "reference": "urn:uuid:684b1bf6-fbff-4949-9b65-3f03960550d6"
        }
      }
    },
    {
      "fullUrl": "urn:uuid:bdf6b255-5658-463d-9da5-a769005a4eb7",
      "resource": {
        "resourceType": "Observation",
        "id": "bdf6b255-5658-463d-9da5-a769005a4eb7",
        "meta": {
          "profile": [
            "http://hl7.eu/fhir/laboratory/StructureDefinition/Observation-resultslab-eu-lab"
          ]
        },
        "performer": [
          {
            "display": "The Central European Lab"
          }
        ],
        "category": [
          {
            "coding": [
              {
                "system": "http://terminology.hl7.org/CodeSystem/observation-category",
                "code": "laboratory"
              }
            ]
          }
        ],
        "code": {
          "coding": [
            {
              "code": "34533-0",
              "system": "http://loinc.org",
              "display": "Odor of Urine"
            }
          ],
          "text": "Odor of Urine"
        },
        "text": {
          "status": "generated",
          "div": "<div xmlns=\"http://www.w3.org/1999/xhtml\"><table class=\"hl7__eu__lab__report\"><tr><th>Test</th><th>24-Feb-2018</th><th>Reference&#xA0;Range</th><th>Unit</th></tr><tr><td>Odor of Urine</td></tr></table></div>"
        },
        "status": "final",
        "subject": {
          "reference": "urn:uuid:506b7aef-fc29-4895-add7-aa39e6034667",
          "display": "Maria Nohlmans"
        },
        "effectiveDateTime": "2018-02-24T18:00:39Z",
        "specimen": {
          "reference": "urn:uuid:684b1bf6-fbff-4949-9b65-3f03960550d6"
        }
      }
    },
    {
      "fullUrl": "urn:uuid:22034840-4eb3-436d-a70f-d4a69c7b6177",
      "resource": {
        "resourceType": "Observation",
        "id": "22034840-4eb3-436d-a70f-d4a69c7b6177",
        "meta": {
          "profile": [
            "http://hl7.eu/fhir/laboratory/StructureDefinition/Observation-resultslab-eu-lab"
          ]
        },
        "performer": [
          {
            "display": "The Central European Lab"
          }
        ],
        "category": [
          {
            "coding": [
              {
                "system": "http://terminology.hl7.org/CodeSystem/observation-category",
                "code": "laboratory"
              }
            ]
          }
        ],
        "code": {
          "coding": [
            {
              "code": "32167-9",
              "system": "http://loinc.org",
              "display": "Clarity of Urine"
            }
          ],
          "text": "Clarity of Urine"
        },
        "text": {
          "status": "generated",
          "div": "<div xmlns=\"http://www.w3.org/1999/xhtml\"><table class=\"hl7__eu__lab__report\"><tr><th>Test</th><th>24-Feb-2018</th><th>Reference&#xA0;Range</th><th>Unit</th></tr><tr><td>Clarity of Urine</td></tr></table></div>"
        },
        "status": "final",
        "subject": {
          "reference": "urn:uuid:506b7aef-fc29-4895-add7-aa39e6034667",
          "display": "Maria Nohlmans"
        },
        "effectiveDateTime": "2018-02-24T18:00:39Z",
        "specimen": {
          "reference": "urn:uuid:684b1bf6-fbff-4949-9b65-3f03960550d6"
        }
      }
    },
    {
      "fullUrl": "urn:uuid:29be6e62-aee3-4968-833c-537bf4c2fd8b",
      "resource": {
        "resourceType": "Observation",
        "id": "29be6e62-aee3-4968-833c-537bf4c2fd8b",
        "meta": {
          "profile": [
            "http://hl7.eu/fhir/laboratory/StructureDefinition/Observation-resultslab-eu-lab"
          ]
        },
        "performer": [
          {
            "display": "The Central European Lab"
          }
        ],
        "category": [
          {
            "coding": [
              {
                "system": "http://terminology.hl7.org/CodeSystem/observation-category",
                "code": "laboratory"
              }
            ]
          }
        ],
        "code": {
          "coding": [
            {
              "code": "5778-6",
              "system": "http://loinc.org",
              "display": "Color of Urine"
            }
          ],
          "text": "Color of Urine"
        },
        "text": {
          "status": "generated",
          "div": "<div xmlns=\"http://www.w3.org/1999/xhtml\"><table class=\"hl7__eu__lab__report\"><tr><th>Test</th><th>24-Feb-2018</th><th>Reference&#xA0;Range</th><th>Unit</th></tr><tr><td>Color of Urine</td></tr></table></div>"
        },
        "status": "final",
        "subject": {
          "reference": "urn:uuid:506b7aef-fc29-4895-add7-aa39e6034667",
          "display": "Maria Nohlmans"
        },
        "effectiveDateTime": "2018-02-24T18:00:39Z",
        "specimen": {
          "reference": "urn:uuid:684b1bf6-fbff-4949-9b65-3f03960550d6"
        }
      }
    },
    {
      "fullUrl": "urn:uuid:2cdf4c09-f592-4777-b13d-05f6fff79104",
      "resource": {
        "resourceType": "Observation",
        "id": "2cdf4c09-f592-4777-b13d-05f6fff79104",
        "meta": {
          "profile": [
            "http://hl7.eu/fhir/laboratory/StructureDefinition/Observation-resultslab-eu-lab"
          ]
        },
        "performer": [
          {
            "display": "The Central European Lab"
          }
        ],
        "category": [
          {
            "coding": [
              {
                "system": "http://terminology.hl7.org/CodeSystem/observation-category",
                "code": "laboratory"
              }
            ]
          }
        ],
        "code": {
          "coding": [
            {
              "code": "5792-7",
              "system": "http://loinc.org",
              "display": "Glucose [Mass/volume] in Urine by Test strip"
            }
          ],
          "text": "Glucose [Mass/volume] in Urine by Test strip"
        },
        "valueQuantity": {
          "system": "http://unitsofmeasure.org",
          "value": 0.5,
          "unit": "mg/dL",
          "code": "mg/dL"
        },
        "referenceRange": [
          {
            "low": {
              "value": 0.8,
              "code": "mg/dL",
              "system": "http://unitsofmeasure.org"
            }
          },
          {
            "high": {
              "value": 0,
              "code": "mg/dL",
              "system": "http://unitsofmeasure.org"
            }
          }
        ],
        "interpretation": [
          {
            "coding": [
              {
                "code": "L",
                "system": "http://terminology.hl7.org/CodeSystem/v3-ObservationInterpretation",
                "display": "Low"
              }
            ]
          }
        ],
        "text": {
          "status": "generated",
          "div": "<div xmlns=\"http://www.w3.org/1999/xhtml\"><table class=\"hl7__eu__lab__report\"><tr><th>Test</th><th>24-Feb-2018</th><th>Reference&#xA0;Range</th><th>Unit</th></tr><tr><td>Glucose [Mass/volume] in Urine by Test strip</td><td>0.5</td><td>0.8 - 0</td><td>L</td><td>mg/dL</td></tr></table></div>"
        },
        "status": "final",
        "subject": {
          "reference": "urn:uuid:506b7aef-fc29-4895-add7-aa39e6034667",
          "display": "Maria Nohlmans"
        },
        "effectiveDateTime": "2018-02-24T18:00:39Z",
        "specimen": {
          "reference": "urn:uuid:684b1bf6-fbff-4949-9b65-3f03960550d6"
        }
      }
    },
    {
      "fullUrl": "urn:uuid:6af5b538-5504-4cf1-9444-b2fd22b6193f",
      "resource": {
        "resourceType": "Observation",
        "id": "6af5b538-5504-4cf1-9444-b2fd22b6193f",
        "meta": {
          "profile": [
            "http://hl7.eu/fhir/laboratory/StructureDefinition/Observation-resultslab-eu-lab"
          ]
        },
        "performer": [
          {
            "display": "The Central European Lab"
          }
        ],
        "category": [
          {
            "coding": [
              {
                "system": "http://terminology.hl7.org/CodeSystem/observation-category",
                "code": "laboratory"
              }
            ]
          }
        ],
        "code": {
          "coding": [
            {
              "code": "25428-4",
              "system": "http://loinc.org",
              "display": "Glucose [Presence] in Urine by Test strip"
            }
          ],
          "text": "Glucose [Presence] in Urine by Test strip"
        },
        "text": {
          "status": "generated",
          "div": "<div xmlns=\"http://www.w3.org/1999/xhtml\"><table class=\"hl7__eu__lab__report\"><tr><th>Test</th><th>24-Feb-2018</th><th>Reference&#xA0;Range</th><th>Unit</th></tr><tr><td>Glucose [Presence] in Urine by Test strip</td></tr></table></div>"
        },
        "status": "final",
        "subject": {
          "reference": "urn:uuid:506b7aef-fc29-4895-add7-aa39e6034667",
          "display": "Maria Nohlmans"
        },
        "effectiveDateTime": "2018-02-24T18:00:39Z",
        "specimen": {
          "reference": "urn:uuid:684b1bf6-fbff-4949-9b65-3f03960550d6"
        }
      }
    },
    {
      "fullUrl": "urn:uuid:126b2bd2-f600-4705-b82d-8c0acc27da6f",
      "resource": {
        "resourceType": "Observation",
        "id": "126b2bd2-f600-4705-b82d-8c0acc27da6f",
        "meta": {
          "profile": [
            "http://hl7.eu/fhir/laboratory/StructureDefinition/Observation-resultslab-eu-lab"
          ]
        },
        "performer": [
          {
            "display": "The Central European Lab"
          }
        ],
        "category": [
          {
            "coding": [
              {
                "system": "http://terminology.hl7.org/CodeSystem/observation-category",
                "code": "laboratory"
              }
            ]
          }
        ],
        "code": {
          "coding": [
            {
              "code": "20505-4",
              "system": "http://loinc.org",
              "display": "Bilirubin.total [Mass/volume] in Urine by Test strip"
            }
          ],
          "text": "Bilirubin.total [Mass/volume] in Urine by Test strip"
        },
        "valueQuantity": {
          "system": "http://unitsofmeasure.org",
          "value": 0.4,
          "unit": "mg/dL",
          "code": "mg/dL"
        },
        "referenceRange": [
          {
            "low": {
              "value": 0,
              "code": "mg/dL",
              "system": "http://unitsofmeasure.org"
            }
          },
          {
            "high": {
              "value": 1.5,
              "code": "mg/dL",
              "system": "http://unitsofmeasure.org"
            }
          }
        ],
        "text": {
          "status": "generated",
          "div": "<div xmlns=\"http://www.w3.org/1999/xhtml\"><table class=\"hl7__eu__lab__report\"><tr><th>Test</th><th>24-Feb-2018</th><th>Reference&#xA0;Range</th><th>Unit</th></tr><tr><td>Bilirubin.total [Mass/volume] in Urine by Test strip</td><td>0.4</td><td>0 - 1.5</td><td></td><td>mg/dL</td></tr></table></div>"
        },
        "status": "final",
        "subject": {
          "reference": "urn:uuid:506b7aef-fc29-4895-add7-aa39e6034667",
          "display": "Maria Nohlmans"
        },
        "effectiveDateTime": "2018-02-24T18:00:39Z",
        "specimen": {
          "reference": "urn:uuid:684b1bf6-fbff-4949-9b65-3f03960550d6"
        }
      }
    },
    {
      "fullUrl": "urn:uuid:128954de-8fc6-4072-a890-1a1d371d0e57",
      "resource": {
        "resourceType": "Observation",
        "id": "128954de-8fc6-4072-a890-1a1d371d0e57",
        "meta": {
          "profile": [
            "http://hl7.eu/fhir/laboratory/StructureDefinition/Observation-resultslab-eu-lab"
          ]
        },
        "performer": [
          {
            "display": "The Central European Lab"
          }
        ],
        "category": [
          {
            "coding": [
              {
                "system": "http://terminology.hl7.org/CodeSystem/observation-category",
                "code": "laboratory"
              }
            ]
          }
        ],
        "code": {
          "coding": [
            {
              "code": "5770-3",
              "system": "http://loinc.org",
              "display": "Bilirubin.total [Presence] in Urine by Test strip"
            }
          ],
          "text": "Bilirubin.total [Presence] in Urine by Test strip"
        },
        "text": {
          "status": "generated",
          "div": "<div xmlns=\"http://www.w3.org/1999/xhtml\"><table class=\"hl7__eu__lab__report\"><tr><th>Test</th><th>24-Feb-2018</th><th>Reference&#xA0;Range</th><th>Unit</th></tr><tr><td>Bilirubin.total [Presence] in Urine by Test strip</td></tr></table></div>"
        },
        "status": "final",
        "subject": {
          "reference": "urn:uuid:506b7aef-fc29-4895-add7-aa39e6034667",
          "display": "Maria Nohlmans"
        },
        "effectiveDateTime": "2018-02-24T18:00:39Z",
        "specimen": {
          "reference": "urn:uuid:684b1bf6-fbff-4949-9b65-3f03960550d6"
        }
      }
    },
    {
      "fullUrl": "urn:uuid:727bb454-5d74-4e43-ad8f-50e400c84818",
      "resource": {
        "resourceType": "Observation",
        "id": "727bb454-5d74-4e43-ad8f-50e400c84818",
        "meta": {
          "profile": [
            "http://hl7.eu/fhir/laboratory/StructureDefinition/Observation-resultslab-eu-lab"
          ]
        },
        "performer": [
          {
            "display": "The Central European Lab"
          }
        ],
        "category": [
          {
            "coding": [
              {
                "system": "http://terminology.hl7.org/CodeSystem/observation-category",
                "code": "laboratory"
              }
            ]
          }
        ],
        "code": {
          "coding": [
            {
              "code": "5797-6",
              "system": "http://loinc.org",
              "display": "Ketones [Mass/volume] in Urine by Test strip"
            }
          ],
          "text": "Ketones [Mass/volume] in Urine by Test strip"
        },
        "valueQuantity": {
          "system": "http://unitsofmeasure.org",
          "value": 5.7,
          "unit": "mg/dL",
          "code": "mg/dL"
        },
        "referenceRange": [
          {
            "low": {
              "value": 0,
              "code": "mg/dL",
              "system": "http://unitsofmeasure.org"
            }
          },
          {
            "high": {
              "value": 8,
              "code": "mg/dL",
              "system": "http://unitsofmeasure.org"
            }
          }
        ],
        "text": {
          "status": "generated",
          "div": "<div xmlns=\"http://www.w3.org/1999/xhtml\"><table class=\"hl7__eu__lab__report\"><tr><th>Test</th><th>24-Feb-2018</th><th>Reference&#xA0;Range</th><th>Unit</th></tr><tr><td>Ketones [Mass/volume] in Urine by Test strip</td><td>5.7</td><td>0 - 8</td><td></td><td>mg/dL</td></tr></table></div>"
        },
        "status": "final",
        "subject": {
          "reference": "urn:uuid:506b7aef-fc29-4895-add7-aa39e6034667",
          "display": "Maria Nohlmans"
        },
        "effectiveDateTime": "2018-02-24T18:00:39Z",
        "specimen": {
          "reference": "urn:uuid:684b1bf6-fbff-4949-9b65-3f03960550d6"
        }
      }
    },
    {
      "fullUrl": "urn:uuid:db9a17fe-2bca-4d3e-8b49-71a952825ade",
      "resource": {
        "resourceType": "Observation",
        "id": "db9a17fe-2bca-4d3e-8b49-71a952825ade",
        "meta": {
          "profile": [
            "http://hl7.eu/fhir/laboratory/StructureDefinition/Observation-resultslab-eu-lab"
          ]
        },
        "performer": [
          {
            "display": "The Central European Lab"
          }
        ],
        "category": [
          {
            "coding": [
              {
                "system": "http://terminology.hl7.org/CodeSystem/observation-category",
                "code": "laboratory"
              }
            ]
          }
        ],
        "code": {
          "coding": [
            {
              "code": "2514-8",
              "system": "http://loinc.org",
              "display": "Ketones [Presence] in Urine by Test strip"
            }
          ],
          "text": "Ketones [Presence] in Urine by Test strip"
        },
        "text": {
          "status": "generated",
          "div": "<div xmlns=\"http://www.w3.org/1999/xhtml\"><table class=\"hl7__eu__lab__report\"><tr><th>Test</th><th>24-Feb-2018</th><th>Reference&#xA0;Range</th><th>Unit</th></tr><tr><td>Ketones [Presence] in Urine by Test strip</td></tr></table></div>"
        },
        "status": "final",
        "subject": {
          "reference": "urn:uuid:506b7aef-fc29-4895-add7-aa39e6034667",
          "display": "Maria Nohlmans"
        },
        "effectiveDateTime": "2018-02-24T18:00:39Z",
        "specimen": {
          "reference": "urn:uuid:684b1bf6-fbff-4949-9b65-3f03960550d6"
        }
      }
    },
    {
      "fullUrl": "urn:uuid:54a273b4-31ea-4b4d-a860-949b11e9c2b4",
      "resource": {
        "resourceType": "Observation",
        "id": "54a273b4-31ea-4b4d-a860-949b11e9c2b4",
        "meta": {
          "profile": [
            "http://hl7.eu/fhir/laboratory/StructureDefinition/Observation-resultslab-eu-lab"
          ]
        },
        "performer": [
          {
            "display": "The Central European Lab"
          }
        ],
        "category": [
          {
            "coding": [
              {
                "system": "http://terminology.hl7.org/CodeSystem/observation-category",
                "code": "laboratory"
              }
            ]
          }
        ],
        "code": {
          "coding": [
            {
              "code": "5811-5",
              "system": "http://loinc.org",
              "display": "Specific gravity of Urine by Test strip"
            }
          ],
          "text": "Specific gravity of Urine by Test strip"
        },
        "valueQuantity": {
          "system": "http://unitsofmeasure.org",
          "value": 1,
          "unit": "{nominal}",
          "code": "{nominal}"
        },
        "referenceRange": [
          {
            "low": {
              "value": 1.01,
              "code": "g/mL",
              "system": "http://unitsofmeasure.org"
            }
          },
          {
            "high": {
              "value": 1.03,
              "code": "g/mL",
              "system": "http://unitsofmeasure.org"
            }
          }
        ],
        "interpretation": [
          {
            "coding": [
              {
                "code": "L",
                "system": "http://terminology.hl7.org/CodeSystem/v3-ObservationInterpretation",
                "display": "Low"
              }
            ]
          }
        ],
        "text": {
          "status": "generated",
          "div": "<div xmlns=\"http://www.w3.org/1999/xhtml\"><table class=\"hl7__eu__lab__report\"><tr><th>Test</th><th>24-Feb-2018</th><th>Reference&#xA0;Range</th><th>Unit</th></tr><tr><td>Specific gravity of Urine by Test strip</td><td>1.0</td><td>1.01 - 1.03</td><td>L</td><td>{nominal}</td></tr></table></div>"
        },
        "status": "final",
        "subject": {
          "reference": "urn:uuid:506b7aef-fc29-4895-add7-aa39e6034667",
          "display": "Maria Nohlmans"
        },
        "effectiveDateTime": "2018-02-24T18:00:39Z",
        "specimen": {
          "reference": "urn:uuid:684b1bf6-fbff-4949-9b65-3f03960550d6"
        }
      }
    },
    {
      "fullUrl": "urn:uuid:6669ce90-4125-4734-a7a0-c98d7214edab",
      "resource": {
        "resourceType": "Observation",
        "id": "6669ce90-4125-4734-a7a0-c98d7214edab",
        "meta": {
          "profile": [
            "http://hl7.eu/fhir/laboratory/StructureDefinition/Observation-resultslab-eu-lab"
          ]
        },
        "performer": [
          {
            "display": "The Central European Lab"
          }
        ],
        "category": [
          {
            "coding": [
              {
                "system": "http://terminology.hl7.org/CodeSystem/observation-category",
                "code": "laboratory"
              }
            ]
          }
        ],
        "code": {
          "coding": [
            {
              "code": "5803-2",
              "system": "http://loinc.org",
              "display": "pH of Urine by Test strip"
            }
          ],
          "text": "pH of Urine by Test strip"
        },
        "valueQuantity": {
          "system": "http://unitsofmeasure.org",
          "value": 5.6,
          "unit": "pH",
          "code": "pH"
        },
        "referenceRange": [
          {
            "low": {
              "value": 4.6,
              "code": "pH",
              "system": "http://unitsofmeasure.org"
            }
          },
          {
            "high": {
              "value": 7.5,
              "code": "pH",
              "system": "http://unitsofmeasure.org"
            }
          }
        ],
        "text": {
          "status": "generated",
          "div": "<div xmlns=\"http://www.w3.org/1999/xhtml\"><table class=\"hl7__eu__lab__report\"><tr><th>Test</th><th>24-Feb-2018</th><th>Reference&#xA0;Range</th><th>Unit</th></tr><tr><td>pH of Urine by Test strip</td><td>5.6</td><td>4.6 - 7.5</td><td></td><td>pH</td></tr></table></div>"
        },
        "status": "final",
        "subject": {
          "reference": "urn:uuid:506b7aef-fc29-4895-add7-aa39e6034667",
          "display": "Maria Nohlmans"
        },
        "effectiveDateTime": "2018-02-24T18:00:39Z",
        "specimen": {
          "reference": "urn:uuid:684b1bf6-fbff-4949-9b65-3f03960550d6"
        }
      }
    },
    {
      "fullUrl": "urn:uuid:6fc0016e-105a-4c39-a23a-0891262b0446",
      "resource": {
        "resourceType": "Observation",
        "id": "6fc0016e-105a-4c39-a23a-0891262b0446",
        "meta": {
          "profile": [
            "http://hl7.eu/fhir/laboratory/StructureDefinition/Observation-resultslab-eu-lab"
          ]
        },
        "performer": [
          {
            "display": "The Central European Lab"
          }
        ],
        "category": [
          {
            "coding": [
              {
                "system": "http://terminology.hl7.org/CodeSystem/observation-category",
                "code": "laboratory"
              }
            ]
          }
        ],
        "code": {
          "coding": [
            {
              "code": "5804-0",
              "system": "http://loinc.org",
              "display": "Protein [Mass/volume] in Urine by Test strip"
            }
          ],
          "text": "Protein [Mass/volume] in Urine by Test strip"
        },
        "valueQuantity": {
          "system": "http://unitsofmeasure.org",
          "value": 318.1,
          "unit": "mg/dL",
          "code": "mg/dL"
        },
        "referenceRange": [
          {
            "low": {
              "value": 0,
              "code": "mg/dL",
              "system": "http://unitsofmeasure.org"
            }
          },
          {
            "high": {
              "value": 14,
              "code": "mg/dL",
              "system": "http://unitsofmeasure.org"
            }
          }
        ],
        "interpretation": [
          {
            "coding": [
              {
                "code": "H",
                "system": "http://terminology.hl7.org/CodeSystem/v3-ObservationInterpretation",
                "display": "High"
              }
            ]
          }
        ],
        "text": {
          "status": "generated",
          "div": "<div xmlns=\"http://www.w3.org/1999/xhtml\"><table class=\"hl7__eu__lab__report\"><tr><th>Test</th><th>24-Feb-2018</th><th>Reference&#xA0;Range</th><th>Unit</th></tr><tr><td>Protein [Mass/volume] in Urine by Test strip</td><td>318.1</td><td>0 - 14</td><td>H</td><td>mg/dL</td></tr></table></div>"
        },
        "status": "final",
        "subject": {
          "reference": "urn:uuid:506b7aef-fc29-4895-add7-aa39e6034667",
          "display": "Maria Nohlmans"
        },
        "effectiveDateTime": "2018-02-24T18:00:39Z",
        "specimen": {
          "reference": "urn:uuid:684b1bf6-fbff-4949-9b65-3f03960550d6"
        }
      }
    },
    {
      "fullUrl": "urn:uuid:5119f8d5-6a54-4bcb-ae1f-3462d18eee5e",
      "resource": {
        "resourceType": "Observation",
        "id": "5119f8d5-6a54-4bcb-ae1f-3462d18eee5e",
        "meta": {
          "profile": [
            "http://hl7.eu/fhir/laboratory/StructureDefinition/Observation-resultslab-eu-lab"
          ]
        },
        "performer": [
          {
            "display": "The Central European Lab"
          }
        ],
        "category": [
          {
            "coding": [
              {
                "system": "http://terminology.hl7.org/CodeSystem/observation-category",
                "code": "laboratory"
              }
            ]
          }
        ],
        "code": {
          "coding": [
            {
              "code": "20454-5",
              "system": "http://loinc.org",
              "display": "Protein [Presence] in Urine by Test strip"
            }
          ],
          "text": "Protein [Presence] in Urine by Test strip"
        },
        "text": {
          "status": "generated",
          "div": "<div xmlns=\"http://www.w3.org/1999/xhtml\"><table class=\"hl7__eu__lab__report\"><tr><th>Test</th><th>24-Feb-2018</th><th>Reference&#xA0;Range</th><th>Unit</th></tr><tr><td>Protein [Presence] in Urine by Test strip</td></tr></table></div>"
        },
        "status": "final",
        "subject": {
          "reference": "urn:uuid:506b7aef-fc29-4895-add7-aa39e6034667",
          "display": "Maria Nohlmans"
        },
        "effectiveDateTime": "2018-02-24T18:00:39Z",
        "specimen": {
          "reference": "urn:uuid:684b1bf6-fbff-4949-9b65-3f03960550d6"
        }
      }
    },
    {
      "fullUrl": "urn:uuid:eb20d4b8-4184-4475-a133-ad76dc8243b7",
      "resource": {
        "resourceType": "Observation",
        "id": "eb20d4b8-4184-4475-a133-ad76dc8243b7",
        "meta": {
          "profile": [
            "http://hl7.eu/fhir/laboratory/StructureDefinition/Observation-resultslab-eu-lab"
          ]
        },
        "performer": [
          {
            "display": "The Central European Lab"
          }
        ],
        "category": [
          {
            "coding": [
              {
                "system": "http://terminology.hl7.org/CodeSystem/observation-category",
                "code": "laboratory"
              }
            ]
          }
        ],
        "code": {
          "coding": [
            {
              "code": "5802-4",
              "system": "http://loinc.org",
              "display": "Nitrite [Presence] in Urine by Test strip"
            }
          ],
          "text": "Nitrite [Presence] in Urine by Test strip"
        },
        "text": {
          "status": "generated",
          "div": "<div xmlns=\"http://www.w3.org/1999/xhtml\"><table class=\"hl7__eu__lab__report\"><tr><th>Test</th><th>24-Feb-2018</th><th>Reference&#xA0;Range</th><th>Unit</th></tr><tr><td>Nitrite [Presence] in Urine by Test strip</td></tr></table></div>"
        },
        "status": "final",
        "subject": {
          "reference": "urn:uuid:506b7aef-fc29-4895-add7-aa39e6034667",
          "display": "Maria Nohlmans"
        },
        "effectiveDateTime": "2018-02-24T18:00:39Z",
        "specimen": {
          "reference": "urn:uuid:684b1bf6-fbff-4949-9b65-3f03960550d6"
        }
      }
    },
    {
      "fullUrl": "urn:uuid:0199697f-859d-453b-be4c-2c4017a9338a",
      "resource": {
        "resourceType": "Observation",
        "id": "0199697f-859d-453b-be4c-2c4017a9338a",
        "meta": {
          "profile": [
            "http://hl7.eu/fhir/laboratory/StructureDefinition/Observation-resultslab-eu-lab"
          ]
        },
        "performer": [
          {
            "display": "The Central European Lab"
          }
        ],
        "category": [
          {
            "coding": [
              {
                "system": "http://terminology.hl7.org/CodeSystem/observation-category",
                "code": "laboratory"
              }
            ]
          }
        ],
        "code": {
          "coding": [
            {
              "code": "5794-3",
              "system": "http://loinc.org",
              "display": "Hemoglobin [Presence] in Urine by Test strip"
            }
          ],
          "text": "Hemoglobin [Presence] in Urine by Test strip"
        },
        "text": {
          "status": "generated",
          "div": "<div xmlns=\"http://www.w3.org/1999/xhtml\"><table class=\"hl7__eu__lab__report\"><tr><th>Test</th><th>24-Feb-2018</th><th>Reference&#xA0;Range</th><th>Unit</th></tr><tr><td>Hemoglobin [Presence] in Urine by Test strip</td></tr></table></div>"
        },
        "status": "final",
        "subject": {
          "reference": "urn:uuid:506b7aef-fc29-4895-add7-aa39e6034667",
          "display": "Maria Nohlmans"
        },
        "effectiveDateTime": "2018-02-24T18:00:39Z",
        "specimen": {
          "reference": "urn:uuid:684b1bf6-fbff-4949-9b65-3f03960550d6"
        }
      }
    },
    {
      "fullUrl": "urn:uuid:74302a30-6d9d-486d-a292-d77bf0d37a52",
      "resource": {
        "resourceType": "Observation",
        "id": "74302a30-6d9d-486d-a292-d77bf0d37a52",
        "meta": {
          "profile": [
            "http://hl7.eu/fhir/laboratory/StructureDefinition/Observation-resultslab-eu-lab"
          ]
        },
        "performer": [
          {
            "display": "The Central European Lab"
          }
        ],
        "category": [
          {
            "coding": [
              {
                "system": "http://terminology.hl7.org/CodeSystem/observation-category",
                "code": "laboratory"
              }
            ]
          }
        ],
        "code": {
          "coding": [
            {
              "code": "5799-2",
              "system": "http://loinc.org",
              "display": "Leukocyte esterase [Presence] in Urine by Test strip"
            }
          ],
          "text": "Leukocyte esterase [Presence] in Urine by Test strip"
        },
        "text": {
          "status": "generated",
          "div": "<div xmlns=\"http://www.w3.org/1999/xhtml\"><table class=\"hl7__eu__lab__report\"><tr><th>Test</th><th>24-Feb-2018</th><th>Reference&#xA0;Range</th><th>Unit</th></tr><tr><td>Leukocyte esterase [Presence] in Urine by Test strip</td></tr></table></div>"
        },
        "status": "final",
        "subject": {
          "reference": "urn:uuid:506b7aef-fc29-4895-add7-aa39e6034667",
          "display": "Maria Nohlmans"
        },
        "effectiveDateTime": "2018-02-24T18:00:39Z",
        "specimen": {
          "reference": "urn:uuid:684b1bf6-fbff-4949-9b65-3f03960550d6"
        }
      }
    },
    {
      "fullUrl": "urn:uuid:18fd7a46-67c8-4230-8ffa-84951cb37385",
      "resource": {
        "resourceType": "Device",
        "id": "18fd7a46-67c8-4230-8ffa-84951cb37385",
        "deviceName": [
          {
            "name": "SYNDERAI Synthetic Generator",
            "type": "manufacturer-name"
          }
        ],
        "version": [
          {
            "value": "5.0"
          }
        ],
        "text": {
          "status": "generated",
          "div": "<div xmlns=\"http://www.w3.org/1999/xhtml\">SYNDERAI Synthetic Generator v5.0</div>"
        },
        "status": "active\"",
        "distinctIdentifier": "synderai-generator-50",
        "manufacturer": "SYNDERAI Project"
      }
    },
    {
      "fullUrl": "urn:uuid:079760c9-b567-41e1-a30b-aee0f047877a",
      "resource": {
        "resourceType": "Provenance",
        "id": "079760c9-b567-41e1-a30b-aee0f047877a",
        "target": [
          {
            "reference": "Patient/506b7aef-fc29-4895-add7-aa39e6034667"
          },
          {
            "reference": "Bundle/a4cb3ee3-c62b-4420-a15b-aa1ef08b56d4"
          },
          {
            "reference": "Composition/4af624b1-82be-4310-aadc-18e0935f59c8"
          },
          {
            "reference": "PractitionerRole/34d6e2a2-e892-4ea5-b9db-f1c4828eaf68"
          },
          {
            "reference": "Practitioner/50be3bea-f64e-4afa-82b2-25817d561ffc"
          },
          {
            "reference": "PractitionerRole/731b4563-c1fa-424a-8572-d617ab593286"
          },
          {
            "reference": "Organization/88e429fa-f9ce-4e8a-864b-e5c84537640b"
          }
        ],
        "activity": {
          "text": "Synthetic Example Data Generation"
        },
        "policy": [
          "https://synderai.net/synderai-synthetic-data-policy"
        ],
        "agent": [
          {
            "type": {
              "text": "author"
            },
            "who": {
              "reference": "Device/18fd7a46-67c8-4230-8ffa-84951cb37385"
            }
          }
        ],
        "reason": [
          {
            "text": "Interoperability Testing and Training (non-clinical use)"
          }
        ],
        "text": {
          "status": "generated",
          "div": "<div xmlns=\"http://www.w3.org/1999/xhtml\">Provenance for SYNDERAI Synthetic Example Data Resource</div>"
        },
        "recorded": "2018-02-24T19:00:39Z"
      }
    },
    {
      "fullUrl": "urn:uuid:34d6e2a2-e892-4ea5-b9db-f1c4828eaf68",
      "resource": {
        "resourceType": "PractitionerRole",
        "id": "34d6e2a2-e892-4ea5-b9db-f1c4828eaf68",
        "meta": {
          "profile": [
            "http://hl7.eu/fhir/base/StructureDefinition/practitionerRole-eu"
          ]
        },
        "text": {
          "status": "generated",
          "div": "<div xmlns=\"http://www.w3.org/1999/xhtml\">Laboratory Role Id: 34d6e2a2-e892-4ea5-b9db-f1c4828eaf68</div>"
        },
        "practitioner": {
          "reference": "urn:uuid:50be3bea-f64e-4afa-82b2-25817d561ffc"
        }
      }
    },
    {
      "fullUrl": "urn:uuid:50be3bea-f64e-4afa-82b2-25817d561ffc",
      "resource": {
        "resourceType": "Practitioner",
        "id": "50be3bea-f64e-4afa-82b2-25817d561ffc",
        "meta": {
          "profile": [
            "http://hl7.eu/fhir/base/StructureDefinition/practitioner-eu"
          ]
        },
        "identifier": [
          {
            "assigner": {
              "display": "HL7 Europe"
            },
            "system": "urn:oid:2.16.840.1.113883.2.51.999",
            "value": "173453b3-5924-4d85-b84a-32fad1ee8b71"
          }
        ],
        "name": [
          {
            "prefix": [
              "dr"
            ],
            "given": [
              "Ex"
            ],
            "family": "Ample"
          }
        ],
        "address": [
          {
            "line": [
              "Laboratoire Central Européenne",
              "Boulevard du Jardin Botanique 32"
            ],
            "postalCode": "1000",
            "city": "Brussels",
            "country": "Belgium"
          }
        ],
        "text": {
          "status": "generated",
          "div": "<div xmlns=\"http://www.w3.org/1999/xhtml\">Laboratory: Laboratoire Central Européenne, 1000 Brussels, Belgium</div>"
        }
      }
    }
  ],
  "type": "document",
  "timestamp": "2018-02-24T19:00:39Z"
}
