{
  "resourceType": "Bundle",
  "id": "247f88c4-e25f-4ac5-b40e-832f81f9d4a5",
  "meta": {
    "profile": [
      "http://hl7.eu/fhir/laboratory/StructureDefinition/Bundle-eu-lab"
    ]
  },
  "identifier": {
    "assigner": {
      "display": "HL7 Europe"
    },
    "system": "urn:oid:2.16.840.1.113883.2.51.999",
    "value": "5b898398-7d58-4515-96b8-9a238c9f23d9"
  },
  "entry": [
    {
      "fullUrl": "urn:uuid:2af2e67a-d097-449d-a6d6-10dc42c299f8",
      "resource": {
        "resourceType": "Composition",
        "id": "2af2e67a-d097-449d-a6d6-10dc42c299f8",
        "meta": {
          "profile": [
            "http://hl7.eu/fhir/laboratory/StructureDefinition/Composition-eu-lab"
          ]
        },
        "identifier": {
          "assigner": {
            "display": "HL7 Europe"
          },
          "system": "urn:oid:2.16.840.1.113883.2.51.999",
          "value": "922b0d09-5e1c-41d7-bca3-567e1ac32b84"
        },
        "author": [
          {
            "reference": "urn:uuid:466adcdf-512e-423b-a53f-031f2a1d11ce"
          }
        ],
        "category": [
          {
            "coding": [
              {
                "code": "26436-6",
                "system": "http://loinc.org",
                "display": "Laboratory studies (set)"
              }
            ]
          }
        ],
        "type": {
          "coding": [
            {
              "code": "11502-2",
              "system": "http://loinc.org",
              "display": "Laboratory report"
            }
          ],
          "text": "Laboratory Report"
        },
        "section": [
          {
            "code": {
              "coding": [
                {
                  "code": "26436-6",
                  "system": "http://loinc.org",
                  "display": "Laboratory studies (set)"
                }
              ],
              "text": "Laboratory studies"
            },
            "section": [
              {
                "code": {
                  "coding": [
                    {
                      "code": "$18719-5",
                      "system": "http://loinc.org",
                      "display": "Chemistry studies (set)"
                    }
                  ],
                  "text": "Chemistry"
                },
                "entry": [
                  {
                    "reference": "urn:uuid:c8df61c1-7096-47cf-87ec-179bbe1df9b4"
                  },
                  {
                    "reference": "urn:uuid:0f090243-385e-4707-bbf0-a9ca4f6cc81c"
                  },
                  {
                    "reference": "urn:uuid:34818f93-b7d3-48a6-9ee5-8253ab421b60"
                  },
                  {
                    "reference": "urn:uuid:45414117-f744-4979-b2bf-ad9a51279cf9"
                  },
                  {
                    "reference": "urn:uuid:3405ef57-da06-45bd-b392-16888e8c6526"
                  },
                  {
                    "reference": "urn:uuid:56071514-0de9-4371-ac77-6fa6c03097f5"
                  },
                  {
                    "reference": "urn:uuid:ba7e6317-4630-4576-b626-d4d5ce38a099"
                  },
                  {
                    "reference": "urn:uuid:f477c7c4-fd98-4c79-a923-fcfab69102a3"
                  },
                  {
                    "reference": "urn:uuid:400e6617-ed4f-4447-8777-1a81742865cd"
                  },
                  {
                    "reference": "urn:uuid:3ab8fe90-f9ff-40c3-85dd-1bfc43f3995a"
                  },
                  {
                    "reference": "urn:uuid:08630648-307e-4f0a-b81d-17f285710753"
                  },
                  {
                    "reference": "urn:uuid:eb9c81da-a5be-47b3-917f-91898c66b0f4"
                  },
                  {
                    "reference": "urn:uuid:c0308961-752e-4e14-8425-8db991e4e0ec"
                  },
                  {
                    "reference": "urn:uuid:048b0569-bd16-4ea6-b74c-64141d7118d9"
                  },
                  {
                    "reference": "urn:uuid:2a251490-42e3-45d4-82cb-23e4ed96ee15"
                  },
                  {
                    "reference": "urn:uuid:39db40ca-f5e6-45dd-a5b0-58c09f85960e"
                  },
                  {
                    "reference": "urn:uuid:fd4bfdc7-ada2-4c41-9704-ad97bc007bc3"
                  },
                  {
                    "reference": "urn:uuid:4396c9fe-50b8-42a5-91a3-15632785028a"
                  }
                ],
                "text": {
                  "status": "generated",
                  "div": "<div xmlns=\"http://www.w3.org/1999/xhtml\"><h3>Chemistry</h3><table class=\"hl7__eu__lab__report\"><thead><tr><th>Test</th><th>14-JUN-2019</th><th>Reference&#xA0;Range</th><th>Unit</th></tr></thead><tbody><tr><td>Glucose [Mass/volume] in Serum or Plasma</td><td>73.5</td><td>70 - 140</td><td>mg/dL</td></tr><tr><td>Urea nitrogen [Mass/volume] in Serum or Plasma</td><td>17.7</td><td>7 - 20</td><td>mg/dL</td></tr><tr><td>Creatinine [Mass/volume] in Serum or Plasma</td><td><strong>2.0 H</strong></td><td>0.9 - 1.3</td><td>mg/dL</td></tr><tr><td>Calcium [Mass/volume] in Serum or Plasma</td><td>8.7</td><td>8.5 - 10.5</td><td>mg/dL</td></tr><tr><td>Sodium [Moles/volume] in Serum or Plasma</td><td>140.4</td><td>135 - 145</td><td>mmol/L</td></tr><tr><td>Potassium [Moles/volume] in Serum or Plasma</td><td>4.6</td><td>3.5 - 5.3</td><td>mmol/L</td></tr><tr><td>Chloride [Moles/volume] in Serum or Plasma</td><td>103.5</td><td>98 - 107</td><td>mmol/L</td></tr><tr><td>Carbon dioxide, total [Moles/volume] in Serum or Plasma</td><td>25.7</td><td>22 - 33</td><td>mmol/L</td></tr><tr><td>Ketones [Presence] in Urine by Test strip</td><td>Urine ketone test = ++</td><td></td><td></td></tr><tr><td>Hemoglobin A1c/Hemoglobin.total in Blood</td><td><strong>3.1 L</strong></td><td>4.3 - 6</td><td>%</td></tr><tr><td>Glucose [Mass/volume] in Blood</td><td>73.5</td><td>70 - 140</td><td>mg/dL</td></tr><tr><td>Urea nitrogen [Mass/volume] in Blood</td><td>17.7</td><td>7 - 20</td><td>mg/dL</td></tr><tr><td>Creatinine [Mass/volume] in Blood</td><td><strong>2.9 H</strong></td><td>0.9 - 1.3</td><td>mg/dL</td></tr><tr><td>Calcium [Mass/volume] in Blood</td><td>8.7</td><td>8.5 - 10.5</td><td>mg/dL</td></tr><tr><td>Sodium [Moles/volume] in Blood</td><td>140.4</td><td>135 - 145</td><td>mmol/L</td></tr><tr><td>Potassium [Moles/volume] in Blood</td><td>4.6</td><td>3.5 - 5.1</td><td>mmol/L</td></tr><tr><td>Chloride [Moles/volume] in Blood</td><td>103.5</td><td>98 - 108</td><td>mmol/L</td></tr><tr><td>Carbon dioxide, total [Moles/volume] in Blood</td><td>25.7</td><td>22 - 29</td><td>mmol/L</td></tr></tbody></table></div>"
                },
                "title": "Chemistry"
              },
              {
                "code": {
                  "coding": [
                    {
                      "code": "$18729-4",
                      "system": "http://loinc.org",
                      "display": "Urinalysis studies (set)"
                    }
                  ],
                  "text": "Urinalysis"
                },
                "entry": [
                  {
                    "reference": "urn:uuid:5c6fca24-06d5-4c35-a90d-7cfda2471a18"
                  },
                  {
                    "reference": "urn:uuid:de37b520-3536-4972-bbd6-7ec4853614be"
                  },
                  {
                    "reference": "urn:uuid:d1f8e31b-f254-435d-8c49-db5a711068b8"
                  },
                  {
                    "reference": "urn:uuid:503bc5ad-ce44-4c80-b97a-6a33d1b535aa"
                  },
                  {
                    "reference": "urn:uuid:e6111050-8fc1-4bdc-b7e6-d6a30b413107"
                  },
                  {
                    "reference": "urn:uuid:caf6c02c-269b-4308-968a-3278f4d8ee07"
                  },
                  {
                    "reference": "urn:uuid:2ba1b174-e470-43c6-a67c-61c5b2be3cca"
                  },
                  {
                    "reference": "urn:uuid:c604e87f-18ee-4812-8266-abb99f11f12e"
                  },
                  {
                    "reference": "urn:uuid:8f2565f6-d04a-40d3-b731-85259ba46904"
                  },
                  {
                    "reference": "urn:uuid:08ccb1a0-1607-43fd-b5a8-736c550dc011"
                  },
                  {
                    "reference": "urn:uuid:6c79e839-1acb-4550-8acf-893d83bf5475"
                  },
                  {
                    "reference": "urn:uuid:d1480457-f0e0-4658-a94a-8dda82517285"
                  }
                ],
                "text": {
                  "status": "generated",
                  "div": "<div xmlns=\"http://www.w3.org/1999/xhtml\"><h3>Urinalysis</h3><table class=\"hl7__eu__lab__report\"><thead><tr><th>Test</th><th>14-JUN-2019</th><th>Reference&#xA0;Range</th><th>Unit</th></tr></thead><tbody><tr><td>Glucose [Mass/volume] in Urine by Test strip</td><td><strong>0.9 H</strong></td><td>0 - 0.8</td><td>mg/dL</td></tr><tr><td>Glucose [Presence] in Urine by Test strip</td><td>++</td><td></td><td></td></tr><tr><td>Bilirubin.total [Mass/volume] in Urine by Test strip</td><td>1.3</td><td>0 - 1.9</td><td>mg/dL</td></tr><tr><td>Bilirubin.total [Presence] in Urine by Test strip</td><td>Finding of bilirubin in urine</td><td></td><td></td></tr><tr><td>Ketones [Mass/volume] in Urine by Test strip</td><td><strong>10.3 H</strong></td><td>0 - 3</td><td>mg/dL</td></tr><tr><td>Specific gravity of Urine by Test strip</td><td><strong>1.0 L</strong></td><td>1.01 - 1.03</td><td>{nominal}</td></tr><tr><td>pH of Urine by Test strip</td><td>5.3</td><td>4.5 - 7.5</td><td>pH</td></tr><tr><td>Protein [Mass/volume] in Urine by Test strip</td><td><strong>232.2 H</strong></td><td>0 - 149</td><td>mg/dL</td></tr><tr><td>Protein [Presence] in Urine by Test strip</td><td>Urine protein test = ++</td><td></td><td></td></tr><tr><td>Nitrite [Presence] in Urine by Test strip</td><td>Urine nitrite negative</td><td></td><td></td></tr><tr><td>Hemoglobin [Presence] in Urine by Test strip</td><td>Urine blood test = negative</td><td></td><td></td></tr><tr><td>Leukocyte esterase [Presence] in Urine by Test strip</td><td>Urine leukocyte test negative</td><td></td><td></td></tr></tbody></table></div>"
                },
                "title": "Urinalysis"
              },
              {
                "code": {
                  "coding": [
                    {
                      "code": "$LP7846-1",
                      "system": "http://loinc.org",
                      "display": "Specimen information"
                    }
                  ],
                  "text": "Specimen information"
                },
                "entry": [
                  {
                    "reference": "urn:uuid:79c40901-8788-40f3-a43f-aabe98cbbf23"
                  },
                  {
                    "reference": "urn:uuid:5df8c2cc-f279-4442-a388-be5e1a6105a1"
                  },
                  {
                    "reference": "urn:uuid:1c554c36-f8fe-4ae2-8fcd-b689c62aaa85"
                  },
                  {
                    "reference": "urn:uuid:4f4262eb-a742-4916-9aca-8f78560bcbb2"
                  }
                ],
                "text": {
                  "status": "generated",
                  "div": "<div xmlns=\"http://www.w3.org/1999/xhtml\"><h3>Specimen information</h3><table class=\"hl7__eu__lab__report\"><thead><tr><th>Test</th><th>14-JUN-2019</th><th>Specimen</th><th></th></tr></thead><tbody><tr><td>Appearance of Urine</td><td>Cloudy urine</td><td>Urine</td><td></td></tr><tr><td>Odor of Urine</td><td>Urine smell ammoniacal</td><td>Urine</td><td></td></tr><tr><td>Clarity of Urine</td><td>Translucent</td><td>Urine</td><td></td></tr><tr><td>Color of Urine</td><td>Brown color</td><td>Urine</td><td></td></tr></tbody></table></div>"
                },
                "title": "Specimen information"
              }
            ],
            "title": "Laboratory Report"
          },
          {
            "text": {
              "status": "generated",
              "div": "<div xmlns=\"http://www.w3.org/1999/xhtml\"><h3>Annotation</h3><table class=\"hl7__eu__lab__report\"><tr><th>Conclusion and Recommendations based on this report and previous findings known to us</th></tr><tr><td>The patient shows elevated creatinine, proteinuria, and low urine specific gravity, indicating impaired renal function. Urine findings (cloudy, brown, ammoniacal odor, ketonuria, proteinuria, glucosuria) suggest possible renal pathology, dehydration, or metabolic disturbance. Low HbA1c with normoglycemia may reflect recent hypoglycemia or anemia. No evidence of urinary tract infection. Recommend further evaluation of renal function and metabolic status.</td></tr></table></div>"
            },
            "code": {
              "coding": [
                {
                  "system": "http://loinc.org",
                  "code": "48767-8",
                  "display": "Annotation comment"
                }
              ]
            },
            "title": "Annotation comment"
          }
        ],
        "status": "final",
        "subject": {
          "reference": "urn:uuid:00791ff0-270d-4dbb-8677-ce503790dbdc",
          "display": "Victor Lagarde"
        },
        "date": "2019-06-14T06:48:18Z",
        "title": "Laboratory Report",
        "confidentiality": "N"
      }
    },
    {
      "fullUrl": "urn:uuid:46c615fd-4d68-4f40-af7d-78ad9de7c02b",
      "resource": {
        "resourceType": "DiagnosticReport",
        "id": "46c615fd-4d68-4f40-af7d-78ad9de7c02b",
        "meta": {
          "profile": [
            "http://hl7.eu/fhir/laboratory/StructureDefinition/DiagnosticReport-eu-lab"
          ]
        },
        "identifier": [
          {
            "assigner": {
              "display": "HL7 Europe"
            },
            "system": "urn:oid:2.16.840.1.113883.2.51.999",
            "value": "a989b129-c402-4de5-9c97-56a13997b8b6"
          }
        ],
        "extension": [
          {
            "url": "http://hl7.org/fhir/5.0/StructureDefinition/extension-DiagnosticReport.composition",
            "valueReference": {
              "reference": "urn:uuid:922b0d09-5e1c-41d7-bca3-567e1ac32b84"
            }
          }
        ],
        "category": [
          {
            "coding": [
              {
                "code": "26436-6",
                "system": "http://loinc.org",
                "display": "Laboratory studies (set)"
              }
            ]
          }
        ],
        "specimen": [
          {
            "reference": "urn:uuid:cfc6117f-9e73-4cf9-ba92-9ae8ad7966a2"
          },
          {
            "reference": "urn:uuid:5d0fe50b-3895-4911-a5bb-57014047d020"
          },
          {
            "reference": "urn:uuid:4a38e4a4-a9fc-425c-b768-d56fa53c490f"
          }
        ],
        "result": [
          {
            "reference": "urn:uuid:c8df61c1-7096-47cf-87ec-179bbe1df9b4"
          },
          {
            "reference": "urn:uuid:0f090243-385e-4707-bbf0-a9ca4f6cc81c"
          },
          {
            "reference": "urn:uuid:34818f93-b7d3-48a6-9ee5-8253ab421b60"
          },
          {
            "reference": "urn:uuid:45414117-f744-4979-b2bf-ad9a51279cf9"
          },
          {
            "reference": "urn:uuid:3405ef57-da06-45bd-b392-16888e8c6526"
          },
          {
            "reference": "urn:uuid:56071514-0de9-4371-ac77-6fa6c03097f5"
          },
          {
            "reference": "urn:uuid:ba7e6317-4630-4576-b626-d4d5ce38a099"
          },
          {
            "reference": "urn:uuid:f477c7c4-fd98-4c79-a923-fcfab69102a3"
          },
          {
            "reference": "urn:uuid:79c40901-8788-40f3-a43f-aabe98cbbf23"
          },
          {
            "reference": "urn:uuid:5df8c2cc-f279-4442-a388-be5e1a6105a1"
          },
          {
            "reference": "urn:uuid:1c554c36-f8fe-4ae2-8fcd-b689c62aaa85"
          },
          {
            "reference": "urn:uuid:4f4262eb-a742-4916-9aca-8f78560bcbb2"
          },
          {
            "reference": "urn:uuid:5c6fca24-06d5-4c35-a90d-7cfda2471a18"
          },
          {
            "reference": "urn:uuid:de37b520-3536-4972-bbd6-7ec4853614be"
          },
          {
            "reference": "urn:uuid:d1f8e31b-f254-435d-8c49-db5a711068b8"
          },
          {
            "reference": "urn:uuid:503bc5ad-ce44-4c80-b97a-6a33d1b535aa"
          },
          {
            "reference": "urn:uuid:e6111050-8fc1-4bdc-b7e6-d6a30b413107"
          },
          {
            "reference": "urn:uuid:400e6617-ed4f-4447-8777-1a81742865cd"
          },
          {
            "reference": "urn:uuid:caf6c02c-269b-4308-968a-3278f4d8ee07"
          },
          {
            "reference": "urn:uuid:2ba1b174-e470-43c6-a67c-61c5b2be3cca"
          },
          {
            "reference": "urn:uuid:c604e87f-18ee-4812-8266-abb99f11f12e"
          },
          {
            "reference": "urn:uuid:8f2565f6-d04a-40d3-b731-85259ba46904"
          },
          {
            "reference": "urn:uuid:08ccb1a0-1607-43fd-b5a8-736c550dc011"
          },
          {
            "reference": "urn:uuid:6c79e839-1acb-4550-8acf-893d83bf5475"
          },
          {
            "reference": "urn:uuid:d1480457-f0e0-4658-a94a-8dda82517285"
          },
          {
            "reference": "urn:uuid:3ab8fe90-f9ff-40c3-85dd-1bfc43f3995a"
          },
          {
            "reference": "urn:uuid:08630648-307e-4f0a-b81d-17f285710753"
          },
          {
            "reference": "urn:uuid:eb9c81da-a5be-47b3-917f-91898c66b0f4"
          },
          {
            "reference": "urn:uuid:c0308961-752e-4e14-8425-8db991e4e0ec"
          },
          {
            "reference": "urn:uuid:048b0569-bd16-4ea6-b74c-64141d7118d9"
          },
          {
            "reference": "urn:uuid:2a251490-42e3-45d4-82cb-23e4ed96ee15"
          },
          {
            "reference": "urn:uuid:39db40ca-f5e6-45dd-a5b0-58c09f85960e"
          },
          {
            "reference": "urn:uuid:fd4bfdc7-ada2-4c41-9704-ad97bc007bc3"
          },
          {
            "reference": "urn:uuid:4396c9fe-50b8-42a5-91a3-15632785028a"
          }
        ],
        "status": "registered",
        "code": {
          "coding": [
            {
              "code": "11502-2",
              "system": "http://loinc.org",
              "display": "Laboratory report"
            }
          ]
        },
        "subject": {
          "reference": "urn:uuid:00791ff0-270d-4dbb-8677-ce503790dbdc",
          "display": "Victor Lagarde"
        }
      }
    },
    {
      "fullUrl": "urn:uuid:00791ff0-270d-4dbb-8677-ce503790dbdc",
      "resource": {
        "resourceType": "Patient",
        "id": "00791ff0-270d-4dbb-8677-ce503790dbdc",
        "meta": {
          "security": [
            {
              "system": "http://terminology.hl7.org/CodeSystem/v3-ActReason",
              "code": "HTEST"
            },
            {
              "system": "http://terminology.hl7.org/CodeSystem/v3-ActReason",
              "code": "TRAIN"
            }
          ],
          "tag": [
            {
              "system": "https://synderai.net/fhir/CodeSystem/tags",
              "code": "synthetic",
              "display": "SYNDERAI Synthetic data"
            }
          ],
          "profile": [
            "http://hl7.eu/fhir/base/StructureDefinition/patient-eu-core"
          ]
        },
        "identifier": [
          {
            "type": {
              "coding": [
                {
                  "code": "PT",
                  "system": "http://terminology.hl7.org/CodeSystem/v2-0203"
                }
              ]
            },
            "system": "http://ec.europa.eu/identifier/eci",
            "value": "9925-001801-9"
          },
          {
            "type": {
              "coding": [
                {
                  "code": "MR",
                  "system": "http://terminology.hl7.org/CodeSystem/v2-0203"
                }
              ]
            },
            "system": "http://local.setting.eu/identifier",
            "value": "22c2dfd0-ac57-8833-2532-848f180896a4"
          }
        ],
        "name": [
          {
            "family": "Lagarde"
          },
          {
            "given": [
              "Victor"
            ]
          },
          {
            "text": "Victor Lagarde"
          }
        ],
        "address": [
          {
            "line": [
              "avenue Robert"
            ],
            "use": "home",
            "type": "physical",
            "postalCode": "80300",
            "city": "Albert",
            "country": "France"
          }
        ],
        "telecom": [
          {
            "system": "phone",
            "value": "0177941801"
          }
        ],
        "extension": [
          {
            "url": "http://hl7.org/fhir/StructureDefinition/patient-nationality",
            "valueCodeableConcept": {
              "coding": [
                {
                  "code": "FR",
                  "system": "http://hl7.org/fhir/ValueSet/country"
                }
              ]
            }
          }
        ],
        "text": {
          "status": "generated",
          "div": "<div xmlns=\"http://www.w3.org/1999/xhtml\"><table class=\"hl7__ips\"><tr><td>Victor Lagarde</td><td>male</td><td>31-Aug-1939</td></tr></table></div>"
        },
        "gender": "male",
        "birthDate": "1939-08-31"
      }
    },
    {
      "fullUrl": "urn:uuid:afae6ec5-1a7a-4187-93ab-d08371a7f230",
      "resource": {
        "resourceType": "ServiceRequest",
        "id": "afae6ec5-1a7a-4187-93ab-d08371a7f230",
        "meta": {
          "profile": [
            "http://hl7.eu/fhir/laboratory/StructureDefinition/ServiceRequest-eu-lab"
          ]
        },
        "identifier": [
          {
            "system": "http://example.org",
            "value": "9daf14f0-2532-43ba-aa84-d188859eaf37"
          }
        ],
        "specimen": [
          {
            "reference": "urn:uuid:cfc6117f-9e73-4cf9-ba92-9ae8ad7966a2"
          },
          {
            "reference": "urn:uuid:5d0fe50b-3895-4911-a5bb-57014047d020"
          },
          {
            "reference": "urn:uuid:4a38e4a4-a9fc-425c-b768-d56fa53c490f"
          }
        ],
        "reasonCode": [
          {
            "coding": [
              {
                "code": "433144002",
                "system": "http://snomed.info/sct",
                "display": "Chronic kidney disease stage 3"
              }
            ]
          },
          {
            "coding": [
              {
                "code": "157141000119108",
                "system": "http://snomed.info/sct",
                "display": "Proteinuria due to type 2 diabetes mellitus"
              }
            ]
          },
          {
            "coding": [
              {
                "code": "431856006",
                "system": "http://snomed.info/sct",
                "display": "Chronic kidney disease stage 2"
              }
            ]
          },
          {
            "coding": [
              {
                "code": "90781000119102",
                "system": "http://snomed.info/sct",
                "display": "Microalbuminuria due to type 2 diabetes mellitus"
              }
            ]
          },
          {
            "coding": [
              {
                "code": "127013003",
                "system": "http://snomed.info/sct",
                "display": "Disorder of kidney due to diabetes mellitus"
              }
            ]
          },
          {
            "coding": [
              {
                "code": "431855005",
                "system": "http://snomed.info/sct",
                "display": "Chronic kidney disease stage 1"
              }
            ]
          },
          {
            "coding": [
              {
                "code": "55822004",
                "system": "http://snomed.info/sct",
                "display": "Hyperlipidemia"
              }
            ]
          },
          {
            "coding": [
              {
                "code": "59621000",
                "system": "http://snomed.info/sct",
                "display": "Essential hypertension"
              }
            ]
          },
          {
            "coding": [
              {
                "code": "237602007",
                "system": "http://snomed.info/sct",
                "display": "Metabolic syndrome X"
              }
            ]
          },
          {
            "coding": [
              {
                "code": "414545008",
                "system": "http://snomed.info/sct",
                "display": "Ischemic heart disease"
              }
            ]
          },
          {
            "coding": [
              {
                "code": "40055000",
                "system": "http://snomed.info/sct",
                "display": "Chronic sinusitis"
              }
            ]
          },
          {
            "coding": [
              {
                "code": "15777000",
                "system": "http://snomed.info/sct",
                "display": "Prediabetes"
              }
            ]
          },
          {
            "coding": [
              {
                "code": "271737000",
                "system": "http://snomed.info/sct",
                "display": "Anemia"
              }
            ]
          }
        ],
        "status": "active",
        "intent": "order",
        "code": {
          "coding": [
            {
              "code": "108252007",
              "system": "http://snomed.info/sct",
              "display": "Laboratory procedure"
            }
          ]
        },
        "subject": {
          "reference": "urn:uuid:00791ff0-270d-4dbb-8677-ce503790dbdc",
          "display": "Victor Lagarde"
        },
        "requester": {
          "reference": "urn:uuid:ae5ad81f-9c49-4861-a540-f8cbfb5e5d7e"
        }
      }
    },
    {
      "fullUrl": "urn:uuid:ae5ad81f-9c49-4861-a540-f8cbfb5e5d7e",
      "resource": {
        "resourceType": "PractitionerRole",
        "id": "ae5ad81f-9c49-4861-a540-f8cbfb5e5d7e",
        "meta": {
          "profile": [
            "http://hl7.eu/fhir/base/StructureDefinition/practitionerRole-eu"
          ]
        },
        "text": {
          "status": "generated",
          "div": "<div xmlns=\"http://www.w3.org/1999/xhtml\">Provider Role Id: ae5ad81f-9c49-4861-a540-f8cbfb5e5d7e</div>"
        },
        "organization": {
          "reference": "urn:uuid:d403491d-16d6-4048-a73f-dc997e850215"
        }
      }
    },
    {
      "fullUrl": "urn:uuid:d403491d-16d6-4048-a73f-dc997e850215",
      "resource": {
        "resourceType": "Organization",
        "id": "d403491d-16d6-4048-a73f-dc997e850215",
        "meta": {
          "profile": [
            "http://hl7.eu/fhir/base/StructureDefinition/organization-eu"
          ]
        },
        "identifier": [
          {
            "assigner": {
              "display": "HL7 Europe"
            },
            "system": "urn:oid:2.16.840.1.113883.2.51.999",
            "value": "aae9b432-1236-48fc-858e-c399b2c940b0"
          }
        ],
        "address": [
          {
            "city": "Auxerre",
            "postalCode": "89000",
            "country": "France"
          }
        ],
        "text": {
          "status": "generated",
          "div": "<div xmlns=\"http://www.w3.org/1999/xhtml\">Provider Organization: Thiriot Didier (Cardiologie)</div>"
        },
        "name": "Thiriot Didier (Cardiologie)"
      }
    },
    {
      "fullUrl": "urn:uuid:cfc6117f-9e73-4cf9-ba92-9ae8ad7966a2",
      "resource": {
        "resourceType": "Specimen",
        "id": "cfc6117f-9e73-4cf9-ba92-9ae8ad7966a2",
        "meta": {
          "profile": [
            "http://hl7.eu/fhir/laboratory/StructureDefinition/Specimen-eu-lab"
          ]
        },
        "collection": {
          "collectedDateTime": "2019-06-14"
        },
        "text": {
          "status": "generated",
          "div": "<div xmlns=\"http://www.w3.org/1999/xhtml\"><table class=\"hl7__eu__lab__report\"><tr><th>Specimen</th><th>Collection Date</th></tr><tr><td>Acellular blood (serum or plasma) specimen</td><td><span class=\"nb\">14-Jun-2019</span></td></tr></table></div>"
        },
        "type": {
          "coding": [
            {
              "code": "122592007",
              "system": "http://snomed.info/sct",
              "display": "Acellular blood (serum or plasma) specimen"
            }
          ]
        }
      }
    },
    {
      "fullUrl": "urn:uuid:5d0fe50b-3895-4911-a5bb-57014047d020",
      "resource": {
        "resourceType": "Specimen",
        "id": "5d0fe50b-3895-4911-a5bb-57014047d020",
        "meta": {
          "profile": [
            "http://hl7.eu/fhir/laboratory/StructureDefinition/Specimen-eu-lab"
          ]
        },
        "collection": {
          "collectedDateTime": "2019-06-14"
        },
        "text": {
          "status": "generated",
          "div": "<div xmlns=\"http://www.w3.org/1999/xhtml\"><table class=\"hl7__eu__lab__report\"><tr><th>Specimen</th><th>Collection Date</th></tr><tr><td>Urine specimen</td><td><span class=\"nb\">14-Jun-2019</span></td></tr></table></div>"
        },
        "type": {
          "coding": [
            {
              "code": "122575003",
              "system": "http://snomed.info/sct",
              "display": "Urine specimen"
            }
          ]
        }
      }
    },
    {
      "fullUrl": "urn:uuid:4a38e4a4-a9fc-425c-b768-d56fa53c490f",
      "resource": {
        "resourceType": "Specimen",
        "id": "4a38e4a4-a9fc-425c-b768-d56fa53c490f",
        "meta": {
          "profile": [
            "http://hl7.eu/fhir/laboratory/StructureDefinition/Specimen-eu-lab"
          ]
        },
        "collection": {
          "collectedDateTime": "2019-06-14"
        },
        "text": {
          "status": "generated",
          "div": "<div xmlns=\"http://www.w3.org/1999/xhtml\"><table class=\"hl7__eu__lab__report\"><tr><th>Specimen</th><th>Collection Date</th></tr><tr><td>Whole blood specimen (specimen)</td><td><span class=\"nb\">14-Jun-2019</span></td></tr></table></div>"
        },
        "type": {
          "coding": [
            {
              "code": "258580003",
              "system": "http://snomed.info/sct",
              "display": "Whole blood specimen (specimen)"
            }
          ]
        }
      }
    },
    {
      "fullUrl": "urn:uuid:c8df61c1-7096-47cf-87ec-179bbe1df9b4",
      "resource": {
        "resourceType": "Observation",
        "id": "c8df61c1-7096-47cf-87ec-179bbe1df9b4",
        "meta": {
          "profile": [
            "http://hl7.eu/fhir/laboratory/StructureDefinition/Observation-resultslab-eu-lab"
          ]
        },
        "performer": [
          {
            "display": "The Central European Lab"
          }
        ],
        "category": [
          {
            "coding": [
              {
                "system": "http://terminology.hl7.org/CodeSystem/observation-category",
                "code": "laboratory"
              }
            ]
          }
        ],
        "code": {
          "coding": [
            {
              "code": "2345-7",
              "system": "http://loinc.org",
              "display": "Glucose [Mass/volume] in Serum or Plasma"
            }
          ],
          "text": "Glucose [Mass/volume] in Serum or Plasma"
        },
        "valueQuantity": {
          "system": "http://unitsofmeasure.org",
          "value": 73.5,
          "unit": "mg/dL",
          "code": "mg/dL"
        },
        "referenceRange": [
          {
            "low": {
              "value": 70,
              "code": "mg/dL",
              "system": "http://unitsofmeasure.org"
            }
          },
          {
            "high": {
              "value": 140,
              "code": "mg/dL",
              "system": "http://unitsofmeasure.org"
            }
          }
        ],
        "text": {
          "status": "generated",
          "div": "<div xmlns=\"http://www.w3.org/1999/xhtml\"><table class=\"hl7__eu__lab__report\"><tr><th>Test</th><th>14-Jun-2019</th><th>Reference&#xA0;Range</th><th>Unit</th></tr><tr><td>Glucose [Mass/volume] in Serum or Plasma</td><td>73.5</td><td>70 - 140</td><td></td><td>mg/dL</td></tr></table></div>"
        },
        "status": "final",
        "subject": {
          "reference": "urn:uuid:00791ff0-270d-4dbb-8677-ce503790dbdc",
          "display": "Victor Lagarde"
        },
        "effectiveDateTime": "2019-06-14T04:48:18Z",
        "specimen": {
          "reference": "urn:uuid:cfc6117f-9e73-4cf9-ba92-9ae8ad7966a2"
        }
      }
    },
    {
      "fullUrl": "urn:uuid:0f090243-385e-4707-bbf0-a9ca4f6cc81c",
      "resource": {
        "resourceType": "Observation",
        "id": "0f090243-385e-4707-bbf0-a9ca4f6cc81c",
        "meta": {
          "profile": [
            "http://hl7.eu/fhir/laboratory/StructureDefinition/Observation-resultslab-eu-lab"
          ]
        },
        "performer": [
          {
            "display": "The Central European Lab"
          }
        ],
        "category": [
          {
            "coding": [
              {
                "system": "http://terminology.hl7.org/CodeSystem/observation-category",
                "code": "laboratory"
              }
            ]
          }
        ],
        "code": {
          "coding": [
            {
              "code": "3094-0",
              "system": "http://loinc.org",
              "display": "Urea nitrogen [Mass/volume] in Serum or Plasma"
            }
          ],
          "text": "Urea nitrogen [Mass/volume] in Serum or Plasma"
        },
        "valueQuantity": {
          "system": "http://unitsofmeasure.org",
          "value": 17.7,
          "unit": "mg/dL",
          "code": "mg/dL"
        },
        "referenceRange": [
          {
            "low": {
              "value": 7,
              "code": "mg/dL",
              "system": "http://unitsofmeasure.org"
            }
          },
          {
            "high": {
              "value": 20,
              "code": "mg/dL",
              "system": "http://unitsofmeasure.org"
            }
          }
        ],
        "text": {
          "status": "generated",
          "div": "<div xmlns=\"http://www.w3.org/1999/xhtml\"><table class=\"hl7__eu__lab__report\"><tr><th>Test</th><th>14-Jun-2019</th><th>Reference&#xA0;Range</th><th>Unit</th></tr><tr><td>Urea nitrogen [Mass/volume] in Serum or Plasma</td><td>17.7</td><td>7 - 20</td><td></td><td>mg/dL</td></tr></table></div>"
        },
        "status": "final",
        "subject": {
          "reference": "urn:uuid:00791ff0-270d-4dbb-8677-ce503790dbdc",
          "display": "Victor Lagarde"
        },
        "effectiveDateTime": "2019-06-14T04:48:18Z",
        "specimen": {
          "reference": "urn:uuid:cfc6117f-9e73-4cf9-ba92-9ae8ad7966a2"
        }
      }
    },
    {
      "fullUrl": "urn:uuid:34818f93-b7d3-48a6-9ee5-8253ab421b60",
      "resource": {
        "resourceType": "Observation",
        "id": "34818f93-b7d3-48a6-9ee5-8253ab421b60",
        "meta": {
          "profile": [
            "http://hl7.eu/fhir/laboratory/StructureDefinition/Observation-resultslab-eu-lab"
          ]
        },
        "performer": [
          {
            "display": "The Central European Lab"
          }
        ],
        "category": [
          {
            "coding": [
              {
                "system": "http://terminology.hl7.org/CodeSystem/observation-category",
                "code": "laboratory"
              }
            ]
          }
        ],
        "code": {
          "coding": [
            {
              "code": "2160-0",
              "system": "http://loinc.org",
              "display": "Creatinine [Mass/volume] in Serum or Plasma"
            }
          ],
          "text": "Creatinine [Mass/volume] in Serum or Plasma"
        },
        "valueQuantity": {
          "system": "http://unitsofmeasure.org",
          "value": 2,
          "unit": "mg/dL",
          "code": "mg/dL"
        },
        "referenceRange": [
          {
            "low": {
              "value": 0.9,
              "code": "mg/dL",
              "system": "http://unitsofmeasure.org"
            }
          },
          {
            "high": {
              "value": 1.3,
              "code": "mg/dL",
              "system": "http://unitsofmeasure.org"
            }
          }
        ],
        "interpretation": [
          {
            "coding": [
              {
                "code": "H",
                "system": "http://terminology.hl7.org/CodeSystem/v3-ObservationInterpretation",
                "display": "High"
              }
            ]
          }
        ],
        "text": {
          "status": "generated",
          "div": "<div xmlns=\"http://www.w3.org/1999/xhtml\"><table class=\"hl7__eu__lab__report\"><tr><th>Test</th><th>14-Jun-2019</th><th>Reference&#xA0;Range</th><th>Unit</th></tr><tr><td>Creatinine [Mass/volume] in Serum or Plasma</td><td>2.0</td><td>0.9 - 1.3</td><td>H</td><td>mg/dL</td></tr></table></div>"
        },
        "status": "final",
        "subject": {
          "reference": "urn:uuid:00791ff0-270d-4dbb-8677-ce503790dbdc",
          "display": "Victor Lagarde"
        },
        "effectiveDateTime": "2019-06-14T04:48:18Z",
        "specimen": {
          "reference": "urn:uuid:cfc6117f-9e73-4cf9-ba92-9ae8ad7966a2"
        }
      }
    },
    {
      "fullUrl": "urn:uuid:45414117-f744-4979-b2bf-ad9a51279cf9",
      "resource": {
        "resourceType": "Observation",
        "id": "45414117-f744-4979-b2bf-ad9a51279cf9",
        "meta": {
          "profile": [
            "http://hl7.eu/fhir/laboratory/StructureDefinition/Observation-resultslab-eu-lab"
          ]
        },
        "performer": [
          {
            "display": "The Central European Lab"
          }
        ],
        "category": [
          {
            "coding": [
              {
                "system": "http://terminology.hl7.org/CodeSystem/observation-category",
                "code": "laboratory"
              }
            ]
          }
        ],
        "code": {
          "coding": [
            {
              "code": "17861-6",
              "system": "http://loinc.org",
              "display": "Calcium [Mass/volume] in Serum or Plasma"
            }
          ],
          "text": "Calcium [Mass/volume] in Serum or Plasma"
        },
        "valueQuantity": {
          "system": "http://unitsofmeasure.org",
          "value": 8.7,
          "unit": "mg/dL",
          "code": "mg/dL"
        },
        "referenceRange": [
          {
            "low": {
              "value": 8.5,
              "code": "mg/dL",
              "system": "http://unitsofmeasure.org"
            }
          },
          {
            "high": {
              "value": 10.5,
              "code": "mg/dL",
              "system": "http://unitsofmeasure.org"
            }
          }
        ],
        "text": {
          "status": "generated",
          "div": "<div xmlns=\"http://www.w3.org/1999/xhtml\"><table class=\"hl7__eu__lab__report\"><tr><th>Test</th><th>14-Jun-2019</th><th>Reference&#xA0;Range</th><th>Unit</th></tr><tr><td>Calcium [Mass/volume] in Serum or Plasma</td><td>8.7</td><td>8.5 - 10.5</td><td></td><td>mg/dL</td></tr></table></div>"
        },
        "status": "final",
        "subject": {
          "reference": "urn:uuid:00791ff0-270d-4dbb-8677-ce503790dbdc",
          "display": "Victor Lagarde"
        },
        "effectiveDateTime": "2019-06-14T04:48:18Z",
        "specimen": {
          "reference": "urn:uuid:cfc6117f-9e73-4cf9-ba92-9ae8ad7966a2"
        }
      }
    },
    {
      "fullUrl": "urn:uuid:3405ef57-da06-45bd-b392-16888e8c6526",
      "resource": {
        "resourceType": "Observation",
        "id": "3405ef57-da06-45bd-b392-16888e8c6526",
        "meta": {
          "profile": [
            "http://hl7.eu/fhir/laboratory/StructureDefinition/Observation-resultslab-eu-lab"
          ]
        },
        "performer": [
          {
            "display": "The Central European Lab"
          }
        ],
        "category": [
          {
            "coding": [
              {
                "system": "http://terminology.hl7.org/CodeSystem/observation-category",
                "code": "laboratory"
              }
            ]
          }
        ],
        "code": {
          "coding": [
            {
              "code": "2951-2",
              "system": "http://loinc.org",
              "display": "Sodium [Moles/volume] in Serum or Plasma"
            }
          ],
          "text": "Sodium [Moles/volume] in Serum or Plasma"
        },
        "valueQuantity": {
          "system": "http://unitsofmeasure.org",
          "value": 140.4,
          "unit": "mmol/L",
          "code": "mmol/L"
        },
        "referenceRange": [
          {
            "low": {
              "value": 135,
              "code": "mmol/L",
              "system": "http://unitsofmeasure.org"
            }
          },
          {
            "high": {
              "value": 145,
              "code": "mmol/L",
              "system": "http://unitsofmeasure.org"
            }
          }
        ],
        "text": {
          "status": "generated",
          "div": "<div xmlns=\"http://www.w3.org/1999/xhtml\"><table class=\"hl7__eu__lab__report\"><tr><th>Test</th><th>14-Jun-2019</th><th>Reference&#xA0;Range</th><th>Unit</th></tr><tr><td>Sodium [Moles/volume] in Serum or Plasma</td><td>140.4</td><td>135 - 145</td><td></td><td>mmol/L</td></tr></table></div>"
        },
        "status": "final",
        "subject": {
          "reference": "urn:uuid:00791ff0-270d-4dbb-8677-ce503790dbdc",
          "display": "Victor Lagarde"
        },
        "effectiveDateTime": "2019-06-14T04:48:18Z",
        "specimen": {
          "reference": "urn:uuid:cfc6117f-9e73-4cf9-ba92-9ae8ad7966a2"
        }
      }
    },
    {
      "fullUrl": "urn:uuid:56071514-0de9-4371-ac77-6fa6c03097f5",
      "resource": {
        "resourceType": "Observation",
        "id": "56071514-0de9-4371-ac77-6fa6c03097f5",
        "meta": {
          "profile": [
            "http://hl7.eu/fhir/laboratory/StructureDefinition/Observation-resultslab-eu-lab"
          ]
        },
        "performer": [
          {
            "display": "The Central European Lab"
          }
        ],
        "category": [
          {
            "coding": [
              {
                "system": "http://terminology.hl7.org/CodeSystem/observation-category",
                "code": "laboratory"
              }
            ]
          }
        ],
        "code": {
          "coding": [
            {
              "code": "2823-3",
              "system": "http://loinc.org",
              "display": "Potassium [Moles/volume] in Serum or Plasma"
            }
          ],
          "text": "Potassium [Moles/volume] in Serum or Plasma"
        },
        "valueQuantity": {
          "system": "http://unitsofmeasure.org",
          "value": 4.6,
          "unit": "mmol/L",
          "code": "mmol/L"
        },
        "referenceRange": [
          {
            "low": {
              "value": 3.5,
              "code": "mmol/L",
              "system": "http://unitsofmeasure.org"
            }
          },
          {
            "high": {
              "value": 5.3,
              "code": "mmol/L",
              "system": "http://unitsofmeasure.org"
            }
          }
        ],
        "text": {
          "status": "generated",
          "div": "<div xmlns=\"http://www.w3.org/1999/xhtml\"><table class=\"hl7__eu__lab__report\"><tr><th>Test</th><th>14-Jun-2019</th><th>Reference&#xA0;Range</th><th>Unit</th></tr><tr><td>Potassium [Moles/volume] in Serum or Plasma</td><td>4.6</td><td>3.5 - 5.3</td><td></td><td>mmol/L</td></tr></table></div>"
        },
        "status": "final",
        "subject": {
          "reference": "urn:uuid:00791ff0-270d-4dbb-8677-ce503790dbdc",
          "display": "Victor Lagarde"
        },
        "effectiveDateTime": "2019-06-14T04:48:18Z",
        "specimen": {
          "reference": "urn:uuid:cfc6117f-9e73-4cf9-ba92-9ae8ad7966a2"
        }
      }
    },
    {
      "fullUrl": "urn:uuid:ba7e6317-4630-4576-b626-d4d5ce38a099",
      "resource": {
        "resourceType": "Observation",
        "id": "ba7e6317-4630-4576-b626-d4d5ce38a099",
        "meta": {
          "profile": [
            "http://hl7.eu/fhir/laboratory/StructureDefinition/Observation-resultslab-eu-lab"
          ]
        },
        "performer": [
          {
            "display": "The Central European Lab"
          }
        ],
        "category": [
          {
            "coding": [
              {
                "system": "http://terminology.hl7.org/CodeSystem/observation-category",
                "code": "laboratory"
              }
            ]
          }
        ],
        "code": {
          "coding": [
            {
              "code": "2075-0",
              "system": "http://loinc.org",
              "display": "Chloride [Moles/volume] in Serum or Plasma"
            }
          ],
          "text": "Chloride [Moles/volume] in Serum or Plasma"
        },
        "valueQuantity": {
          "system": "http://unitsofmeasure.org",
          "value": 103.5,
          "unit": "mmol/L",
          "code": "mmol/L"
        },
        "referenceRange": [
          {
            "low": {
              "value": 98,
              "code": "mmol/L",
              "system": "http://unitsofmeasure.org"
            }
          },
          {
            "high": {
              "value": 107,
              "code": "mmol/L",
              "system": "http://unitsofmeasure.org"
            }
          }
        ],
        "text": {
          "status": "generated",
          "div": "<div xmlns=\"http://www.w3.org/1999/xhtml\"><table class=\"hl7__eu__lab__report\"><tr><th>Test</th><th>14-Jun-2019</th><th>Reference&#xA0;Range</th><th>Unit</th></tr><tr><td>Chloride [Moles/volume] in Serum or Plasma</td><td>103.5</td><td>98 - 107</td><td></td><td>mmol/L</td></tr></table></div>"
        },
        "status": "final",
        "subject": {
          "reference": "urn:uuid:00791ff0-270d-4dbb-8677-ce503790dbdc",
          "display": "Victor Lagarde"
        },
        "effectiveDateTime": "2019-06-14T04:48:18Z",
        "specimen": {
          "reference": "urn:uuid:cfc6117f-9e73-4cf9-ba92-9ae8ad7966a2"
        }
      }
    },
    {
      "fullUrl": "urn:uuid:f477c7c4-fd98-4c79-a923-fcfab69102a3",
      "resource": {
        "resourceType": "Observation",
        "id": "f477c7c4-fd98-4c79-a923-fcfab69102a3",
        "meta": {
          "profile": [
            "http://hl7.eu/fhir/laboratory/StructureDefinition/Observation-resultslab-eu-lab"
          ]
        },
        "performer": [
          {
            "display": "The Central European Lab"
          }
        ],
        "category": [
          {
            "coding": [
              {
                "system": "http://terminology.hl7.org/CodeSystem/observation-category",
                "code": "laboratory"
              }
            ]
          }
        ],
        "code": {
          "coding": [
            {
              "code": "2028-9",
              "system": "http://loinc.org",
              "display": "Carbon dioxide, total [Moles/volume] in Serum or Plasma"
            }
          ],
          "text": "Carbon dioxide, total [Moles/volume] in Serum or Plasma"
        },
        "valueQuantity": {
          "system": "http://unitsofmeasure.org",
          "value": 25.7,
          "unit": "mmol/L",
          "code": "mmol/L"
        },
        "referenceRange": [
          {
            "low": {
              "value": 22,
              "code": "mmol/L",
              "system": "http://unitsofmeasure.org"
            }
          },
          {
            "high": {
              "value": 33,
              "code": "mmol/L",
              "system": "http://unitsofmeasure.org"
            }
          }
        ],
        "text": {
          "status": "generated",
          "div": "<div xmlns=\"http://www.w3.org/1999/xhtml\"><table class=\"hl7__eu__lab__report\"><tr><th>Test</th><th>14-Jun-2019</th><th>Reference&#xA0;Range</th><th>Unit</th></tr><tr><td>Carbon dioxide, total [Moles/volume] in Serum or Plasma</td><td>25.7</td><td>22 - 33</td><td></td><td>mmol/L</td></tr></table></div>"
        },
        "status": "final",
        "subject": {
          "reference": "urn:uuid:00791ff0-270d-4dbb-8677-ce503790dbdc",
          "display": "Victor Lagarde"
        },
        "effectiveDateTime": "2019-06-14T04:48:18Z",
        "specimen": {
          "reference": "urn:uuid:cfc6117f-9e73-4cf9-ba92-9ae8ad7966a2"
        }
      }
    },
    {
      "fullUrl": "urn:uuid:79c40901-8788-40f3-a43f-aabe98cbbf23",
      "resource": {
        "resourceType": "Observation",
        "id": "79c40901-8788-40f3-a43f-aabe98cbbf23",
        "meta": {
          "profile": [
            "http://hl7.eu/fhir/laboratory/StructureDefinition/Observation-resultslab-eu-lab"
          ]
        },
        "performer": [
          {
            "display": "The Central European Lab"
          }
        ],
        "category": [
          {
            "coding": [
              {
                "system": "http://terminology.hl7.org/CodeSystem/observation-category",
                "code": "laboratory"
              }
            ]
          }
        ],
        "code": {
          "coding": [
            {
              "code": "5767-9",
              "system": "http://loinc.org",
              "display": "Appearance of Urine"
            }
          ],
          "text": "Appearance of Urine"
        },
        "text": {
          "status": "generated",
          "div": "<div xmlns=\"http://www.w3.org/1999/xhtml\"><table class=\"hl7__eu__lab__report\"><tr><th>Test</th><th>14-Jun-2019</th><th>Reference&#xA0;Range</th><th>Unit</th></tr><tr><td>Appearance of Urine</td></tr></table></div>"
        },
        "status": "final",
        "subject": {
          "reference": "urn:uuid:00791ff0-270d-4dbb-8677-ce503790dbdc",
          "display": "Victor Lagarde"
        },
        "effectiveDateTime": "2019-06-14T04:48:18Z",
        "specimen": {
          "reference": "urn:uuid:5d0fe50b-3895-4911-a5bb-57014047d020"
        }
      }
    },
    {
      "fullUrl": "urn:uuid:5df8c2cc-f279-4442-a388-be5e1a6105a1",
      "resource": {
        "resourceType": "Observation",
        "id": "5df8c2cc-f279-4442-a388-be5e1a6105a1",
        "meta": {
          "profile": [
            "http://hl7.eu/fhir/laboratory/StructureDefinition/Observation-resultslab-eu-lab"
          ]
        },
        "performer": [
          {
            "display": "The Central European Lab"
          }
        ],
        "category": [
          {
            "coding": [
              {
                "system": "http://terminology.hl7.org/CodeSystem/observation-category",
                "code": "laboratory"
              }
            ]
          }
        ],
        "code": {
          "coding": [
            {
              "code": "34533-0",
              "system": "http://loinc.org",
              "display": "Odor of Urine"
            }
          ],
          "text": "Odor of Urine"
        },
        "text": {
          "status": "generated",
          "div": "<div xmlns=\"http://www.w3.org/1999/xhtml\"><table class=\"hl7__eu__lab__report\"><tr><th>Test</th><th>14-Jun-2019</th><th>Reference&#xA0;Range</th><th>Unit</th></tr><tr><td>Odor of Urine</td></tr></table></div>"
        },
        "status": "final",
        "subject": {
          "reference": "urn:uuid:00791ff0-270d-4dbb-8677-ce503790dbdc",
          "display": "Victor Lagarde"
        },
        "effectiveDateTime": "2019-06-14T04:48:18Z",
        "specimen": {
          "reference": "urn:uuid:5d0fe50b-3895-4911-a5bb-57014047d020"
        }
      }
    },
    {
      "fullUrl": "urn:uuid:1c554c36-f8fe-4ae2-8fcd-b689c62aaa85",
      "resource": {
        "resourceType": "Observation",
        "id": "1c554c36-f8fe-4ae2-8fcd-b689c62aaa85",
        "meta": {
          "profile": [
            "http://hl7.eu/fhir/laboratory/StructureDefinition/Observation-resultslab-eu-lab"
          ]
        },
        "performer": [
          {
            "display": "The Central European Lab"
          }
        ],
        "category": [
          {
            "coding": [
              {
                "system": "http://terminology.hl7.org/CodeSystem/observation-category",
                "code": "laboratory"
              }
            ]
          }
        ],
        "code": {
          "coding": [
            {
              "code": "32167-9",
              "system": "http://loinc.org",
              "display": "Clarity of Urine"
            }
          ],
          "text": "Clarity of Urine"
        },
        "text": {
          "status": "generated",
          "div": "<div xmlns=\"http://www.w3.org/1999/xhtml\"><table class=\"hl7__eu__lab__report\"><tr><th>Test</th><th>14-Jun-2019</th><th>Reference&#xA0;Range</th><th>Unit</th></tr><tr><td>Clarity of Urine</td></tr></table></div>"
        },
        "status": "final",
        "subject": {
          "reference": "urn:uuid:00791ff0-270d-4dbb-8677-ce503790dbdc",
          "display": "Victor Lagarde"
        },
        "effectiveDateTime": "2019-06-14T04:48:18Z",
        "specimen": {
          "reference": "urn:uuid:5d0fe50b-3895-4911-a5bb-57014047d020"
        }
      }
    },
    {
      "fullUrl": "urn:uuid:4f4262eb-a742-4916-9aca-8f78560bcbb2",
      "resource": {
        "resourceType": "Observation",
        "id": "4f4262eb-a742-4916-9aca-8f78560bcbb2",
        "meta": {
          "profile": [
            "http://hl7.eu/fhir/laboratory/StructureDefinition/Observation-resultslab-eu-lab"
          ]
        },
        "performer": [
          {
            "display": "The Central European Lab"
          }
        ],
        "category": [
          {
            "coding": [
              {
                "system": "http://terminology.hl7.org/CodeSystem/observation-category",
                "code": "laboratory"
              }
            ]
          }
        ],
        "code": {
          "coding": [
            {
              "code": "5778-6",
              "system": "http://loinc.org",
              "display": "Color of Urine"
            }
          ],
          "text": "Color of Urine"
        },
        "text": {
          "status": "generated",
          "div": "<div xmlns=\"http://www.w3.org/1999/xhtml\"><table class=\"hl7__eu__lab__report\"><tr><th>Test</th><th>14-Jun-2019</th><th>Reference&#xA0;Range</th><th>Unit</th></tr><tr><td>Color of Urine</td></tr></table></div>"
        },
        "status": "final",
        "subject": {
          "reference": "urn:uuid:00791ff0-270d-4dbb-8677-ce503790dbdc",
          "display": "Victor Lagarde"
        },
        "effectiveDateTime": "2019-06-14T04:48:18Z",
        "specimen": {
          "reference": "urn:uuid:5d0fe50b-3895-4911-a5bb-57014047d020"
        }
      }
    },
    {
      "fullUrl": "urn:uuid:5c6fca24-06d5-4c35-a90d-7cfda2471a18",
      "resource": {
        "resourceType": "Observation",
        "id": "5c6fca24-06d5-4c35-a90d-7cfda2471a18",
        "meta": {
          "profile": [
            "http://hl7.eu/fhir/laboratory/StructureDefinition/Observation-resultslab-eu-lab"
          ]
        },
        "performer": [
          {
            "display": "The Central European Lab"
          }
        ],
        "category": [
          {
            "coding": [
              {
                "system": "http://terminology.hl7.org/CodeSystem/observation-category",
                "code": "laboratory"
              }
            ]
          }
        ],
        "code": {
          "coding": [
            {
              "code": "5792-7",
              "system": "http://loinc.org",
              "display": "Glucose [Mass/volume] in Urine by Test strip"
            }
          ],
          "text": "Glucose [Mass/volume] in Urine by Test strip"
        },
        "valueQuantity": {
          "system": "http://unitsofmeasure.org",
          "value": 0.9,
          "unit": "mg/dL",
          "code": "mg/dL"
        },
        "referenceRange": [
          {
            "low": {
              "value": 0,
              "code": "mg/dL",
              "system": "http://unitsofmeasure.org"
            }
          },
          {
            "high": {
              "value": 0.8,
              "code": "mg/dL",
              "system": "http://unitsofmeasure.org"
            }
          }
        ],
        "interpretation": [
          {
            "coding": [
              {
                "code": "H",
                "system": "http://terminology.hl7.org/CodeSystem/v3-ObservationInterpretation",
                "display": "High"
              }
            ]
          }
        ],
        "text": {
          "status": "generated",
          "div": "<div xmlns=\"http://www.w3.org/1999/xhtml\"><table class=\"hl7__eu__lab__report\"><tr><th>Test</th><th>14-Jun-2019</th><th>Reference&#xA0;Range</th><th>Unit</th></tr><tr><td>Glucose [Mass/volume] in Urine by Test strip</td><td>0.9</td><td>0 - 0.8</td><td>H</td><td>mg/dL</td></tr></table></div>"
        },
        "status": "final",
        "subject": {
          "reference": "urn:uuid:00791ff0-270d-4dbb-8677-ce503790dbdc",
          "display": "Victor Lagarde"
        },
        "effectiveDateTime": "2019-06-14T04:48:18Z",
        "specimen": {
          "reference": "urn:uuid:5d0fe50b-3895-4911-a5bb-57014047d020"
        }
      }
    },
    {
      "fullUrl": "urn:uuid:de37b520-3536-4972-bbd6-7ec4853614be",
      "resource": {
        "resourceType": "Observation",
        "id": "de37b520-3536-4972-bbd6-7ec4853614be",
        "meta": {
          "profile": [
            "http://hl7.eu/fhir/laboratory/StructureDefinition/Observation-resultslab-eu-lab"
          ]
        },
        "performer": [
          {
            "display": "The Central European Lab"
          }
        ],
        "category": [
          {
            "coding": [
              {
                "system": "http://terminology.hl7.org/CodeSystem/observation-category",
                "code": "laboratory"
              }
            ]
          }
        ],
        "code": {
          "coding": [
            {
              "code": "25428-4",
              "system": "http://loinc.org",
              "display": "Glucose [Presence] in Urine by Test strip"
            }
          ],
          "text": "Glucose [Presence] in Urine by Test strip"
        },
        "text": {
          "status": "generated",
          "div": "<div xmlns=\"http://www.w3.org/1999/xhtml\"><table class=\"hl7__eu__lab__report\"><tr><th>Test</th><th>14-Jun-2019</th><th>Reference&#xA0;Range</th><th>Unit</th></tr><tr><td>Glucose [Presence] in Urine by Test strip</td></tr></table></div>"
        },
        "status": "final",
        "subject": {
          "reference": "urn:uuid:00791ff0-270d-4dbb-8677-ce503790dbdc",
          "display": "Victor Lagarde"
        },
        "effectiveDateTime": "2019-06-14T04:48:18Z",
        "specimen": {
          "reference": "urn:uuid:5d0fe50b-3895-4911-a5bb-57014047d020"
        }
      }
    },
    {
      "fullUrl": "urn:uuid:d1f8e31b-f254-435d-8c49-db5a711068b8",
      "resource": {
        "resourceType": "Observation",
        "id": "d1f8e31b-f254-435d-8c49-db5a711068b8",
        "meta": {
          "profile": [
            "http://hl7.eu/fhir/laboratory/StructureDefinition/Observation-resultslab-eu-lab"
          ]
        },
        "performer": [
          {
            "display": "The Central European Lab"
          }
        ],
        "category": [
          {
            "coding": [
              {
                "system": "http://terminology.hl7.org/CodeSystem/observation-category",
                "code": "laboratory"
              }
            ]
          }
        ],
        "code": {
          "coding": [
            {
              "code": "20505-4",
              "system": "http://loinc.org",
              "display": "Bilirubin.total [Mass/volume] in Urine by Test strip"
            }
          ],
          "text": "Bilirubin.total [Mass/volume] in Urine by Test strip"
        },
        "valueQuantity": {
          "system": "http://unitsofmeasure.org",
          "value": 1.3,
          "unit": "mg/dL",
          "code": "mg/dL"
        },
        "referenceRange": [
          {
            "low": {
              "value": 0,
              "code": "mg/dL",
              "system": "http://unitsofmeasure.org"
            }
          },
          {
            "high": {
              "value": 1.9,
              "code": "mg/dL",
              "system": "http://unitsofmeasure.org"
            }
          }
        ],
        "text": {
          "status": "generated",
          "div": "<div xmlns=\"http://www.w3.org/1999/xhtml\"><table class=\"hl7__eu__lab__report\"><tr><th>Test</th><th>14-Jun-2019</th><th>Reference&#xA0;Range</th><th>Unit</th></tr><tr><td>Bilirubin.total [Mass/volume] in Urine by Test strip</td><td>1.3</td><td>0 - 1.9</td><td></td><td>mg/dL</td></tr></table></div>"
        },
        "status": "final",
        "subject": {
          "reference": "urn:uuid:00791ff0-270d-4dbb-8677-ce503790dbdc",
          "display": "Victor Lagarde"
        },
        "effectiveDateTime": "2019-06-14T04:48:18Z",
        "specimen": {
          "reference": "urn:uuid:5d0fe50b-3895-4911-a5bb-57014047d020"
        }
      }
    },
    {
      "fullUrl": "urn:uuid:503bc5ad-ce44-4c80-b97a-6a33d1b535aa",
      "resource": {
        "resourceType": "Observation",
        "id": "503bc5ad-ce44-4c80-b97a-6a33d1b535aa",
        "meta": {
          "profile": [
            "http://hl7.eu/fhir/laboratory/StructureDefinition/Observation-resultslab-eu-lab"
          ]
        },
        "performer": [
          {
            "display": "The Central European Lab"
          }
        ],
        "category": [
          {
            "coding": [
              {
                "system": "http://terminology.hl7.org/CodeSystem/observation-category",
                "code": "laboratory"
              }
            ]
          }
        ],
        "code": {
          "coding": [
            {
              "code": "5770-3",
              "system": "http://loinc.org",
              "display": "Bilirubin.total [Presence] in Urine by Test strip"
            }
          ],
          "text": "Bilirubin.total [Presence] in Urine by Test strip"
        },
        "text": {
          "status": "generated",
          "div": "<div xmlns=\"http://www.w3.org/1999/xhtml\"><table class=\"hl7__eu__lab__report\"><tr><th>Test</th><th>14-Jun-2019</th><th>Reference&#xA0;Range</th><th>Unit</th></tr><tr><td>Bilirubin.total [Presence] in Urine by Test strip</td></tr></table></div>"
        },
        "status": "final",
        "subject": {
          "reference": "urn:uuid:00791ff0-270d-4dbb-8677-ce503790dbdc",
          "display": "Victor Lagarde"
        },
        "effectiveDateTime": "2019-06-14T04:48:18Z",
        "specimen": {
          "reference": "urn:uuid:5d0fe50b-3895-4911-a5bb-57014047d020"
        }
      }
    },
    {
      "fullUrl": "urn:uuid:e6111050-8fc1-4bdc-b7e6-d6a30b413107",
      "resource": {
        "resourceType": "Observation",
        "id": "e6111050-8fc1-4bdc-b7e6-d6a30b413107",
        "meta": {
          "profile": [
            "http://hl7.eu/fhir/laboratory/StructureDefinition/Observation-resultslab-eu-lab"
          ]
        },
        "performer": [
          {
            "display": "The Central European Lab"
          }
        ],
        "category": [
          {
            "coding": [
              {
                "system": "http://terminology.hl7.org/CodeSystem/observation-category",
                "code": "laboratory"
              }
            ]
          }
        ],
        "code": {
          "coding": [
            {
              "code": "5797-6",
              "system": "http://loinc.org",
              "display": "Ketones [Mass/volume] in Urine by Test strip"
            }
          ],
          "text": "Ketones [Mass/volume] in Urine by Test strip"
        },
        "valueQuantity": {
          "system": "http://unitsofmeasure.org",
          "value": 10.3,
          "unit": "mg/dL",
          "code": "mg/dL"
        },
        "referenceRange": [
          {
            "low": {
              "value": 0,
              "code": "mg/dL",
              "system": "http://unitsofmeasure.org"
            }
          },
          {
            "high": {
              "value": 3,
              "code": "mg/dL",
              "system": "http://unitsofmeasure.org"
            }
          }
        ],
        "interpretation": [
          {
            "coding": [
              {
                "code": "H",
                "system": "http://terminology.hl7.org/CodeSystem/v3-ObservationInterpretation",
                "display": "High"
              }
            ]
          }
        ],
        "text": {
          "status": "generated",
          "div": "<div xmlns=\"http://www.w3.org/1999/xhtml\"><table class=\"hl7__eu__lab__report\"><tr><th>Test</th><th>14-Jun-2019</th><th>Reference&#xA0;Range</th><th>Unit</th></tr><tr><td>Ketones [Mass/volume] in Urine by Test strip</td><td>10.3</td><td>0 - 3</td><td>H</td><td>mg/dL</td></tr></table></div>"
        },
        "status": "final",
        "subject": {
          "reference": "urn:uuid:00791ff0-270d-4dbb-8677-ce503790dbdc",
          "display": "Victor Lagarde"
        },
        "effectiveDateTime": "2019-06-14T04:48:18Z",
        "specimen": {
          "reference": "urn:uuid:5d0fe50b-3895-4911-a5bb-57014047d020"
        }
      }
    },
    {
      "fullUrl": "urn:uuid:400e6617-ed4f-4447-8777-1a81742865cd",
      "resource": {
        "resourceType": "Observation",
        "id": "400e6617-ed4f-4447-8777-1a81742865cd",
        "meta": {
          "profile": [
            "http://hl7.eu/fhir/laboratory/StructureDefinition/Observation-resultslab-eu-lab"
          ]
        },
        "performer": [
          {
            "display": "The Central European Lab"
          }
        ],
        "category": [
          {
            "coding": [
              {
                "system": "http://terminology.hl7.org/CodeSystem/observation-category",
                "code": "laboratory"
              }
            ]
          }
        ],
        "code": {
          "coding": [
            {
              "code": "2514-8",
              "system": "http://loinc.org",
              "display": "Ketones [Presence] in Urine by Test strip"
            }
          ],
          "text": "Ketones [Presence] in Urine by Test strip"
        },
        "text": {
          "status": "generated",
          "div": "<div xmlns=\"http://www.w3.org/1999/xhtml\"><table class=\"hl7__eu__lab__report\"><tr><th>Test</th><th>14-Jun-2019</th><th>Reference&#xA0;Range</th><th>Unit</th></tr><tr><td>Ketones [Presence] in Urine by Test strip</td></tr></table></div>"
        },
        "status": "final",
        "subject": {
          "reference": "urn:uuid:00791ff0-270d-4dbb-8677-ce503790dbdc",
          "display": "Victor Lagarde"
        },
        "effectiveDateTime": "2019-06-14T04:48:18Z",
        "specimen": {
          "reference": "urn:uuid:5d0fe50b-3895-4911-a5bb-57014047d020"
        }
      }
    },
    {
      "fullUrl": "urn:uuid:caf6c02c-269b-4308-968a-3278f4d8ee07",
      "resource": {
        "resourceType": "Observation",
        "id": "caf6c02c-269b-4308-968a-3278f4d8ee07",
        "meta": {
          "profile": [
            "http://hl7.eu/fhir/laboratory/StructureDefinition/Observation-resultslab-eu-lab"
          ]
        },
        "performer": [
          {
            "display": "The Central European Lab"
          }
        ],
        "category": [
          {
            "coding": [
              {
                "system": "http://terminology.hl7.org/CodeSystem/observation-category",
                "code": "laboratory"
              }
            ]
          }
        ],
        "code": {
          "coding": [
            {
              "code": "5811-5",
              "system": "http://loinc.org",
              "display": "Specific gravity of Urine by Test strip"
            }
          ],
          "text": "Specific gravity of Urine by Test strip"
        },
        "valueQuantity": {
          "system": "http://unitsofmeasure.org",
          "value": 1,
          "unit": "{nominal}",
          "code": "{nominal}"
        },
        "referenceRange": [
          {
            "low": {
              "value": 1.01,
              "code": "g/mL",
              "system": "http://unitsofmeasure.org"
            }
          },
          {
            "high": {
              "value": 1.03,
              "code": "g/mL",
              "system": "http://unitsofmeasure.org"
            }
          }
        ],
        "interpretation": [
          {
            "coding": [
              {
                "code": "L",
                "system": "http://terminology.hl7.org/CodeSystem/v3-ObservationInterpretation",
                "display": "Low"
              }
            ]
          }
        ],
        "text": {
          "status": "generated",
          "div": "<div xmlns=\"http://www.w3.org/1999/xhtml\"><table class=\"hl7__eu__lab__report\"><tr><th>Test</th><th>14-Jun-2019</th><th>Reference&#xA0;Range</th><th>Unit</th></tr><tr><td>Specific gravity of Urine by Test strip</td><td>1.0</td><td>1.01 - 1.03</td><td>L</td><td>{nominal}</td></tr></table></div>"
        },
        "status": "final",
        "subject": {
          "reference": "urn:uuid:00791ff0-270d-4dbb-8677-ce503790dbdc",
          "display": "Victor Lagarde"
        },
        "effectiveDateTime": "2019-06-14T04:48:18Z",
        "specimen": {
          "reference": "urn:uuid:5d0fe50b-3895-4911-a5bb-57014047d020"
        }
      }
    },
    {
      "fullUrl": "urn:uuid:2ba1b174-e470-43c6-a67c-61c5b2be3cca",
      "resource": {
        "resourceType": "Observation",
        "id": "2ba1b174-e470-43c6-a67c-61c5b2be3cca",
        "meta": {
          "profile": [
            "http://hl7.eu/fhir/laboratory/StructureDefinition/Observation-resultslab-eu-lab"
          ]
        },
        "performer": [
          {
            "display": "The Central European Lab"
          }
        ],
        "category": [
          {
            "coding": [
              {
                "system": "http://terminology.hl7.org/CodeSystem/observation-category",
                "code": "laboratory"
              }
            ]
          }
        ],
        "code": {
          "coding": [
            {
              "code": "5803-2",
              "system": "http://loinc.org",
              "display": "pH of Urine by Test strip"
            }
          ],
          "text": "pH of Urine by Test strip"
        },
        "valueQuantity": {
          "system": "http://unitsofmeasure.org",
          "value": 5.3,
          "unit": "pH",
          "code": "pH"
        },
        "referenceRange": [
          {
            "low": {
              "value": 4.5,
              "code": "pH",
              "system": "http://unitsofmeasure.org"
            }
          },
          {
            "high": {
              "value": 7.5,
              "code": "pH",
              "system": "http://unitsofmeasure.org"
            }
          }
        ],
        "text": {
          "status": "generated",
          "div": "<div xmlns=\"http://www.w3.org/1999/xhtml\"><table class=\"hl7__eu__lab__report\"><tr><th>Test</th><th>14-Jun-2019</th><th>Reference&#xA0;Range</th><th>Unit</th></tr><tr><td>pH of Urine by Test strip</td><td>5.3</td><td>4.5 - 7.5</td><td></td><td>pH</td></tr></table></div>"
        },
        "status": "final",
        "subject": {
          "reference": "urn:uuid:00791ff0-270d-4dbb-8677-ce503790dbdc",
          "display": "Victor Lagarde"
        },
        "effectiveDateTime": "2019-06-14T04:48:18Z",
        "specimen": {
          "reference": "urn:uuid:5d0fe50b-3895-4911-a5bb-57014047d020"
        }
      }
    },
    {
      "fullUrl": "urn:uuid:c604e87f-18ee-4812-8266-abb99f11f12e",
      "resource": {
        "resourceType": "Observation",
        "id": "c604e87f-18ee-4812-8266-abb99f11f12e",
        "meta": {
          "profile": [
            "http://hl7.eu/fhir/laboratory/StructureDefinition/Observation-resultslab-eu-lab"
          ]
        },
        "performer": [
          {
            "display": "The Central European Lab"
          }
        ],
        "category": [
          {
            "coding": [
              {
                "system": "http://terminology.hl7.org/CodeSystem/observation-category",
                "code": "laboratory"
              }
            ]
          }
        ],
        "code": {
          "coding": [
            {
              "code": "5804-0",
              "system": "http://loinc.org",
              "display": "Protein [Mass/volume] in Urine by Test strip"
            }
          ],
          "text": "Protein [Mass/volume] in Urine by Test strip"
        },
        "valueQuantity": {
          "system": "http://unitsofmeasure.org",
          "value": 232.2,
          "unit": "mg/dL",
          "code": "mg/dL"
        },
        "referenceRange": [
          {
            "low": {
              "value": 0,
              "code": "mg/dL",
              "system": "http://unitsofmeasure.org"
            }
          },
          {
            "high": {
              "value": 149,
              "code": "mg/dL",
              "system": "http://unitsofmeasure.org"
            }
          }
        ],
        "interpretation": [
          {
            "coding": [
              {
                "code": "H",
                "system": "http://terminology.hl7.org/CodeSystem/v3-ObservationInterpretation",
                "display": "High"
              }
            ]
          }
        ],
        "text": {
          "status": "generated",
          "div": "<div xmlns=\"http://www.w3.org/1999/xhtml\"><table class=\"hl7__eu__lab__report\"><tr><th>Test</th><th>14-Jun-2019</th><th>Reference&#xA0;Range</th><th>Unit</th></tr><tr><td>Protein [Mass/volume] in Urine by Test strip</td><td>232.2</td><td>0 - 149</td><td>H</td><td>mg/dL</td></tr></table></div>"
        },
        "status": "final",
        "subject": {
          "reference": "urn:uuid:00791ff0-270d-4dbb-8677-ce503790dbdc",
          "display": "Victor Lagarde"
        },
        "effectiveDateTime": "2019-06-14T04:48:18Z",
        "specimen": {
          "reference": "urn:uuid:5d0fe50b-3895-4911-a5bb-57014047d020"
        }
      }
    },
    {
      "fullUrl": "urn:uuid:8f2565f6-d04a-40d3-b731-85259ba46904",
      "resource": {
        "resourceType": "Observation",
        "id": "8f2565f6-d04a-40d3-b731-85259ba46904",
        "meta": {
          "profile": [
            "http://hl7.eu/fhir/laboratory/StructureDefinition/Observation-resultslab-eu-lab"
          ]
        },
        "performer": [
          {
            "display": "The Central European Lab"
          }
        ],
        "category": [
          {
            "coding": [
              {
                "system": "http://terminology.hl7.org/CodeSystem/observation-category",
                "code": "laboratory"
              }
            ]
          }
        ],
        "code": {
          "coding": [
            {
              "code": "20454-5",
              "system": "http://loinc.org",
              "display": "Protein [Presence] in Urine by Test strip"
            }
          ],
          "text": "Protein [Presence] in Urine by Test strip"
        },
        "text": {
          "status": "generated",
          "div": "<div xmlns=\"http://www.w3.org/1999/xhtml\"><table class=\"hl7__eu__lab__report\"><tr><th>Test</th><th>14-Jun-2019</th><th>Reference&#xA0;Range</th><th>Unit</th></tr><tr><td>Protein [Presence] in Urine by Test strip</td></tr></table></div>"
        },
        "status": "final",
        "subject": {
          "reference": "urn:uuid:00791ff0-270d-4dbb-8677-ce503790dbdc",
          "display": "Victor Lagarde"
        },
        "effectiveDateTime": "2019-06-14T04:48:18Z",
        "specimen": {
          "reference": "urn:uuid:5d0fe50b-3895-4911-a5bb-57014047d020"
        }
      }
    },
    {
      "fullUrl": "urn:uuid:08ccb1a0-1607-43fd-b5a8-736c550dc011",
      "resource": {
        "resourceType": "Observation",
        "id": "08ccb1a0-1607-43fd-b5a8-736c550dc011",
        "meta": {
          "profile": [
            "http://hl7.eu/fhir/laboratory/StructureDefinition/Observation-resultslab-eu-lab"
          ]
        },
        "performer": [
          {
            "display": "The Central European Lab"
          }
        ],
        "category": [
          {
            "coding": [
              {
                "system": "http://terminology.hl7.org/CodeSystem/observation-category",
                "code": "laboratory"
              }
            ]
          }
        ],
        "code": {
          "coding": [
            {
              "code": "5802-4",
              "system": "http://loinc.org",
              "display": "Nitrite [Presence] in Urine by Test strip"
            }
          ],
          "text": "Nitrite [Presence] in Urine by Test strip"
        },
        "text": {
          "status": "generated",
          "div": "<div xmlns=\"http://www.w3.org/1999/xhtml\"><table class=\"hl7__eu__lab__report\"><tr><th>Test</th><th>14-Jun-2019</th><th>Reference&#xA0;Range</th><th>Unit</th></tr><tr><td>Nitrite [Presence] in Urine by Test strip</td></tr></table></div>"
        },
        "status": "final",
        "subject": {
          "reference": "urn:uuid:00791ff0-270d-4dbb-8677-ce503790dbdc",
          "display": "Victor Lagarde"
        },
        "effectiveDateTime": "2019-06-14T04:48:18Z",
        "specimen": {
          "reference": "urn:uuid:5d0fe50b-3895-4911-a5bb-57014047d020"
        }
      }
    },
    {
      "fullUrl": "urn:uuid:6c79e839-1acb-4550-8acf-893d83bf5475",
      "resource": {
        "resourceType": "Observation",
        "id": "6c79e839-1acb-4550-8acf-893d83bf5475",
        "meta": {
          "profile": [
            "http://hl7.eu/fhir/laboratory/StructureDefinition/Observation-resultslab-eu-lab"
          ]
        },
        "performer": [
          {
            "display": "The Central European Lab"
          }
        ],
        "category": [
          {
            "coding": [
              {
                "system": "http://terminology.hl7.org/CodeSystem/observation-category",
                "code": "laboratory"
              }
            ]
          }
        ],
        "code": {
          "coding": [
            {
              "code": "5794-3",
              "system": "http://loinc.org",
              "display": "Hemoglobin [Presence] in Urine by Test strip"
            }
          ],
          "text": "Hemoglobin [Presence] in Urine by Test strip"
        },
        "text": {
          "status": "generated",
          "div": "<div xmlns=\"http://www.w3.org/1999/xhtml\"><table class=\"hl7__eu__lab__report\"><tr><th>Test</th><th>14-Jun-2019</th><th>Reference&#xA0;Range</th><th>Unit</th></tr><tr><td>Hemoglobin [Presence] in Urine by Test strip</td></tr></table></div>"
        },
        "status": "final",
        "subject": {
          "reference": "urn:uuid:00791ff0-270d-4dbb-8677-ce503790dbdc",
          "display": "Victor Lagarde"
        },
        "effectiveDateTime": "2019-06-14T04:48:18Z",
        "specimen": {
          "reference": "urn:uuid:5d0fe50b-3895-4911-a5bb-57014047d020"
        }
      }
    },
    {
      "fullUrl": "urn:uuid:d1480457-f0e0-4658-a94a-8dda82517285",
      "resource": {
        "resourceType": "Observation",
        "id": "d1480457-f0e0-4658-a94a-8dda82517285",
        "meta": {
          "profile": [
            "http://hl7.eu/fhir/laboratory/StructureDefinition/Observation-resultslab-eu-lab"
          ]
        },
        "performer": [
          {
            "display": "The Central European Lab"
          }
        ],
        "category": [
          {
            "coding": [
              {
                "system": "http://terminology.hl7.org/CodeSystem/observation-category",
                "code": "laboratory"
              }
            ]
          }
        ],
        "code": {
          "coding": [
            {
              "code": "5799-2",
              "system": "http://loinc.org",
              "display": "Leukocyte esterase [Presence] in Urine by Test strip"
            }
          ],
          "text": "Leukocyte esterase [Presence] in Urine by Test strip"
        },
        "text": {
          "status": "generated",
          "div": "<div xmlns=\"http://www.w3.org/1999/xhtml\"><table class=\"hl7__eu__lab__report\"><tr><th>Test</th><th>14-Jun-2019</th><th>Reference&#xA0;Range</th><th>Unit</th></tr><tr><td>Leukocyte esterase [Presence] in Urine by Test strip</td></tr></table></div>"
        },
        "status": "final",
        "subject": {
          "reference": "urn:uuid:00791ff0-270d-4dbb-8677-ce503790dbdc",
          "display": "Victor Lagarde"
        },
        "effectiveDateTime": "2019-06-14T04:48:18Z",
        "specimen": {
          "reference": "urn:uuid:5d0fe50b-3895-4911-a5bb-57014047d020"
        }
      }
    },
    {
      "fullUrl": "urn:uuid:3ab8fe90-f9ff-40c3-85dd-1bfc43f3995a",
      "resource": {
        "resourceType": "Observation",
        "id": "3ab8fe90-f9ff-40c3-85dd-1bfc43f3995a",
        "meta": {
          "profile": [
            "http://hl7.eu/fhir/laboratory/StructureDefinition/Observation-resultslab-eu-lab"
          ]
        },
        "performer": [
          {
            "display": "The Central European Lab"
          }
        ],
        "category": [
          {
            "coding": [
              {
                "system": "http://terminology.hl7.org/CodeSystem/observation-category",
                "code": "laboratory"
              }
            ]
          }
        ],
        "code": {
          "coding": [
            {
              "code": "4548-4",
              "system": "http://loinc.org",
              "display": "Hemoglobin A1c/Hemoglobin.total in Blood"
            }
          ],
          "text": "Hemoglobin A1c/Hemoglobin.total in Blood"
        },
        "valueQuantity": {
          "system": "http://unitsofmeasure.org",
          "value": 3.1,
          "unit": "%",
          "code": "%"
        },
        "referenceRange": [
          {
            "low": {
              "value": 4.3,
              "code": "%",
              "system": "http://unitsofmeasure.org"
            }
          },
          {
            "high": {
              "value": 6,
              "code": "%",
              "system": "http://unitsofmeasure.org"
            }
          }
        ],
        "interpretation": [
          {
            "coding": [
              {
                "code": "L",
                "system": "http://terminology.hl7.org/CodeSystem/v3-ObservationInterpretation",
                "display": "Low"
              }
            ]
          }
        ],
        "text": {
          "status": "generated",
          "div": "<div xmlns=\"http://www.w3.org/1999/xhtml\"><table class=\"hl7__eu__lab__report\"><tr><th>Test</th><th>14-Jun-2019</th><th>Reference&#xA0;Range</th><th>Unit</th></tr><tr><td>Hemoglobin A1c/Hemoglobin.total in Blood</td><td>3.1</td><td>4.3 - 6</td><td>L</td><td>%</td></tr></table></div>"
        },
        "status": "final",
        "subject": {
          "reference": "urn:uuid:00791ff0-270d-4dbb-8677-ce503790dbdc",
          "display": "Victor Lagarde"
        },
        "effectiveDateTime": "2019-06-14T04:48:18Z",
        "specimen": {
          "reference": "urn:uuid:4a38e4a4-a9fc-425c-b768-d56fa53c490f"
        }
      }
    },
    {
      "fullUrl": "urn:uuid:08630648-307e-4f0a-b81d-17f285710753",
      "resource": {
        "resourceType": "Observation",
        "id": "08630648-307e-4f0a-b81d-17f285710753",
        "meta": {
          "profile": [
            "http://hl7.eu/fhir/laboratory/StructureDefinition/Observation-resultslab-eu-lab"
          ]
        },
        "performer": [
          {
            "display": "The Central European Lab"
          }
        ],
        "category": [
          {
            "coding": [
              {
                "system": "http://terminology.hl7.org/CodeSystem/observation-category",
                "code": "laboratory"
              }
            ]
          }
        ],
        "code": {
          "coding": [
            {
              "code": "2339-0",
              "system": "http://loinc.org",
              "display": "Glucose [Mass/volume] in Blood"
            }
          ],
          "text": "Glucose [Mass/volume] in Blood"
        },
        "valueQuantity": {
          "system": "http://unitsofmeasure.org",
          "value": 73.5,
          "unit": "mg/dL",
          "code": "mg/dL"
        },
        "referenceRange": [
          {
            "low": {
              "value": 70,
              "code": "mg/dL",
              "system": "http://unitsofmeasure.org"
            }
          },
          {
            "high": {
              "value": 140,
              "code": "mg/dL",
              "system": "http://unitsofmeasure.org"
            }
          }
        ],
        "text": {
          "status": "generated",
          "div": "<div xmlns=\"http://www.w3.org/1999/xhtml\"><table class=\"hl7__eu__lab__report\"><tr><th>Test</th><th>14-Jun-2019</th><th>Reference&#xA0;Range</th><th>Unit</th></tr><tr><td>Glucose [Mass/volume] in Blood</td><td>73.5</td><td>70 - 140</td><td></td><td>mg/dL</td></tr></table></div>"
        },
        "status": "final",
        "subject": {
          "reference": "urn:uuid:00791ff0-270d-4dbb-8677-ce503790dbdc",
          "display": "Victor Lagarde"
        },
        "effectiveDateTime": "2019-06-14T04:48:18Z",
        "specimen": {
          "reference": "urn:uuid:4a38e4a4-a9fc-425c-b768-d56fa53c490f"
        }
      }
    },
    {
      "fullUrl": "urn:uuid:eb9c81da-a5be-47b3-917f-91898c66b0f4",
      "resource": {
        "resourceType": "Observation",
        "id": "eb9c81da-a5be-47b3-917f-91898c66b0f4",
        "meta": {
          "profile": [
            "http://hl7.eu/fhir/laboratory/StructureDefinition/Observation-resultslab-eu-lab"
          ]
        },
        "performer": [
          {
            "display": "The Central European Lab"
          }
        ],
        "category": [
          {
            "coding": [
              {
                "system": "http://terminology.hl7.org/CodeSystem/observation-category",
                "code": "laboratory"
              }
            ]
          }
        ],
        "code": {
          "coding": [
            {
              "code": "6299-2",
              "system": "http://loinc.org",
              "display": "Urea nitrogen [Mass/volume] in Blood"
            }
          ],
          "text": "Urea nitrogen [Mass/volume] in Blood"
        },
        "valueQuantity": {
          "system": "http://unitsofmeasure.org",
          "value": 17.7,
          "unit": "mg/dL",
          "code": "mg/dL"
        },
        "referenceRange": [
          {
            "low": {
              "value": 7,
              "code": "mg/dL",
              "system": "http://unitsofmeasure.org"
            }
          },
          {
            "high": {
              "value": 20,
              "code": "mg/dL",
              "system": "http://unitsofmeasure.org"
            }
          }
        ],
        "text": {
          "status": "generated",
          "div": "<div xmlns=\"http://www.w3.org/1999/xhtml\"><table class=\"hl7__eu__lab__report\"><tr><th>Test</th><th>14-Jun-2019</th><th>Reference&#xA0;Range</th><th>Unit</th></tr><tr><td>Urea nitrogen [Mass/volume] in Blood</td><td>17.7</td><td>7 - 20</td><td></td><td>mg/dL</td></tr></table></div>"
        },
        "status": "final",
        "subject": {
          "reference": "urn:uuid:00791ff0-270d-4dbb-8677-ce503790dbdc",
          "display": "Victor Lagarde"
        },
        "effectiveDateTime": "2019-06-14T04:48:18Z",
        "specimen": {
          "reference": "urn:uuid:4a38e4a4-a9fc-425c-b768-d56fa53c490f"
        }
      }
    },
    {
      "fullUrl": "urn:uuid:c0308961-752e-4e14-8425-8db991e4e0ec",
      "resource": {
        "resourceType": "Observation",
        "id": "c0308961-752e-4e14-8425-8db991e4e0ec",
        "meta": {
          "profile": [
            "http://hl7.eu/fhir/laboratory/StructureDefinition/Observation-resultslab-eu-lab"
          ]
        },
        "performer": [
          {
            "display": "The Central European Lab"
          }
        ],
        "category": [
          {
            "coding": [
              {
                "system": "http://terminology.hl7.org/CodeSystem/observation-category",
                "code": "laboratory"
              }
            ]
          }
        ],
        "code": {
          "coding": [
            {
              "code": "38483-4",
              "system": "http://loinc.org",
              "display": "Creatinine [Mass/volume] in Blood"
            }
          ],
          "text": "Creatinine [Mass/volume] in Blood"
        },
        "valueQuantity": {
          "system": "http://unitsofmeasure.org",
          "value": 2.9,
          "unit": "mg/dL",
          "code": "mg/dL"
        },
        "referenceRange": [
          {
            "low": {
              "value": 0.9,
              "code": "mg/dL",
              "system": "http://unitsofmeasure.org"
            }
          },
          {
            "high": {
              "value": 1.3,
              "code": "mg/dL",
              "system": "http://unitsofmeasure.org"
            }
          }
        ],
        "interpretation": [
          {
            "coding": [
              {
                "code": "H",
                "system": "http://terminology.hl7.org/CodeSystem/v3-ObservationInterpretation",
                "display": "High"
              }
            ]
          }
        ],
        "text": {
          "status": "generated",
          "div": "<div xmlns=\"http://www.w3.org/1999/xhtml\"><table class=\"hl7__eu__lab__report\"><tr><th>Test</th><th>14-Jun-2019</th><th>Reference&#xA0;Range</th><th>Unit</th></tr><tr><td>Creatinine [Mass/volume] in Blood</td><td>2.9</td><td>0.9 - 1.3</td><td>H</td><td>mg/dL</td></tr></table></div>"
        },
        "status": "final",
        "subject": {
          "reference": "urn:uuid:00791ff0-270d-4dbb-8677-ce503790dbdc",
          "display": "Victor Lagarde"
        },
        "effectiveDateTime": "2019-06-14T04:48:18Z",
        "specimen": {
          "reference": "urn:uuid:4a38e4a4-a9fc-425c-b768-d56fa53c490f"
        }
      }
    },
    {
      "fullUrl": "urn:uuid:048b0569-bd16-4ea6-b74c-64141d7118d9",
      "resource": {
        "resourceType": "Observation",
        "id": "048b0569-bd16-4ea6-b74c-64141d7118d9",
        "meta": {
          "profile": [
            "http://hl7.eu/fhir/laboratory/StructureDefinition/Observation-resultslab-eu-lab"
          ]
        },
        "performer": [
          {
            "display": "The Central European Lab"
          }
        ],
        "category": [
          {
            "coding": [
              {
                "system": "http://terminology.hl7.org/CodeSystem/observation-category",
                "code": "laboratory"
              }
            ]
          }
        ],
        "code": {
          "coding": [
            {
              "code": "49765-1",
              "system": "http://loinc.org",
              "display": "Calcium [Mass/volume] in Blood"
            }
          ],
          "text": "Calcium [Mass/volume] in Blood"
        },
        "valueQuantity": {
          "system": "http://unitsofmeasure.org",
          "value": 8.7,
          "unit": "mg/dL",
          "code": "mg/dL"
        },
        "referenceRange": [
          {
            "low": {
              "value": 8.5,
              "code": "mg/dL",
              "system": "http://unitsofmeasure.org"
            }
          },
          {
            "high": {
              "value": 10.5,
              "code": "mg/dL",
              "system": "http://unitsofmeasure.org"
            }
          }
        ],
        "text": {
          "status": "generated",
          "div": "<div xmlns=\"http://www.w3.org/1999/xhtml\"><table class=\"hl7__eu__lab__report\"><tr><th>Test</th><th>14-Jun-2019</th><th>Reference&#xA0;Range</th><th>Unit</th></tr><tr><td>Calcium [Mass/volume] in Blood</td><td>8.7</td><td>8.5 - 10.5</td><td></td><td>mg/dL</td></tr></table></div>"
        },
        "status": "final",
        "subject": {
          "reference": "urn:uuid:00791ff0-270d-4dbb-8677-ce503790dbdc",
          "display": "Victor Lagarde"
        },
        "effectiveDateTime": "2019-06-14T04:48:18Z",
        "specimen": {
          "reference": "urn:uuid:4a38e4a4-a9fc-425c-b768-d56fa53c490f"
        }
      }
    },
    {
      "fullUrl": "urn:uuid:2a251490-42e3-45d4-82cb-23e4ed96ee15",
      "resource": {
        "resourceType": "Observation",
        "id": "2a251490-42e3-45d4-82cb-23e4ed96ee15",
        "meta": {
          "profile": [
            "http://hl7.eu/fhir/laboratory/StructureDefinition/Observation-resultslab-eu-lab"
          ]
        },
        "performer": [
          {
            "display": "The Central European Lab"
          }
        ],
        "category": [
          {
            "coding": [
              {
                "system": "http://terminology.hl7.org/CodeSystem/observation-category",
                "code": "laboratory"
              }
            ]
          }
        ],
        "code": {
          "coding": [
            {
              "code": "2947-0",
              "system": "http://loinc.org",
              "display": "Sodium [Moles/volume] in Blood"
            }
          ],
          "text": "Sodium [Moles/volume] in Blood"
        },
        "valueQuantity": {
          "system": "http://unitsofmeasure.org",
          "value": 140.4,
          "unit": "mmol/L",
          "code": "mmol/L"
        },
        "referenceRange": [
          {
            "low": {
              "value": 135,
              "code": "mmol/L",
              "system": "http://unitsofmeasure.org"
            }
          },
          {
            "high": {
              "value": 145,
              "code": "mmol/L",
              "system": "http://unitsofmeasure.org"
            }
          }
        ],
        "text": {
          "status": "generated",
          "div": "<div xmlns=\"http://www.w3.org/1999/xhtml\"><table class=\"hl7__eu__lab__report\"><tr><th>Test</th><th>14-Jun-2019</th><th>Reference&#xA0;Range</th><th>Unit</th></tr><tr><td>Sodium [Moles/volume] in Blood</td><td>140.4</td><td>135 - 145</td><td></td><td>mmol/L</td></tr></table></div>"
        },
        "status": "final",
        "subject": {
          "reference": "urn:uuid:00791ff0-270d-4dbb-8677-ce503790dbdc",
          "display": "Victor Lagarde"
        },
        "effectiveDateTime": "2019-06-14T04:48:18Z",
        "specimen": {
          "reference": "urn:uuid:4a38e4a4-a9fc-425c-b768-d56fa53c490f"
        }
      }
    },
    {
      "fullUrl": "urn:uuid:39db40ca-f5e6-45dd-a5b0-58c09f85960e",
      "resource": {
        "resourceType": "Observation",
        "id": "39db40ca-f5e6-45dd-a5b0-58c09f85960e",
        "meta": {
          "profile": [
            "http://hl7.eu/fhir/laboratory/StructureDefinition/Observation-resultslab-eu-lab"
          ]
        },
        "performer": [
          {
            "display": "The Central European Lab"
          }
        ],
        "category": [
          {
            "coding": [
              {
                "system": "http://terminology.hl7.org/CodeSystem/observation-category",
                "code": "laboratory"
              }
            ]
          }
        ],
        "code": {
          "coding": [
            {
              "code": "6298-4",
              "system": "http://loinc.org",
              "display": "Potassium [Moles/volume] in Blood"
            }
          ],
          "text": "Potassium [Moles/volume] in Blood"
        },
        "valueQuantity": {
          "system": "http://unitsofmeasure.org",
          "value": 4.6,
          "unit": "mmol/L",
          "code": "mmol/L"
        },
        "referenceRange": [
          {
            "low": {
              "value": 3.5,
              "code": "mmol/L",
              "system": "http://unitsofmeasure.org"
            }
          },
          {
            "high": {
              "value": 5.1,
              "code": "mmol/L",
              "system": "http://unitsofmeasure.org"
            }
          }
        ],
        "text": {
          "status": "generated",
          "div": "<div xmlns=\"http://www.w3.org/1999/xhtml\"><table class=\"hl7__eu__lab__report\"><tr><th>Test</th><th>14-Jun-2019</th><th>Reference&#xA0;Range</th><th>Unit</th></tr><tr><td>Potassium [Moles/volume] in Blood</td><td>4.6</td><td>3.5 - 5.1</td><td></td><td>mmol/L</td></tr></table></div>"
        },
        "status": "final",
        "subject": {
          "reference": "urn:uuid:00791ff0-270d-4dbb-8677-ce503790dbdc",
          "display": "Victor Lagarde"
        },
        "effectiveDateTime": "2019-06-14T04:48:18Z",
        "specimen": {
          "reference": "urn:uuid:4a38e4a4-a9fc-425c-b768-d56fa53c490f"
        }
      }
    },
    {
      "fullUrl": "urn:uuid:fd4bfdc7-ada2-4c41-9704-ad97bc007bc3",
      "resource": {
        "resourceType": "Observation",
        "id": "fd4bfdc7-ada2-4c41-9704-ad97bc007bc3",
        "meta": {
          "profile": [
            "http://hl7.eu/fhir/laboratory/StructureDefinition/Observation-resultslab-eu-lab"
          ]
        },
        "performer": [
          {
            "display": "The Central European Lab"
          }
        ],
        "category": [
          {
            "coding": [
              {
                "system": "http://terminology.hl7.org/CodeSystem/observation-category",
                "code": "laboratory"
              }
            ]
          }
        ],
        "code": {
          "coding": [
            {
              "code": "2069-3",
              "system": "http://loinc.org",
              "display": "Chloride [Moles/volume] in Blood"
            }
          ],
          "text": "Chloride [Moles/volume] in Blood"
        },
        "valueQuantity": {
          "system": "http://unitsofmeasure.org",
          "value": 103.5,
          "unit": "mmol/L",
          "code": "mmol/L"
        },
        "referenceRange": [
          {
            "low": {
              "value": 98,
              "code": "mmol/L",
              "system": "http://unitsofmeasure.org"
            }
          },
          {
            "high": {
              "value": 108,
              "code": "mmol/L",
              "system": "http://unitsofmeasure.org"
            }
          }
        ],
        "text": {
          "status": "generated",
          "div": "<div xmlns=\"http://www.w3.org/1999/xhtml\"><table class=\"hl7__eu__lab__report\"><tr><th>Test</th><th>14-Jun-2019</th><th>Reference&#xA0;Range</th><th>Unit</th></tr><tr><td>Chloride [Moles/volume] in Blood</td><td>103.5</td><td>98 - 108</td><td></td><td>mmol/L</td></tr></table></div>"
        },
        "status": "final",
        "subject": {
          "reference": "urn:uuid:00791ff0-270d-4dbb-8677-ce503790dbdc",
          "display": "Victor Lagarde"
        },
        "effectiveDateTime": "2019-06-14T04:48:18Z",
        "specimen": {
          "reference": "urn:uuid:4a38e4a4-a9fc-425c-b768-d56fa53c490f"
        }
      }
    },
    {
      "fullUrl": "urn:uuid:4396c9fe-50b8-42a5-91a3-15632785028a",
      "resource": {
        "resourceType": "Observation",
        "id": "4396c9fe-50b8-42a5-91a3-15632785028a",
        "meta": {
          "profile": [
            "http://hl7.eu/fhir/laboratory/StructureDefinition/Observation-resultslab-eu-lab"
          ]
        },
        "performer": [
          {
            "display": "The Central European Lab"
          }
        ],
        "category": [
          {
            "coding": [
              {
                "system": "http://terminology.hl7.org/CodeSystem/observation-category",
                "code": "laboratory"
              }
            ]
          }
        ],
        "code": {
          "coding": [
            {
              "code": "20565-8",
              "system": "http://loinc.org",
              "display": "Carbon dioxide, total [Moles/volume] in Blood"
            }
          ],
          "text": "Carbon dioxide, total [Moles/volume] in Blood"
        },
        "valueQuantity": {
          "system": "http://unitsofmeasure.org",
          "value": 25.7,
          "unit": "mmol/L",
          "code": "mmol/L"
        },
        "referenceRange": [
          {
            "low": {
              "value": 22,
              "code": "mmol/L",
              "system": "http://unitsofmeasure.org"
            }
          },
          {
            "high": {
              "value": 29,
              "code": "mmol/L",
              "system": "http://unitsofmeasure.org"
            }
          }
        ],
        "text": {
          "status": "generated",
          "div": "<div xmlns=\"http://www.w3.org/1999/xhtml\"><table class=\"hl7__eu__lab__report\"><tr><th>Test</th><th>14-Jun-2019</th><th>Reference&#xA0;Range</th><th>Unit</th></tr><tr><td>Carbon dioxide, total [Moles/volume] in Blood</td><td>25.7</td><td>22 - 29</td><td></td><td>mmol/L</td></tr></table></div>"
        },
        "status": "final",
        "subject": {
          "reference": "urn:uuid:00791ff0-270d-4dbb-8677-ce503790dbdc",
          "display": "Victor Lagarde"
        },
        "effectiveDateTime": "2019-06-14T04:48:18Z",
        "specimen": {
          "reference": "urn:uuid:4a38e4a4-a9fc-425c-b768-d56fa53c490f"
        }
      }
    },
    {
      "fullUrl": "urn:uuid:f44e518f-f8fc-4875-9fb7-a5a1ff9bc032",
      "resource": {
        "resourceType": "Device",
        "id": "f44e518f-f8fc-4875-9fb7-a5a1ff9bc032",
        "deviceName": [
          {
            "name": "SYNDERAI Synthetic Generator",
            "type": "manufacturer-name"
          }
        ],
        "version": [
          {
            "value": "5.0"
          }
        ],
        "text": {
          "status": "generated",
          "div": "<div xmlns=\"http://www.w3.org/1999/xhtml\">SYNDERAI Synthetic Generator v5.0</div>"
        },
        "status": "active\"",
        "distinctIdentifier": "synderai-generator-50",
        "manufacturer": "SYNDERAI Project"
      }
    },
    {
      "fullUrl": "urn:uuid:3fea0fdd-a3e1-4ee5-a75a-87bdd03928c5",
      "resource": {
        "resourceType": "Provenance",
        "id": "3fea0fdd-a3e1-4ee5-a75a-87bdd03928c5",
        "target": [
          {
            "reference": "Patient/00791ff0-270d-4dbb-8677-ce503790dbdc"
          },
          {
            "reference": "Bundle/247f88c4-e25f-4ac5-b40e-832f81f9d4a5"
          },
          {
            "reference": "Composition/2af2e67a-d097-449d-a6d6-10dc42c299f8"
          },
          {
            "reference": "PractitionerRole/466adcdf-512e-423b-a53f-031f2a1d11ce"
          },
          {
            "reference": "Practitioner/f8f9cc3c-d218-435b-8b3c-747d769aa612"
          },
          {
            "reference": "PractitionerRole/ae5ad81f-9c49-4861-a540-f8cbfb5e5d7e"
          },
          {
            "reference": "Organization/d403491d-16d6-4048-a73f-dc997e850215"
          }
        ],
        "activity": {
          "text": "Synthetic Example Data Generation"
        },
        "policy": [
          "https://synderai.net/synderai-synthetic-data-policy"
        ],
        "agent": [
          {
            "type": {
              "text": "author"
            },
            "who": {
              "reference": "Device/f44e518f-f8fc-4875-9fb7-a5a1ff9bc032"
            }
          }
        ],
        "reason": [
          {
            "text": "Interoperability Testing and Training (non-clinical use)"
          }
        ],
        "text": {
          "status": "generated",
          "div": "<div xmlns=\"http://www.w3.org/1999/xhtml\">Provenance for SYNDERAI Synthetic Example Data Resource</div>"
        },
        "recorded": "2019-06-14T06:48:18Z"
      }
    },
    {
      "fullUrl": "urn:uuid:466adcdf-512e-423b-a53f-031f2a1d11ce",
      "resource": {
        "resourceType": "PractitionerRole",
        "id": "466adcdf-512e-423b-a53f-031f2a1d11ce",
        "meta": {
          "profile": [
            "http://hl7.eu/fhir/base/StructureDefinition/practitionerRole-eu"
          ]
        },
        "text": {
          "status": "generated",
          "div": "<div xmlns=\"http://www.w3.org/1999/xhtml\">Laboratory Role Id: 466adcdf-512e-423b-a53f-031f2a1d11ce</div>"
        },
        "practitioner": {
          "reference": "urn:uuid:f8f9cc3c-d218-435b-8b3c-747d769aa612"
        }
      }
    },
    {
      "fullUrl": "urn:uuid:f8f9cc3c-d218-435b-8b3c-747d769aa612",
      "resource": {
        "resourceType": "Practitioner",
        "id": "f8f9cc3c-d218-435b-8b3c-747d769aa612",
        "meta": {
          "profile": [
            "http://hl7.eu/fhir/base/StructureDefinition/practitioner-eu"
          ]
        },
        "identifier": [
          {
            "assigner": {
              "display": "HL7 Europe"
            },
            "system": "urn:oid:2.16.840.1.113883.2.51.999",
            "value": "803560bd-26a2-4113-926d-840596bcf83a"
          }
        ],
        "name": [
          {
            "prefix": [
              "dr"
            ],
            "given": [
              "Ex"
            ],
            "family": "Ample"
          }
        ],
        "address": [
          {
            "line": [
              "Laboratoire Central Europenne",
              "Boulevard du Jardin Botanique 32"
            ],
            "postalCode": "1000",
            "city": "Brussels",
            "country": "Belgium"
          }
        ],
        "text": {
          "status": "generated",
          "div": "<div xmlns=\"http://www.w3.org/1999/xhtml\">Laboratory: Laboratoire Central Europenne, 1000 Brussels, Belgium</div>"
        }
      }
    }
  ],
  "type": "document",
  "timestamp": "2019-06-14T06:48:18Z"
}
