{
  "resourceType": "Bundle",
  "id": "8c148c7a-54c0-4fb1-844f-5a96fcf1feb0",
  "meta": {
    "profile": [
      "http://hl7.eu/fhir/laboratory/StructureDefinition/Bundle-eu-lab"
    ]
  },
  "identifier": {
    "assigner": {
      "display": "HL7 Europe"
    },
    "system": "urn:oid:2.16.840.1.113883.2.51.999",
    "value": "ce693ef1-04e0-44a0-bbd2-94b425463a1e"
  },
  "entry": [
    {
      "fullUrl": "urn:uuid:75b392ed-f58a-49d4-82b4-9d33d209dd38",
      "resource": {
        "resourceType": "Composition",
        "id": "75b392ed-f58a-49d4-82b4-9d33d209dd38",
        "meta": {
          "profile": [
            "http://hl7.eu/fhir/laboratory/StructureDefinition/Composition-eu-lab"
          ]
        },
        "identifier": {
          "assigner": {
            "display": "HL7 Europe"
          },
          "system": "urn:oid:2.16.840.1.113883.2.51.999",
          "value": "664eda1e-09e4-4751-9d46-4891045af8d9"
        },
        "author": [
          {
            "reference": "urn:uuid:80313672-8fdd-4122-87e2-801421646bbc"
          }
        ],
        "category": [
          {
            "coding": [
              {
                "code": "26436-6",
                "system": "http://loinc.org",
                "display": "Laboratory studies (set)"
              }
            ]
          }
        ],
        "type": {
          "coding": [
            {
              "code": "11502-2",
              "system": "http://loinc.org",
              "display": "Laboratory report"
            }
          ],
          "text": "Laboratory Report"
        },
        "section": [
          {
            "code": {
              "coding": [
                {
                  "code": "26436-6",
                  "system": "http://loinc.org",
                  "display": "Laboratory studies (set)"
                }
              ],
              "text": "Laboratory studies"
            },
            "section": [
              {
                "code": {
                  "coding": [
                    {
                      "code": "$18719-5",
                      "system": "http://loinc.org",
                      "display": "Chemistry studies (set)"
                    }
                  ],
                  "text": "Chemistry"
                },
                "entry": [
                  {
                    "reference": "urn:uuid:e6c00586-2c98-44cc-8a91-ace483851ac9"
                  },
                  {
                    "reference": "urn:uuid:502904d1-1abc-43cc-a46d-a563e20ff771"
                  },
                  {
                    "reference": "urn:uuid:c5dee6cb-b202-4776-8291-05f062a07da9"
                  },
                  {
                    "reference": "urn:uuid:de03de37-f976-4c69-a4cd-a89b34f4698e"
                  },
                  {
                    "reference": "urn:uuid:25c8857a-89fe-457f-be63-c6af2354eaeb"
                  },
                  {
                    "reference": "urn:uuid:a6d3fc13-2b8c-44d9-8fa0-a885366a610b"
                  },
                  {
                    "reference": "urn:uuid:a00c012a-64c7-46a3-b742-d13f841ec32c"
                  },
                  {
                    "reference": "urn:uuid:190fb290-fd2a-4d80-bbd9-ff60763f4eb4"
                  },
                  {
                    "reference": "urn:uuid:d7074fc5-0b54-4f78-8256-838a117b6fed"
                  },
                  {
                    "reference": "urn:uuid:51c86af9-d4f7-4ef6-b3d6-9783aec9bb34"
                  },
                  {
                    "reference": "urn:uuid:b6eedf58-81fa-4de8-8d20-6120b7b5983c"
                  },
                  {
                    "reference": "urn:uuid:ac3b1442-60e7-406e-81c2-e00d1aa61253"
                  },
                  {
                    "reference": "urn:uuid:0f06f5ba-303d-4a70-8325-736896dac8f4"
                  },
                  {
                    "reference": "urn:uuid:90ac8bb8-ab2e-46d0-8d05-f01d251237f1"
                  },
                  {
                    "reference": "urn:uuid:514e950f-c91d-49d6-873e-9879d0678274"
                  },
                  {
                    "reference": "urn:uuid:f40ce932-cb5e-4b5f-aefc-26e8484626c7"
                  },
                  {
                    "reference": "urn:uuid:a43f0e4d-bcf1-46a7-ba26-a16c487eea45"
                  },
                  {
                    "reference": "urn:uuid:29056b06-8fe4-4402-b436-7da03f422078"
                  }
                ],
                "text": {
                  "status": "generated",
                  "div": "<div xmlns=\"http://www.w3.org/1999/xhtml\"><h3>Chemistry</h3><table class=\"hl7__eu__lab__report\"><thead><tr><th>Test</th><th>11-OCT-2024</th><th>Reference&#xA0;Range</th><th>Unit</th></tr></thead><tbody><tr><td>Glucose [Mass/volume] in Serum or Plasma</td><td>70.2</td><td>70 - 140</td><td>mg/dL</td></tr><tr><td>Urea nitrogen [Mass/volume] in Serum or Plasma</td><td>19.1</td><td>7 - 20</td><td>mg/dL</td></tr><tr><td>Creatinine [Mass/volume] in Serum or Plasma</td><td><strong>1.9 H</strong></td><td>0.9 - 1.3</td><td>mg/dL</td></tr><tr><td>Calcium [Mass/volume] in Serum or Plasma</td><td>9.1</td><td>8.5 - 10.5</td><td>mg/dL</td></tr><tr><td>Sodium [Moles/volume] in Serum or Plasma</td><td>140.7</td><td>135 - 145</td><td>mmol/L</td></tr><tr><td>Potassium [Moles/volume] in Serum or Plasma</td><td>4.5</td><td>3.5 - 5.3</td><td>mmol/L</td></tr><tr><td>Chloride [Moles/volume] in Serum or Plasma</td><td><strong>109.0 H</strong></td><td>98 - 107</td><td>mmol/L</td></tr><tr><td>Carbon dioxide, total [Moles/volume] in Serum or Plasma</td><td>24.8</td><td>22 - 33</td><td>mmol/L</td></tr><tr><td>Ketones [Presence] in Urine by Test strip</td><td>Urine ketone test = ++</td><td></td><td></td></tr><tr><td>Hemoglobin A1c/Hemoglobin.total in Blood</td><td><strong>2.9 L</strong></td><td>4.3 - 6</td><td>%</td></tr><tr><td>Glucose [Mass/volume] in Blood</td><td>70.2</td><td>70 - 140</td><td>mg/dL</td></tr><tr><td>Urea nitrogen [Mass/volume] in Blood</td><td>19.1</td><td>7 - 20</td><td>mg/dL</td></tr><tr><td>Creatinine [Mass/volume] in Blood</td><td><strong>4.0 H</strong></td><td>0.9 - 1.3</td><td>mg/dL</td></tr><tr><td>Calcium [Mass/volume] in Blood</td><td>9.1</td><td>8.5 - 10.5</td><td>mg/dL</td></tr><tr><td>Sodium [Moles/volume] in Blood</td><td>140.7</td><td>135 - 145</td><td>mmol/L</td></tr><tr><td>Potassium [Moles/volume] in Blood</td><td>4.5</td><td>3.5 - 5.1</td><td>mmol/L</td></tr><tr><td>Chloride [Moles/volume] in Blood</td><td><strong>109.0 H</strong></td><td>98 - 108</td><td>mmol/L</td></tr><tr><td>Carbon dioxide, total [Moles/volume] in Blood</td><td>24.8</td><td>22 - 29</td><td>mmol/L</td></tr></tbody></table></div>"
                },
                "title": "Chemistry"
              },
              {
                "code": {
                  "coding": [
                    {
                      "code": "$18729-4",
                      "system": "http://loinc.org",
                      "display": "Urinalysis studies (set)"
                    }
                  ],
                  "text": "Urinalysis"
                },
                "entry": [
                  {
                    "reference": "urn:uuid:afa19ca6-e832-4af5-ba04-f7f4cf2c4435"
                  },
                  {
                    "reference": "urn:uuid:8b440f19-51ce-49c9-9ffc-16e09ffac741"
                  },
                  {
                    "reference": "urn:uuid:1c258bac-c5b7-4be5-8cd0-793f1d54b519"
                  },
                  {
                    "reference": "urn:uuid:3e3d1540-e11b-4ff6-9abc-88b35fec10fe"
                  },
                  {
                    "reference": "urn:uuid:06677962-5ba8-40b0-b9c0-036751475969"
                  },
                  {
                    "reference": "urn:uuid:feebcad5-9117-4c75-8dec-9b15039eabbe"
                  },
                  {
                    "reference": "urn:uuid:007e2e6e-e442-49cc-aa5d-8dbf0199a242"
                  },
                  {
                    "reference": "urn:uuid:a9e876e8-e182-4181-a857-b4c81bff2d21"
                  },
                  {
                    "reference": "urn:uuid:d0ff4277-c2b8-4b2d-937a-b95aedcc67e1"
                  },
                  {
                    "reference": "urn:uuid:adacb944-e5ea-4608-a05e-e3434cd4cc7f"
                  },
                  {
                    "reference": "urn:uuid:fdb9621c-b239-418e-b779-37dd53aeecbd"
                  },
                  {
                    "reference": "urn:uuid:0325f03f-c7fe-46d5-96b7-a33d30e1932f"
                  }
                ],
                "text": {
                  "status": "generated",
                  "div": "<div xmlns=\"http://www.w3.org/1999/xhtml\"><h3>Urinalysis</h3><table class=\"hl7__eu__lab__report\"><thead><tr><th>Test</th><th>11-OCT-2024</th><th>Reference&#xA0;Range</th><th>Unit</th></tr></thead><tbody><tr><td>Glucose [Mass/volume] in Urine by Test strip</td><td><strong>1.3 H</strong></td><td>0 - 0.8</td><td>mg/dL</td></tr><tr><td>Glucose [Presence] in Urine by Test strip</td><td>++</td><td></td><td></td></tr><tr><td>Bilirubin.total [Mass/volume] in Urine by Test strip</td><td>0.7</td><td>0 - 1.9</td><td>mg/dL</td></tr><tr><td>Bilirubin.total [Presence] in Urine by Test strip</td><td>Finding of bilirubin in urine</td><td></td><td></td></tr><tr><td>Ketones [Mass/volume] in Urine by Test strip</td><td><strong>7.6 H</strong></td><td>0 - 3</td><td>mg/dL</td></tr><tr><td>Specific gravity of Urine by Test strip</td><td><strong>1.0 L</strong></td><td>1.01 - 1.03</td><td>{nominal}</td></tr><tr><td>pH of Urine by Test strip</td><td>5.1</td><td>4.5 - 7.5</td><td>pH</td></tr><tr><td>Protein [Mass/volume] in Urine by Test strip</td><td><strong>204.1 H</strong></td><td>0 - 149</td><td>mg/dL</td></tr><tr><td>Protein [Presence] in Urine by Test strip</td><td>Urine protein test = ++</td><td></td><td></td></tr><tr><td>Nitrite [Presence] in Urine by Test strip</td><td>Urine nitrite negative</td><td></td><td></td></tr><tr><td>Hemoglobin [Presence] in Urine by Test strip</td><td>Urine blood test = negative</td><td></td><td></td></tr><tr><td>Leukocyte esterase [Presence] in Urine by Test strip</td><td>Urine leukocyte test negative</td><td></td><td></td></tr></tbody></table></div>"
                },
                "title": "Urinalysis"
              },
              {
                "code": {
                  "coding": [
                    {
                      "code": "$LP7846-1",
                      "system": "http://loinc.org",
                      "display": "Specimen information"
                    }
                  ],
                  "text": "Specimen information"
                },
                "entry": [
                  {
                    "reference": "urn:uuid:53c51f14-78ce-458d-a3bc-b86140707be0"
                  },
                  {
                    "reference": "urn:uuid:4babd80e-6760-4012-bcb4-f77106409d36"
                  },
                  {
                    "reference": "urn:uuid:81367d9c-bd03-466d-8929-afe81ba59594"
                  },
                  {
                    "reference": "urn:uuid:831d701d-9a3f-422b-8231-e7d0364dcebb"
                  }
                ],
                "text": {
                  "status": "generated",
                  "div": "<div xmlns=\"http://www.w3.org/1999/xhtml\"><h3>Specimen information</h3><table class=\"hl7__eu__lab__report\"><thead><tr><th>Test</th><th>11-OCT-2024</th><th>Specimen</th><th></th></tr></thead><tbody><tr><td>Appearance of Urine</td><td>Cloudy urine</td><td>Urine</td><td></td></tr><tr><td>Odor of Urine</td><td>Urine smell ammoniacal</td><td>Urine</td><td></td></tr><tr><td>Clarity of Urine</td><td>Translucent</td><td>Urine</td><td></td></tr><tr><td>Color of Urine</td><td>Brown color</td><td>Urine</td><td></td></tr></tbody></table></div>"
                },
                "title": "Specimen information"
              }
            ],
            "title": "Laboratory Report"
          },
          {
            "text": {
              "status": "generated",
              "div": "<div xmlns=\"http://www.w3.org/1999/xhtml\"><h3>Annotation</h3><table class=\"hl7__eu__lab__report\"><tr><th>Conclusion and Recommendations based on this report and previous findings known to us</th></tr><tr><td>The patient shows elevated creatinine, proteinuria, and low urine specific gravity, indicating significant renal impairment. Urine findings (cloudy, brown, ammoniacal) suggest possible urinary tract pathology. Elevated urine glucose and ketones with low HbA1c may reflect acute metabolic disturbance rather than chronic hyperglycemia. Mild hyperchloremia is present. Recommend urgent clinical evaluation for acute or chronic kidney disease, metabolic derangement, and possible urinary tract infection or obstruction.</td></tr></table></div>"
            },
            "code": {
              "coding": [
                {
                  "system": "http://loinc.org",
                  "code": "48767-8",
                  "display": "Annotation comment"
                }
              ]
            },
            "title": "Annotation comment"
          }
        ],
        "status": "final",
        "subject": {
          "reference": "urn:uuid:1e6e5e19-6b66-4cea-9d99-0533589868d9",
          "display": "Victor Lagarde"
        },
        "date": "2024-10-11T06:48:18Z",
        "title": "Laboratory Report",
        "confidentiality": "N"
      }
    },
    {
      "fullUrl": "urn:uuid:cfa6410d-b6e0-4307-bb71-bde3e3f3c134",
      "resource": {
        "resourceType": "DiagnosticReport",
        "id": "cfa6410d-b6e0-4307-bb71-bde3e3f3c134",
        "meta": {
          "profile": [
            "http://hl7.eu/fhir/laboratory/StructureDefinition/DiagnosticReport-eu-lab"
          ]
        },
        "identifier": [
          {
            "assigner": {
              "display": "HL7 Europe"
            },
            "system": "urn:oid:2.16.840.1.113883.2.51.999",
            "value": "224068bb-5a77-4079-9922-4bf8084c205b"
          }
        ],
        "extension": [
          {
            "url": "http://hl7.org/fhir/5.0/StructureDefinition/extension-DiagnosticReport.composition",
            "valueReference": {
              "reference": "urn:uuid:664eda1e-09e4-4751-9d46-4891045af8d9"
            }
          }
        ],
        "category": [
          {
            "coding": [
              {
                "code": "26436-6",
                "system": "http://loinc.org",
                "display": "Laboratory studies (set)"
              }
            ]
          }
        ],
        "specimen": [
          {
            "reference": "urn:uuid:25e8b34e-ce9a-45c5-96aa-a783805729a9"
          },
          {
            "reference": "urn:uuid:8e455853-ebfa-4363-a203-ed464838eaab"
          },
          {
            "reference": "urn:uuid:33c730fd-349b-411a-9a97-fa83aeb02f5a"
          }
        ],
        "result": [
          {
            "reference": "urn:uuid:e6c00586-2c98-44cc-8a91-ace483851ac9"
          },
          {
            "reference": "urn:uuid:502904d1-1abc-43cc-a46d-a563e20ff771"
          },
          {
            "reference": "urn:uuid:c5dee6cb-b202-4776-8291-05f062a07da9"
          },
          {
            "reference": "urn:uuid:de03de37-f976-4c69-a4cd-a89b34f4698e"
          },
          {
            "reference": "urn:uuid:25c8857a-89fe-457f-be63-c6af2354eaeb"
          },
          {
            "reference": "urn:uuid:a6d3fc13-2b8c-44d9-8fa0-a885366a610b"
          },
          {
            "reference": "urn:uuid:a00c012a-64c7-46a3-b742-d13f841ec32c"
          },
          {
            "reference": "urn:uuid:190fb290-fd2a-4d80-bbd9-ff60763f4eb4"
          },
          {
            "reference": "urn:uuid:53c51f14-78ce-458d-a3bc-b86140707be0"
          },
          {
            "reference": "urn:uuid:4babd80e-6760-4012-bcb4-f77106409d36"
          },
          {
            "reference": "urn:uuid:81367d9c-bd03-466d-8929-afe81ba59594"
          },
          {
            "reference": "urn:uuid:831d701d-9a3f-422b-8231-e7d0364dcebb"
          },
          {
            "reference": "urn:uuid:afa19ca6-e832-4af5-ba04-f7f4cf2c4435"
          },
          {
            "reference": "urn:uuid:8b440f19-51ce-49c9-9ffc-16e09ffac741"
          },
          {
            "reference": "urn:uuid:1c258bac-c5b7-4be5-8cd0-793f1d54b519"
          },
          {
            "reference": "urn:uuid:3e3d1540-e11b-4ff6-9abc-88b35fec10fe"
          },
          {
            "reference": "urn:uuid:06677962-5ba8-40b0-b9c0-036751475969"
          },
          {
            "reference": "urn:uuid:d7074fc5-0b54-4f78-8256-838a117b6fed"
          },
          {
            "reference": "urn:uuid:feebcad5-9117-4c75-8dec-9b15039eabbe"
          },
          {
            "reference": "urn:uuid:007e2e6e-e442-49cc-aa5d-8dbf0199a242"
          },
          {
            "reference": "urn:uuid:a9e876e8-e182-4181-a857-b4c81bff2d21"
          },
          {
            "reference": "urn:uuid:d0ff4277-c2b8-4b2d-937a-b95aedcc67e1"
          },
          {
            "reference": "urn:uuid:adacb944-e5ea-4608-a05e-e3434cd4cc7f"
          },
          {
            "reference": "urn:uuid:fdb9621c-b239-418e-b779-37dd53aeecbd"
          },
          {
            "reference": "urn:uuid:0325f03f-c7fe-46d5-96b7-a33d30e1932f"
          },
          {
            "reference": "urn:uuid:51c86af9-d4f7-4ef6-b3d6-9783aec9bb34"
          },
          {
            "reference": "urn:uuid:b6eedf58-81fa-4de8-8d20-6120b7b5983c"
          },
          {
            "reference": "urn:uuid:ac3b1442-60e7-406e-81c2-e00d1aa61253"
          },
          {
            "reference": "urn:uuid:0f06f5ba-303d-4a70-8325-736896dac8f4"
          },
          {
            "reference": "urn:uuid:90ac8bb8-ab2e-46d0-8d05-f01d251237f1"
          },
          {
            "reference": "urn:uuid:514e950f-c91d-49d6-873e-9879d0678274"
          },
          {
            "reference": "urn:uuid:f40ce932-cb5e-4b5f-aefc-26e8484626c7"
          },
          {
            "reference": "urn:uuid:a43f0e4d-bcf1-46a7-ba26-a16c487eea45"
          },
          {
            "reference": "urn:uuid:29056b06-8fe4-4402-b436-7da03f422078"
          }
        ],
        "status": "registered",
        "code": {
          "coding": [
            {
              "code": "11502-2",
              "system": "http://loinc.org",
              "display": "Laboratory report"
            }
          ]
        },
        "subject": {
          "reference": "urn:uuid:1e6e5e19-6b66-4cea-9d99-0533589868d9",
          "display": "Victor Lagarde"
        }
      }
    },
    {
      "fullUrl": "urn:uuid:1e6e5e19-6b66-4cea-9d99-0533589868d9",
      "resource": {
        "resourceType": "Patient",
        "id": "1e6e5e19-6b66-4cea-9d99-0533589868d9",
        "meta": {
          "security": [
            {
              "system": "http://terminology.hl7.org/CodeSystem/v3-ActReason",
              "code": "HTEST"
            },
            {
              "system": "http://terminology.hl7.org/CodeSystem/v3-ActReason",
              "code": "TRAIN"
            }
          ],
          "tag": [
            {
              "system": "https://synderai.net/fhir/CodeSystem/tags",
              "code": "synthetic",
              "display": "SYNDERAI Synthetic data"
            }
          ],
          "profile": [
            "http://hl7.eu/fhir/base/StructureDefinition/patient-eu-core"
          ]
        },
        "identifier": [
          {
            "type": {
              "coding": [
                {
                  "code": "PT",
                  "system": "http://terminology.hl7.org/CodeSystem/v2-0203"
                }
              ]
            },
            "system": "http://ec.europa.eu/identifier/eci",
            "value": "9925-001801-9"
          },
          {
            "type": {
              "coding": [
                {
                  "code": "MR",
                  "system": "http://terminology.hl7.org/CodeSystem/v2-0203"
                }
              ]
            },
            "system": "http://local.setting.eu/identifier",
            "value": "22c2dfd0-ac57-8833-2532-848f180896a4"
          }
        ],
        "name": [
          {
            "family": "Lagarde"
          },
          {
            "given": [
              "Victor"
            ]
          },
          {
            "text": "Victor Lagarde"
          }
        ],
        "address": [
          {
            "line": [
              "avenue Robert"
            ],
            "use": "home",
            "type": "physical",
            "postalCode": "80300",
            "city": "Albert",
            "country": "France"
          }
        ],
        "telecom": [
          {
            "system": "phone",
            "value": "0177941801"
          }
        ],
        "extension": [
          {
            "url": "http://hl7.org/fhir/StructureDefinition/patient-nationality",
            "valueCodeableConcept": {
              "coding": [
                {
                  "code": "FR",
                  "system": "http://hl7.org/fhir/ValueSet/country"
                }
              ]
            }
          }
        ],
        "text": {
          "status": "generated",
          "div": "<div xmlns=\"http://www.w3.org/1999/xhtml\"><table class=\"hl7__ips\"><tr><td>Victor Lagarde</td><td>male</td><td>31-Aug-1939</td></tr></table></div>"
        },
        "gender": "male",
        "birthDate": "1939-08-31"
      }
    },
    {
      "fullUrl": "urn:uuid:baf309bd-0e72-40e0-9cb8-e85a8b5bd7b1",
      "resource": {
        "resourceType": "ServiceRequest",
        "id": "baf309bd-0e72-40e0-9cb8-e85a8b5bd7b1",
        "meta": {
          "profile": [
            "http://hl7.eu/fhir/laboratory/StructureDefinition/ServiceRequest-eu-lab"
          ]
        },
        "identifier": [
          {
            "system": "http://example.org",
            "value": "a020cdaf-f76d-4b40-8b96-51a3148e449e"
          }
        ],
        "specimen": [
          {
            "reference": "urn:uuid:25e8b34e-ce9a-45c5-96aa-a783805729a9"
          },
          {
            "reference": "urn:uuid:8e455853-ebfa-4363-a203-ed464838eaab"
          },
          {
            "reference": "urn:uuid:33c730fd-349b-411a-9a97-fa83aeb02f5a"
          }
        ],
        "reasonCode": [
          {
            "coding": [
              {
                "code": "433144002",
                "system": "http://snomed.info/sct",
                "display": "Chronic kidney disease stage 3"
              }
            ]
          },
          {
            "coding": [
              {
                "code": "157141000119108",
                "system": "http://snomed.info/sct",
                "display": "Proteinuria due to type 2 diabetes mellitus"
              }
            ]
          },
          {
            "coding": [
              {
                "code": "431856006",
                "system": "http://snomed.info/sct",
                "display": "Chronic kidney disease stage 2"
              }
            ]
          },
          {
            "coding": [
              {
                "code": "90781000119102",
                "system": "http://snomed.info/sct",
                "display": "Microalbuminuria due to type 2 diabetes mellitus"
              }
            ]
          },
          {
            "coding": [
              {
                "code": "127013003",
                "system": "http://snomed.info/sct",
                "display": "Disorder of kidney due to diabetes mellitus"
              }
            ]
          },
          {
            "coding": [
              {
                "code": "431855005",
                "system": "http://snomed.info/sct",
                "display": "Chronic kidney disease stage 1"
              }
            ]
          },
          {
            "coding": [
              {
                "code": "55822004",
                "system": "http://snomed.info/sct",
                "display": "Hyperlipidemia"
              }
            ]
          },
          {
            "coding": [
              {
                "code": "59621000",
                "system": "http://snomed.info/sct",
                "display": "Essential hypertension"
              }
            ]
          },
          {
            "coding": [
              {
                "code": "237602007",
                "system": "http://snomed.info/sct",
                "display": "Metabolic syndrome X"
              }
            ]
          },
          {
            "coding": [
              {
                "code": "414545008",
                "system": "http://snomed.info/sct",
                "display": "Ischemic heart disease"
              }
            ]
          },
          {
            "coding": [
              {
                "code": "40055000",
                "system": "http://snomed.info/sct",
                "display": "Chronic sinusitis"
              }
            ]
          },
          {
            "coding": [
              {
                "code": "15777000",
                "system": "http://snomed.info/sct",
                "display": "Prediabetes"
              }
            ]
          },
          {
            "coding": [
              {
                "code": "271737000",
                "system": "http://snomed.info/sct",
                "display": "Anemia"
              }
            ]
          }
        ],
        "status": "active",
        "intent": "order",
        "code": {
          "coding": [
            {
              "code": "108252007",
              "system": "http://snomed.info/sct",
              "display": "Laboratory procedure"
            }
          ]
        },
        "subject": {
          "reference": "urn:uuid:1e6e5e19-6b66-4cea-9d99-0533589868d9",
          "display": "Victor Lagarde"
        },
        "requester": {
          "reference": "urn:uuid:28482d0e-6dce-4b0b-a2cf-022b003b0b77"
        }
      }
    },
    {
      "fullUrl": "urn:uuid:28482d0e-6dce-4b0b-a2cf-022b003b0b77",
      "resource": {
        "resourceType": "PractitionerRole",
        "id": "28482d0e-6dce-4b0b-a2cf-022b003b0b77",
        "meta": {
          "profile": [
            "http://hl7.eu/fhir/base/StructureDefinition/practitionerRole-eu"
          ]
        },
        "text": {
          "status": "generated",
          "div": "<div xmlns=\"http://www.w3.org/1999/xhtml\">Provider Role Id: 28482d0e-6dce-4b0b-a2cf-022b003b0b77</div>"
        },
        "organization": {
          "reference": "urn:uuid:2fb8ac6a-8400-4328-b941-b0f67292645c"
        }
      }
    },
    {
      "fullUrl": "urn:uuid:2fb8ac6a-8400-4328-b941-b0f67292645c",
      "resource": {
        "resourceType": "Organization",
        "id": "2fb8ac6a-8400-4328-b941-b0f67292645c",
        "meta": {
          "profile": [
            "http://hl7.eu/fhir/base/StructureDefinition/organization-eu"
          ]
        },
        "identifier": [
          {
            "assigner": {
              "display": "HL7 Europe"
            },
            "system": "urn:oid:2.16.840.1.113883.2.51.999",
            "value": "053f99ab-ddbb-447f-85e4-7252bdfbbca4"
          }
        ],
        "address": [
          {
            "city": "Auxerre",
            "postalCode": "89000",
            "country": "France"
          }
        ],
        "text": {
          "status": "generated",
          "div": "<div xmlns=\"http://www.w3.org/1999/xhtml\">Provider Organization: Thiriot Didier (Cardiologie)</div>"
        },
        "name": "Thiriot Didier (Cardiologie)"
      }
    },
    {
      "fullUrl": "urn:uuid:25e8b34e-ce9a-45c5-96aa-a783805729a9",
      "resource": {
        "resourceType": "Specimen",
        "id": "25e8b34e-ce9a-45c5-96aa-a783805729a9",
        "meta": {
          "profile": [
            "http://hl7.eu/fhir/laboratory/StructureDefinition/Specimen-eu-lab"
          ]
        },
        "collection": {
          "collectedDateTime": "2024-10-11"
        },
        "text": {
          "status": "generated",
          "div": "<div xmlns=\"http://www.w3.org/1999/xhtml\"><table class=\"hl7__eu__lab__report\"><tr><th>Specimen</th><th>Collection Date</th></tr><tr><td>Acellular blood (serum or plasma) specimen</td><td><span class=\"nb\">11-Oct-2024</span></td></tr></table></div>"
        },
        "type": {
          "coding": [
            {
              "code": "122592007",
              "system": "http://snomed.info/sct",
              "display": "Acellular blood (serum or plasma) specimen"
            }
          ]
        }
      }
    },
    {
      "fullUrl": "urn:uuid:8e455853-ebfa-4363-a203-ed464838eaab",
      "resource": {
        "resourceType": "Specimen",
        "id": "8e455853-ebfa-4363-a203-ed464838eaab",
        "meta": {
          "profile": [
            "http://hl7.eu/fhir/laboratory/StructureDefinition/Specimen-eu-lab"
          ]
        },
        "collection": {
          "collectedDateTime": "2024-10-11"
        },
        "text": {
          "status": "generated",
          "div": "<div xmlns=\"http://www.w3.org/1999/xhtml\"><table class=\"hl7__eu__lab__report\"><tr><th>Specimen</th><th>Collection Date</th></tr><tr><td>Urine specimen</td><td><span class=\"nb\">11-Oct-2024</span></td></tr></table></div>"
        },
        "type": {
          "coding": [
            {
              "code": "122575003",
              "system": "http://snomed.info/sct",
              "display": "Urine specimen"
            }
          ]
        }
      }
    },
    {
      "fullUrl": "urn:uuid:33c730fd-349b-411a-9a97-fa83aeb02f5a",
      "resource": {
        "resourceType": "Specimen",
        "id": "33c730fd-349b-411a-9a97-fa83aeb02f5a",
        "meta": {
          "profile": [
            "http://hl7.eu/fhir/laboratory/StructureDefinition/Specimen-eu-lab"
          ]
        },
        "collection": {
          "collectedDateTime": "2024-10-11"
        },
        "text": {
          "status": "generated",
          "div": "<div xmlns=\"http://www.w3.org/1999/xhtml\"><table class=\"hl7__eu__lab__report\"><tr><th>Specimen</th><th>Collection Date</th></tr><tr><td>Whole blood specimen (specimen)</td><td><span class=\"nb\">11-Oct-2024</span></td></tr></table></div>"
        },
        "type": {
          "coding": [
            {
              "code": "258580003",
              "system": "http://snomed.info/sct",
              "display": "Whole blood specimen (specimen)"
            }
          ]
        }
      }
    },
    {
      "fullUrl": "urn:uuid:e6c00586-2c98-44cc-8a91-ace483851ac9",
      "resource": {
        "resourceType": "Observation",
        "id": "e6c00586-2c98-44cc-8a91-ace483851ac9",
        "meta": {
          "profile": [
            "http://hl7.eu/fhir/laboratory/StructureDefinition/Observation-resultslab-eu-lab"
          ]
        },
        "performer": [
          {
            "display": "The Central European Lab"
          }
        ],
        "category": [
          {
            "coding": [
              {
                "system": "http://terminology.hl7.org/CodeSystem/observation-category",
                "code": "laboratory"
              }
            ]
          }
        ],
        "code": {
          "coding": [
            {
              "code": "2345-7",
              "system": "http://loinc.org",
              "display": "Glucose [Mass/volume] in Serum or Plasma"
            }
          ],
          "text": "Glucose [Mass/volume] in Serum or Plasma"
        },
        "valueQuantity": {
          "system": "http://unitsofmeasure.org",
          "value": 70.2,
          "unit": "mg/dL",
          "code": "mg/dL"
        },
        "referenceRange": [
          {
            "low": {
              "value": 70,
              "code": "mg/dL",
              "system": "http://unitsofmeasure.org"
            }
          },
          {
            "high": {
              "value": 140,
              "code": "mg/dL",
              "system": "http://unitsofmeasure.org"
            }
          }
        ],
        "text": {
          "status": "generated",
          "div": "<div xmlns=\"http://www.w3.org/1999/xhtml\"><table class=\"hl7__eu__lab__report\"><tr><th>Test</th><th>11-Oct-2024</th><th>Reference&#xA0;Range</th><th>Unit</th></tr><tr><td>Glucose [Mass/volume] in Serum or Plasma</td><td>70.2</td><td>70 - 140</td><td></td><td>mg/dL</td></tr></table></div>"
        },
        "status": "final",
        "subject": {
          "reference": "urn:uuid:1e6e5e19-6b66-4cea-9d99-0533589868d9",
          "display": "Victor Lagarde"
        },
        "effectiveDateTime": "2024-10-11T04:48:18Z",
        "specimen": {
          "reference": "urn:uuid:25e8b34e-ce9a-45c5-96aa-a783805729a9"
        }
      }
    },
    {
      "fullUrl": "urn:uuid:502904d1-1abc-43cc-a46d-a563e20ff771",
      "resource": {
        "resourceType": "Observation",
        "id": "502904d1-1abc-43cc-a46d-a563e20ff771",
        "meta": {
          "profile": [
            "http://hl7.eu/fhir/laboratory/StructureDefinition/Observation-resultslab-eu-lab"
          ]
        },
        "performer": [
          {
            "display": "The Central European Lab"
          }
        ],
        "category": [
          {
            "coding": [
              {
                "system": "http://terminology.hl7.org/CodeSystem/observation-category",
                "code": "laboratory"
              }
            ]
          }
        ],
        "code": {
          "coding": [
            {
              "code": "3094-0",
              "system": "http://loinc.org",
              "display": "Urea nitrogen [Mass/volume] in Serum or Plasma"
            }
          ],
          "text": "Urea nitrogen [Mass/volume] in Serum or Plasma"
        },
        "valueQuantity": {
          "system": "http://unitsofmeasure.org",
          "value": 19.1,
          "unit": "mg/dL",
          "code": "mg/dL"
        },
        "referenceRange": [
          {
            "low": {
              "value": 7,
              "code": "mg/dL",
              "system": "http://unitsofmeasure.org"
            }
          },
          {
            "high": {
              "value": 20,
              "code": "mg/dL",
              "system": "http://unitsofmeasure.org"
            }
          }
        ],
        "text": {
          "status": "generated",
          "div": "<div xmlns=\"http://www.w3.org/1999/xhtml\"><table class=\"hl7__eu__lab__report\"><tr><th>Test</th><th>11-Oct-2024</th><th>Reference&#xA0;Range</th><th>Unit</th></tr><tr><td>Urea nitrogen [Mass/volume] in Serum or Plasma</td><td>19.1</td><td>7 - 20</td><td></td><td>mg/dL</td></tr></table></div>"
        },
        "status": "final",
        "subject": {
          "reference": "urn:uuid:1e6e5e19-6b66-4cea-9d99-0533589868d9",
          "display": "Victor Lagarde"
        },
        "effectiveDateTime": "2024-10-11T04:48:18Z",
        "specimen": {
          "reference": "urn:uuid:25e8b34e-ce9a-45c5-96aa-a783805729a9"
        }
      }
    },
    {
      "fullUrl": "urn:uuid:c5dee6cb-b202-4776-8291-05f062a07da9",
      "resource": {
        "resourceType": "Observation",
        "id": "c5dee6cb-b202-4776-8291-05f062a07da9",
        "meta": {
          "profile": [
            "http://hl7.eu/fhir/laboratory/StructureDefinition/Observation-resultslab-eu-lab"
          ]
        },
        "performer": [
          {
            "display": "The Central European Lab"
          }
        ],
        "category": [
          {
            "coding": [
              {
                "system": "http://terminology.hl7.org/CodeSystem/observation-category",
                "code": "laboratory"
              }
            ]
          }
        ],
        "code": {
          "coding": [
            {
              "code": "2160-0",
              "system": "http://loinc.org",
              "display": "Creatinine [Mass/volume] in Serum or Plasma"
            }
          ],
          "text": "Creatinine [Mass/volume] in Serum or Plasma"
        },
        "valueQuantity": {
          "system": "http://unitsofmeasure.org",
          "value": 1.9,
          "unit": "mg/dL",
          "code": "mg/dL"
        },
        "referenceRange": [
          {
            "low": {
              "value": 0.9,
              "code": "mg/dL",
              "system": "http://unitsofmeasure.org"
            }
          },
          {
            "high": {
              "value": 1.3,
              "code": "mg/dL",
              "system": "http://unitsofmeasure.org"
            }
          }
        ],
        "interpretation": [
          {
            "coding": [
              {
                "code": "H",
                "system": "http://terminology.hl7.org/CodeSystem/v3-ObservationInterpretation",
                "display": "High"
              }
            ]
          }
        ],
        "text": {
          "status": "generated",
          "div": "<div xmlns=\"http://www.w3.org/1999/xhtml\"><table class=\"hl7__eu__lab__report\"><tr><th>Test</th><th>11-Oct-2024</th><th>Reference&#xA0;Range</th><th>Unit</th></tr><tr><td>Creatinine [Mass/volume] in Serum or Plasma</td><td>1.9</td><td>0.9 - 1.3</td><td>H</td><td>mg/dL</td></tr></table></div>"
        },
        "status": "final",
        "subject": {
          "reference": "urn:uuid:1e6e5e19-6b66-4cea-9d99-0533589868d9",
          "display": "Victor Lagarde"
        },
        "effectiveDateTime": "2024-10-11T04:48:18Z",
        "specimen": {
          "reference": "urn:uuid:25e8b34e-ce9a-45c5-96aa-a783805729a9"
        }
      }
    },
    {
      "fullUrl": "urn:uuid:de03de37-f976-4c69-a4cd-a89b34f4698e",
      "resource": {
        "resourceType": "Observation",
        "id": "de03de37-f976-4c69-a4cd-a89b34f4698e",
        "meta": {
          "profile": [
            "http://hl7.eu/fhir/laboratory/StructureDefinition/Observation-resultslab-eu-lab"
          ]
        },
        "performer": [
          {
            "display": "The Central European Lab"
          }
        ],
        "category": [
          {
            "coding": [
              {
                "system": "http://terminology.hl7.org/CodeSystem/observation-category",
                "code": "laboratory"
              }
            ]
          }
        ],
        "code": {
          "coding": [
            {
              "code": "17861-6",
              "system": "http://loinc.org",
              "display": "Calcium [Mass/volume] in Serum or Plasma"
            }
          ],
          "text": "Calcium [Mass/volume] in Serum or Plasma"
        },
        "valueQuantity": {
          "system": "http://unitsofmeasure.org",
          "value": 9.1,
          "unit": "mg/dL",
          "code": "mg/dL"
        },
        "referenceRange": [
          {
            "low": {
              "value": 8.5,
              "code": "mg/dL",
              "system": "http://unitsofmeasure.org"
            }
          },
          {
            "high": {
              "value": 10.5,
              "code": "mg/dL",
              "system": "http://unitsofmeasure.org"
            }
          }
        ],
        "text": {
          "status": "generated",
          "div": "<div xmlns=\"http://www.w3.org/1999/xhtml\"><table class=\"hl7__eu__lab__report\"><tr><th>Test</th><th>11-Oct-2024</th><th>Reference&#xA0;Range</th><th>Unit</th></tr><tr><td>Calcium [Mass/volume] in Serum or Plasma</td><td>9.1</td><td>8.5 - 10.5</td><td></td><td>mg/dL</td></tr></table></div>"
        },
        "status": "final",
        "subject": {
          "reference": "urn:uuid:1e6e5e19-6b66-4cea-9d99-0533589868d9",
          "display": "Victor Lagarde"
        },
        "effectiveDateTime": "2024-10-11T04:48:18Z",
        "specimen": {
          "reference": "urn:uuid:25e8b34e-ce9a-45c5-96aa-a783805729a9"
        }
      }
    },
    {
      "fullUrl": "urn:uuid:25c8857a-89fe-457f-be63-c6af2354eaeb",
      "resource": {
        "resourceType": "Observation",
        "id": "25c8857a-89fe-457f-be63-c6af2354eaeb",
        "meta": {
          "profile": [
            "http://hl7.eu/fhir/laboratory/StructureDefinition/Observation-resultslab-eu-lab"
          ]
        },
        "performer": [
          {
            "display": "The Central European Lab"
          }
        ],
        "category": [
          {
            "coding": [
              {
                "system": "http://terminology.hl7.org/CodeSystem/observation-category",
                "code": "laboratory"
              }
            ]
          }
        ],
        "code": {
          "coding": [
            {
              "code": "2951-2",
              "system": "http://loinc.org",
              "display": "Sodium [Moles/volume] in Serum or Plasma"
            }
          ],
          "text": "Sodium [Moles/volume] in Serum or Plasma"
        },
        "valueQuantity": {
          "system": "http://unitsofmeasure.org",
          "value": 140.7,
          "unit": "mmol/L",
          "code": "mmol/L"
        },
        "referenceRange": [
          {
            "low": {
              "value": 135,
              "code": "mmol/L",
              "system": "http://unitsofmeasure.org"
            }
          },
          {
            "high": {
              "value": 145,
              "code": "mmol/L",
              "system": "http://unitsofmeasure.org"
            }
          }
        ],
        "text": {
          "status": "generated",
          "div": "<div xmlns=\"http://www.w3.org/1999/xhtml\"><table class=\"hl7__eu__lab__report\"><tr><th>Test</th><th>11-Oct-2024</th><th>Reference&#xA0;Range</th><th>Unit</th></tr><tr><td>Sodium [Moles/volume] in Serum or Plasma</td><td>140.7</td><td>135 - 145</td><td></td><td>mmol/L</td></tr></table></div>"
        },
        "status": "final",
        "subject": {
          "reference": "urn:uuid:1e6e5e19-6b66-4cea-9d99-0533589868d9",
          "display": "Victor Lagarde"
        },
        "effectiveDateTime": "2024-10-11T04:48:18Z",
        "specimen": {
          "reference": "urn:uuid:25e8b34e-ce9a-45c5-96aa-a783805729a9"
        }
      }
    },
    {
      "fullUrl": "urn:uuid:a6d3fc13-2b8c-44d9-8fa0-a885366a610b",
      "resource": {
        "resourceType": "Observation",
        "id": "a6d3fc13-2b8c-44d9-8fa0-a885366a610b",
        "meta": {
          "profile": [
            "http://hl7.eu/fhir/laboratory/StructureDefinition/Observation-resultslab-eu-lab"
          ]
        },
        "performer": [
          {
            "display": "The Central European Lab"
          }
        ],
        "category": [
          {
            "coding": [
              {
                "system": "http://terminology.hl7.org/CodeSystem/observation-category",
                "code": "laboratory"
              }
            ]
          }
        ],
        "code": {
          "coding": [
            {
              "code": "2823-3",
              "system": "http://loinc.org",
              "display": "Potassium [Moles/volume] in Serum or Plasma"
            }
          ],
          "text": "Potassium [Moles/volume] in Serum or Plasma"
        },
        "valueQuantity": {
          "system": "http://unitsofmeasure.org",
          "value": 4.5,
          "unit": "mmol/L",
          "code": "mmol/L"
        },
        "referenceRange": [
          {
            "low": {
              "value": 3.5,
              "code": "mmol/L",
              "system": "http://unitsofmeasure.org"
            }
          },
          {
            "high": {
              "value": 5.3,
              "code": "mmol/L",
              "system": "http://unitsofmeasure.org"
            }
          }
        ],
        "text": {
          "status": "generated",
          "div": "<div xmlns=\"http://www.w3.org/1999/xhtml\"><table class=\"hl7__eu__lab__report\"><tr><th>Test</th><th>11-Oct-2024</th><th>Reference&#xA0;Range</th><th>Unit</th></tr><tr><td>Potassium [Moles/volume] in Serum or Plasma</td><td>4.5</td><td>3.5 - 5.3</td><td></td><td>mmol/L</td></tr></table></div>"
        },
        "status": "final",
        "subject": {
          "reference": "urn:uuid:1e6e5e19-6b66-4cea-9d99-0533589868d9",
          "display": "Victor Lagarde"
        },
        "effectiveDateTime": "2024-10-11T04:48:18Z",
        "specimen": {
          "reference": "urn:uuid:25e8b34e-ce9a-45c5-96aa-a783805729a9"
        }
      }
    },
    {
      "fullUrl": "urn:uuid:a00c012a-64c7-46a3-b742-d13f841ec32c",
      "resource": {
        "resourceType": "Observation",
        "id": "a00c012a-64c7-46a3-b742-d13f841ec32c",
        "meta": {
          "profile": [
            "http://hl7.eu/fhir/laboratory/StructureDefinition/Observation-resultslab-eu-lab"
          ]
        },
        "performer": [
          {
            "display": "The Central European Lab"
          }
        ],
        "category": [
          {
            "coding": [
              {
                "system": "http://terminology.hl7.org/CodeSystem/observation-category",
                "code": "laboratory"
              }
            ]
          }
        ],
        "code": {
          "coding": [
            {
              "code": "2075-0",
              "system": "http://loinc.org",
              "display": "Chloride [Moles/volume] in Serum or Plasma"
            }
          ],
          "text": "Chloride [Moles/volume] in Serum or Plasma"
        },
        "valueQuantity": {
          "system": "http://unitsofmeasure.org",
          "value": 109,
          "unit": "mmol/L",
          "code": "mmol/L"
        },
        "referenceRange": [
          {
            "low": {
              "value": 98,
              "code": "mmol/L",
              "system": "http://unitsofmeasure.org"
            }
          },
          {
            "high": {
              "value": 107,
              "code": "mmol/L",
              "system": "http://unitsofmeasure.org"
            }
          }
        ],
        "interpretation": [
          {
            "coding": [
              {
                "code": "H",
                "system": "http://terminology.hl7.org/CodeSystem/v3-ObservationInterpretation",
                "display": "High"
              }
            ]
          }
        ],
        "text": {
          "status": "generated",
          "div": "<div xmlns=\"http://www.w3.org/1999/xhtml\"><table class=\"hl7__eu__lab__report\"><tr><th>Test</th><th>11-Oct-2024</th><th>Reference&#xA0;Range</th><th>Unit</th></tr><tr><td>Chloride [Moles/volume] in Serum or Plasma</td><td>109.0</td><td>98 - 107</td><td>H</td><td>mmol/L</td></tr></table></div>"
        },
        "status": "final",
        "subject": {
          "reference": "urn:uuid:1e6e5e19-6b66-4cea-9d99-0533589868d9",
          "display": "Victor Lagarde"
        },
        "effectiveDateTime": "2024-10-11T04:48:18Z",
        "specimen": {
          "reference": "urn:uuid:25e8b34e-ce9a-45c5-96aa-a783805729a9"
        }
      }
    },
    {
      "fullUrl": "urn:uuid:190fb290-fd2a-4d80-bbd9-ff60763f4eb4",
      "resource": {
        "resourceType": "Observation",
        "id": "190fb290-fd2a-4d80-bbd9-ff60763f4eb4",
        "meta": {
          "profile": [
            "http://hl7.eu/fhir/laboratory/StructureDefinition/Observation-resultslab-eu-lab"
          ]
        },
        "performer": [
          {
            "display": "The Central European Lab"
          }
        ],
        "category": [
          {
            "coding": [
              {
                "system": "http://terminology.hl7.org/CodeSystem/observation-category",
                "code": "laboratory"
              }
            ]
          }
        ],
        "code": {
          "coding": [
            {
              "code": "2028-9",
              "system": "http://loinc.org",
              "display": "Carbon dioxide, total [Moles/volume] in Serum or Plasma"
            }
          ],
          "text": "Carbon dioxide, total [Moles/volume] in Serum or Plasma"
        },
        "valueQuantity": {
          "system": "http://unitsofmeasure.org",
          "value": 24.8,
          "unit": "mmol/L",
          "code": "mmol/L"
        },
        "referenceRange": [
          {
            "low": {
              "value": 22,
              "code": "mmol/L",
              "system": "http://unitsofmeasure.org"
            }
          },
          {
            "high": {
              "value": 33,
              "code": "mmol/L",
              "system": "http://unitsofmeasure.org"
            }
          }
        ],
        "text": {
          "status": "generated",
          "div": "<div xmlns=\"http://www.w3.org/1999/xhtml\"><table class=\"hl7__eu__lab__report\"><tr><th>Test</th><th>11-Oct-2024</th><th>Reference&#xA0;Range</th><th>Unit</th></tr><tr><td>Carbon dioxide, total [Moles/volume] in Serum or Plasma</td><td>24.8</td><td>22 - 33</td><td></td><td>mmol/L</td></tr></table></div>"
        },
        "status": "final",
        "subject": {
          "reference": "urn:uuid:1e6e5e19-6b66-4cea-9d99-0533589868d9",
          "display": "Victor Lagarde"
        },
        "effectiveDateTime": "2024-10-11T04:48:18Z",
        "specimen": {
          "reference": "urn:uuid:25e8b34e-ce9a-45c5-96aa-a783805729a9"
        }
      }
    },
    {
      "fullUrl": "urn:uuid:53c51f14-78ce-458d-a3bc-b86140707be0",
      "resource": {
        "resourceType": "Observation",
        "id": "53c51f14-78ce-458d-a3bc-b86140707be0",
        "meta": {
          "profile": [
            "http://hl7.eu/fhir/laboratory/StructureDefinition/Observation-resultslab-eu-lab"
          ]
        },
        "performer": [
          {
            "display": "The Central European Lab"
          }
        ],
        "category": [
          {
            "coding": [
              {
                "system": "http://terminology.hl7.org/CodeSystem/observation-category",
                "code": "laboratory"
              }
            ]
          }
        ],
        "code": {
          "coding": [
            {
              "code": "5767-9",
              "system": "http://loinc.org",
              "display": "Appearance of Urine"
            }
          ],
          "text": "Appearance of Urine"
        },
        "text": {
          "status": "generated",
          "div": "<div xmlns=\"http://www.w3.org/1999/xhtml\"><table class=\"hl7__eu__lab__report\"><tr><th>Test</th><th>11-Oct-2024</th><th>Reference&#xA0;Range</th><th>Unit</th></tr><tr><td>Appearance of Urine</td></tr></table></div>"
        },
        "status": "final",
        "subject": {
          "reference": "urn:uuid:1e6e5e19-6b66-4cea-9d99-0533589868d9",
          "display": "Victor Lagarde"
        },
        "effectiveDateTime": "2024-10-11T04:48:18Z",
        "specimen": {
          "reference": "urn:uuid:8e455853-ebfa-4363-a203-ed464838eaab"
        }
      }
    },
    {
      "fullUrl": "urn:uuid:4babd80e-6760-4012-bcb4-f77106409d36",
      "resource": {
        "resourceType": "Observation",
        "id": "4babd80e-6760-4012-bcb4-f77106409d36",
        "meta": {
          "profile": [
            "http://hl7.eu/fhir/laboratory/StructureDefinition/Observation-resultslab-eu-lab"
          ]
        },
        "performer": [
          {
            "display": "The Central European Lab"
          }
        ],
        "category": [
          {
            "coding": [
              {
                "system": "http://terminology.hl7.org/CodeSystem/observation-category",
                "code": "laboratory"
              }
            ]
          }
        ],
        "code": {
          "coding": [
            {
              "code": "34533-0",
              "system": "http://loinc.org",
              "display": "Odor of Urine"
            }
          ],
          "text": "Odor of Urine"
        },
        "text": {
          "status": "generated",
          "div": "<div xmlns=\"http://www.w3.org/1999/xhtml\"><table class=\"hl7__eu__lab__report\"><tr><th>Test</th><th>11-Oct-2024</th><th>Reference&#xA0;Range</th><th>Unit</th></tr><tr><td>Odor of Urine</td></tr></table></div>"
        },
        "status": "final",
        "subject": {
          "reference": "urn:uuid:1e6e5e19-6b66-4cea-9d99-0533589868d9",
          "display": "Victor Lagarde"
        },
        "effectiveDateTime": "2024-10-11T04:48:18Z",
        "specimen": {
          "reference": "urn:uuid:8e455853-ebfa-4363-a203-ed464838eaab"
        }
      }
    },
    {
      "fullUrl": "urn:uuid:81367d9c-bd03-466d-8929-afe81ba59594",
      "resource": {
        "resourceType": "Observation",
        "id": "81367d9c-bd03-466d-8929-afe81ba59594",
        "meta": {
          "profile": [
            "http://hl7.eu/fhir/laboratory/StructureDefinition/Observation-resultslab-eu-lab"
          ]
        },
        "performer": [
          {
            "display": "The Central European Lab"
          }
        ],
        "category": [
          {
            "coding": [
              {
                "system": "http://terminology.hl7.org/CodeSystem/observation-category",
                "code": "laboratory"
              }
            ]
          }
        ],
        "code": {
          "coding": [
            {
              "code": "32167-9",
              "system": "http://loinc.org",
              "display": "Clarity of Urine"
            }
          ],
          "text": "Clarity of Urine"
        },
        "text": {
          "status": "generated",
          "div": "<div xmlns=\"http://www.w3.org/1999/xhtml\"><table class=\"hl7__eu__lab__report\"><tr><th>Test</th><th>11-Oct-2024</th><th>Reference&#xA0;Range</th><th>Unit</th></tr><tr><td>Clarity of Urine</td></tr></table></div>"
        },
        "status": "final",
        "subject": {
          "reference": "urn:uuid:1e6e5e19-6b66-4cea-9d99-0533589868d9",
          "display": "Victor Lagarde"
        },
        "effectiveDateTime": "2024-10-11T04:48:18Z",
        "specimen": {
          "reference": "urn:uuid:8e455853-ebfa-4363-a203-ed464838eaab"
        }
      }
    },
    {
      "fullUrl": "urn:uuid:831d701d-9a3f-422b-8231-e7d0364dcebb",
      "resource": {
        "resourceType": "Observation",
        "id": "831d701d-9a3f-422b-8231-e7d0364dcebb",
        "meta": {
          "profile": [
            "http://hl7.eu/fhir/laboratory/StructureDefinition/Observation-resultslab-eu-lab"
          ]
        },
        "performer": [
          {
            "display": "The Central European Lab"
          }
        ],
        "category": [
          {
            "coding": [
              {
                "system": "http://terminology.hl7.org/CodeSystem/observation-category",
                "code": "laboratory"
              }
            ]
          }
        ],
        "code": {
          "coding": [
            {
              "code": "5778-6",
              "system": "http://loinc.org",
              "display": "Color of Urine"
            }
          ],
          "text": "Color of Urine"
        },
        "text": {
          "status": "generated",
          "div": "<div xmlns=\"http://www.w3.org/1999/xhtml\"><table class=\"hl7__eu__lab__report\"><tr><th>Test</th><th>11-Oct-2024</th><th>Reference&#xA0;Range</th><th>Unit</th></tr><tr><td>Color of Urine</td></tr></table></div>"
        },
        "status": "final",
        "subject": {
          "reference": "urn:uuid:1e6e5e19-6b66-4cea-9d99-0533589868d9",
          "display": "Victor Lagarde"
        },
        "effectiveDateTime": "2024-10-11T04:48:18Z",
        "specimen": {
          "reference": "urn:uuid:8e455853-ebfa-4363-a203-ed464838eaab"
        }
      }
    },
    {
      "fullUrl": "urn:uuid:afa19ca6-e832-4af5-ba04-f7f4cf2c4435",
      "resource": {
        "resourceType": "Observation",
        "id": "afa19ca6-e832-4af5-ba04-f7f4cf2c4435",
        "meta": {
          "profile": [
            "http://hl7.eu/fhir/laboratory/StructureDefinition/Observation-resultslab-eu-lab"
          ]
        },
        "performer": [
          {
            "display": "The Central European Lab"
          }
        ],
        "category": [
          {
            "coding": [
              {
                "system": "http://terminology.hl7.org/CodeSystem/observation-category",
                "code": "laboratory"
              }
            ]
          }
        ],
        "code": {
          "coding": [
            {
              "code": "5792-7",
              "system": "http://loinc.org",
              "display": "Glucose [Mass/volume] in Urine by Test strip"
            }
          ],
          "text": "Glucose [Mass/volume] in Urine by Test strip"
        },
        "valueQuantity": {
          "system": "http://unitsofmeasure.org",
          "value": 1.3,
          "unit": "mg/dL",
          "code": "mg/dL"
        },
        "referenceRange": [
          {
            "low": {
              "value": 0,
              "code": "mg/dL",
              "system": "http://unitsofmeasure.org"
            }
          },
          {
            "high": {
              "value": 0.8,
              "code": "mg/dL",
              "system": "http://unitsofmeasure.org"
            }
          }
        ],
        "interpretation": [
          {
            "coding": [
              {
                "code": "H",
                "system": "http://terminology.hl7.org/CodeSystem/v3-ObservationInterpretation",
                "display": "High"
              }
            ]
          }
        ],
        "text": {
          "status": "generated",
          "div": "<div xmlns=\"http://www.w3.org/1999/xhtml\"><table class=\"hl7__eu__lab__report\"><tr><th>Test</th><th>11-Oct-2024</th><th>Reference&#xA0;Range</th><th>Unit</th></tr><tr><td>Glucose [Mass/volume] in Urine by Test strip</td><td>1.3</td><td>0 - 0.8</td><td>H</td><td>mg/dL</td></tr></table></div>"
        },
        "status": "final",
        "subject": {
          "reference": "urn:uuid:1e6e5e19-6b66-4cea-9d99-0533589868d9",
          "display": "Victor Lagarde"
        },
        "effectiveDateTime": "2024-10-11T04:48:18Z",
        "specimen": {
          "reference": "urn:uuid:8e455853-ebfa-4363-a203-ed464838eaab"
        }
      }
    },
    {
      "fullUrl": "urn:uuid:8b440f19-51ce-49c9-9ffc-16e09ffac741",
      "resource": {
        "resourceType": "Observation",
        "id": "8b440f19-51ce-49c9-9ffc-16e09ffac741",
        "meta": {
          "profile": [
            "http://hl7.eu/fhir/laboratory/StructureDefinition/Observation-resultslab-eu-lab"
          ]
        },
        "performer": [
          {
            "display": "The Central European Lab"
          }
        ],
        "category": [
          {
            "coding": [
              {
                "system": "http://terminology.hl7.org/CodeSystem/observation-category",
                "code": "laboratory"
              }
            ]
          }
        ],
        "code": {
          "coding": [
            {
              "code": "25428-4",
              "system": "http://loinc.org",
              "display": "Glucose [Presence] in Urine by Test strip"
            }
          ],
          "text": "Glucose [Presence] in Urine by Test strip"
        },
        "text": {
          "status": "generated",
          "div": "<div xmlns=\"http://www.w3.org/1999/xhtml\"><table class=\"hl7__eu__lab__report\"><tr><th>Test</th><th>11-Oct-2024</th><th>Reference&#xA0;Range</th><th>Unit</th></tr><tr><td>Glucose [Presence] in Urine by Test strip</td></tr></table></div>"
        },
        "status": "final",
        "subject": {
          "reference": "urn:uuid:1e6e5e19-6b66-4cea-9d99-0533589868d9",
          "display": "Victor Lagarde"
        },
        "effectiveDateTime": "2024-10-11T04:48:18Z",
        "specimen": {
          "reference": "urn:uuid:8e455853-ebfa-4363-a203-ed464838eaab"
        }
      }
    },
    {
      "fullUrl": "urn:uuid:1c258bac-c5b7-4be5-8cd0-793f1d54b519",
      "resource": {
        "resourceType": "Observation",
        "id": "1c258bac-c5b7-4be5-8cd0-793f1d54b519",
        "meta": {
          "profile": [
            "http://hl7.eu/fhir/laboratory/StructureDefinition/Observation-resultslab-eu-lab"
          ]
        },
        "performer": [
          {
            "display": "The Central European Lab"
          }
        ],
        "category": [
          {
            "coding": [
              {
                "system": "http://terminology.hl7.org/CodeSystem/observation-category",
                "code": "laboratory"
              }
            ]
          }
        ],
        "code": {
          "coding": [
            {
              "code": "20505-4",
              "system": "http://loinc.org",
              "display": "Bilirubin.total [Mass/volume] in Urine by Test strip"
            }
          ],
          "text": "Bilirubin.total [Mass/volume] in Urine by Test strip"
        },
        "valueQuantity": {
          "system": "http://unitsofmeasure.org",
          "value": 0.7,
          "unit": "mg/dL",
          "code": "mg/dL"
        },
        "referenceRange": [
          {
            "low": {
              "value": 0,
              "code": "mg/dL",
              "system": "http://unitsofmeasure.org"
            }
          },
          {
            "high": {
              "value": 1.9,
              "code": "mg/dL",
              "system": "http://unitsofmeasure.org"
            }
          }
        ],
        "text": {
          "status": "generated",
          "div": "<div xmlns=\"http://www.w3.org/1999/xhtml\"><table class=\"hl7__eu__lab__report\"><tr><th>Test</th><th>11-Oct-2024</th><th>Reference&#xA0;Range</th><th>Unit</th></tr><tr><td>Bilirubin.total [Mass/volume] in Urine by Test strip</td><td>0.7</td><td>0 - 1.9</td><td></td><td>mg/dL</td></tr></table></div>"
        },
        "status": "final",
        "subject": {
          "reference": "urn:uuid:1e6e5e19-6b66-4cea-9d99-0533589868d9",
          "display": "Victor Lagarde"
        },
        "effectiveDateTime": "2024-10-11T04:48:18Z",
        "specimen": {
          "reference": "urn:uuid:8e455853-ebfa-4363-a203-ed464838eaab"
        }
      }
    },
    {
      "fullUrl": "urn:uuid:3e3d1540-e11b-4ff6-9abc-88b35fec10fe",
      "resource": {
        "resourceType": "Observation",
        "id": "3e3d1540-e11b-4ff6-9abc-88b35fec10fe",
        "meta": {
          "profile": [
            "http://hl7.eu/fhir/laboratory/StructureDefinition/Observation-resultslab-eu-lab"
          ]
        },
        "performer": [
          {
            "display": "The Central European Lab"
          }
        ],
        "category": [
          {
            "coding": [
              {
                "system": "http://terminology.hl7.org/CodeSystem/observation-category",
                "code": "laboratory"
              }
            ]
          }
        ],
        "code": {
          "coding": [
            {
              "code": "5770-3",
              "system": "http://loinc.org",
              "display": "Bilirubin.total [Presence] in Urine by Test strip"
            }
          ],
          "text": "Bilirubin.total [Presence] in Urine by Test strip"
        },
        "text": {
          "status": "generated",
          "div": "<div xmlns=\"http://www.w3.org/1999/xhtml\"><table class=\"hl7__eu__lab__report\"><tr><th>Test</th><th>11-Oct-2024</th><th>Reference&#xA0;Range</th><th>Unit</th></tr><tr><td>Bilirubin.total [Presence] in Urine by Test strip</td></tr></table></div>"
        },
        "status": "final",
        "subject": {
          "reference": "urn:uuid:1e6e5e19-6b66-4cea-9d99-0533589868d9",
          "display": "Victor Lagarde"
        },
        "effectiveDateTime": "2024-10-11T04:48:18Z",
        "specimen": {
          "reference": "urn:uuid:8e455853-ebfa-4363-a203-ed464838eaab"
        }
      }
    },
    {
      "fullUrl": "urn:uuid:06677962-5ba8-40b0-b9c0-036751475969",
      "resource": {
        "resourceType": "Observation",
        "id": "06677962-5ba8-40b0-b9c0-036751475969",
        "meta": {
          "profile": [
            "http://hl7.eu/fhir/laboratory/StructureDefinition/Observation-resultslab-eu-lab"
          ]
        },
        "performer": [
          {
            "display": "The Central European Lab"
          }
        ],
        "category": [
          {
            "coding": [
              {
                "system": "http://terminology.hl7.org/CodeSystem/observation-category",
                "code": "laboratory"
              }
            ]
          }
        ],
        "code": {
          "coding": [
            {
              "code": "5797-6",
              "system": "http://loinc.org",
              "display": "Ketones [Mass/volume] in Urine by Test strip"
            }
          ],
          "text": "Ketones [Mass/volume] in Urine by Test strip"
        },
        "valueQuantity": {
          "system": "http://unitsofmeasure.org",
          "value": 7.6,
          "unit": "mg/dL",
          "code": "mg/dL"
        },
        "referenceRange": [
          {
            "low": {
              "value": 0,
              "code": "mg/dL",
              "system": "http://unitsofmeasure.org"
            }
          },
          {
            "high": {
              "value": 3,
              "code": "mg/dL",
              "system": "http://unitsofmeasure.org"
            }
          }
        ],
        "interpretation": [
          {
            "coding": [
              {
                "code": "H",
                "system": "http://terminology.hl7.org/CodeSystem/v3-ObservationInterpretation",
                "display": "High"
              }
            ]
          }
        ],
        "text": {
          "status": "generated",
          "div": "<div xmlns=\"http://www.w3.org/1999/xhtml\"><table class=\"hl7__eu__lab__report\"><tr><th>Test</th><th>11-Oct-2024</th><th>Reference&#xA0;Range</th><th>Unit</th></tr><tr><td>Ketones [Mass/volume] in Urine by Test strip</td><td>7.6</td><td>0 - 3</td><td>H</td><td>mg/dL</td></tr></table></div>"
        },
        "status": "final",
        "subject": {
          "reference": "urn:uuid:1e6e5e19-6b66-4cea-9d99-0533589868d9",
          "display": "Victor Lagarde"
        },
        "effectiveDateTime": "2024-10-11T04:48:18Z",
        "specimen": {
          "reference": "urn:uuid:8e455853-ebfa-4363-a203-ed464838eaab"
        }
      }
    },
    {
      "fullUrl": "urn:uuid:d7074fc5-0b54-4f78-8256-838a117b6fed",
      "resource": {
        "resourceType": "Observation",
        "id": "d7074fc5-0b54-4f78-8256-838a117b6fed",
        "meta": {
          "profile": [
            "http://hl7.eu/fhir/laboratory/StructureDefinition/Observation-resultslab-eu-lab"
          ]
        },
        "performer": [
          {
            "display": "The Central European Lab"
          }
        ],
        "category": [
          {
            "coding": [
              {
                "system": "http://terminology.hl7.org/CodeSystem/observation-category",
                "code": "laboratory"
              }
            ]
          }
        ],
        "code": {
          "coding": [
            {
              "code": "2514-8",
              "system": "http://loinc.org",
              "display": "Ketones [Presence] in Urine by Test strip"
            }
          ],
          "text": "Ketones [Presence] in Urine by Test strip"
        },
        "text": {
          "status": "generated",
          "div": "<div xmlns=\"http://www.w3.org/1999/xhtml\"><table class=\"hl7__eu__lab__report\"><tr><th>Test</th><th>11-Oct-2024</th><th>Reference&#xA0;Range</th><th>Unit</th></tr><tr><td>Ketones [Presence] in Urine by Test strip</td></tr></table></div>"
        },
        "status": "final",
        "subject": {
          "reference": "urn:uuid:1e6e5e19-6b66-4cea-9d99-0533589868d9",
          "display": "Victor Lagarde"
        },
        "effectiveDateTime": "2024-10-11T04:48:18Z",
        "specimen": {
          "reference": "urn:uuid:8e455853-ebfa-4363-a203-ed464838eaab"
        }
      }
    },
    {
      "fullUrl": "urn:uuid:feebcad5-9117-4c75-8dec-9b15039eabbe",
      "resource": {
        "resourceType": "Observation",
        "id": "feebcad5-9117-4c75-8dec-9b15039eabbe",
        "meta": {
          "profile": [
            "http://hl7.eu/fhir/laboratory/StructureDefinition/Observation-resultslab-eu-lab"
          ]
        },
        "performer": [
          {
            "display": "The Central European Lab"
          }
        ],
        "category": [
          {
            "coding": [
              {
                "system": "http://terminology.hl7.org/CodeSystem/observation-category",
                "code": "laboratory"
              }
            ]
          }
        ],
        "code": {
          "coding": [
            {
              "code": "5811-5",
              "system": "http://loinc.org",
              "display": "Specific gravity of Urine by Test strip"
            }
          ],
          "text": "Specific gravity of Urine by Test strip"
        },
        "valueQuantity": {
          "system": "http://unitsofmeasure.org",
          "value": 1,
          "unit": "{nominal}",
          "code": "{nominal}"
        },
        "referenceRange": [
          {
            "low": {
              "value": 1.01,
              "code": "g/mL",
              "system": "http://unitsofmeasure.org"
            }
          },
          {
            "high": {
              "value": 1.03,
              "code": "g/mL",
              "system": "http://unitsofmeasure.org"
            }
          }
        ],
        "interpretation": [
          {
            "coding": [
              {
                "code": "L",
                "system": "http://terminology.hl7.org/CodeSystem/v3-ObservationInterpretation",
                "display": "Low"
              }
            ]
          }
        ],
        "text": {
          "status": "generated",
          "div": "<div xmlns=\"http://www.w3.org/1999/xhtml\"><table class=\"hl7__eu__lab__report\"><tr><th>Test</th><th>11-Oct-2024</th><th>Reference&#xA0;Range</th><th>Unit</th></tr><tr><td>Specific gravity of Urine by Test strip</td><td>1.0</td><td>1.01 - 1.03</td><td>L</td><td>{nominal}</td></tr></table></div>"
        },
        "status": "final",
        "subject": {
          "reference": "urn:uuid:1e6e5e19-6b66-4cea-9d99-0533589868d9",
          "display": "Victor Lagarde"
        },
        "effectiveDateTime": "2024-10-11T04:48:18Z",
        "specimen": {
          "reference": "urn:uuid:8e455853-ebfa-4363-a203-ed464838eaab"
        }
      }
    },
    {
      "fullUrl": "urn:uuid:007e2e6e-e442-49cc-aa5d-8dbf0199a242",
      "resource": {
        "resourceType": "Observation",
        "id": "007e2e6e-e442-49cc-aa5d-8dbf0199a242",
        "meta": {
          "profile": [
            "http://hl7.eu/fhir/laboratory/StructureDefinition/Observation-resultslab-eu-lab"
          ]
        },
        "performer": [
          {
            "display": "The Central European Lab"
          }
        ],
        "category": [
          {
            "coding": [
              {
                "system": "http://terminology.hl7.org/CodeSystem/observation-category",
                "code": "laboratory"
              }
            ]
          }
        ],
        "code": {
          "coding": [
            {
              "code": "5803-2",
              "system": "http://loinc.org",
              "display": "pH of Urine by Test strip"
            }
          ],
          "text": "pH of Urine by Test strip"
        },
        "valueQuantity": {
          "system": "http://unitsofmeasure.org",
          "value": 5.1,
          "unit": "pH",
          "code": "pH"
        },
        "referenceRange": [
          {
            "low": {
              "value": 4.5,
              "code": "pH",
              "system": "http://unitsofmeasure.org"
            }
          },
          {
            "high": {
              "value": 7.5,
              "code": "pH",
              "system": "http://unitsofmeasure.org"
            }
          }
        ],
        "text": {
          "status": "generated",
          "div": "<div xmlns=\"http://www.w3.org/1999/xhtml\"><table class=\"hl7__eu__lab__report\"><tr><th>Test</th><th>11-Oct-2024</th><th>Reference&#xA0;Range</th><th>Unit</th></tr><tr><td>pH of Urine by Test strip</td><td>5.1</td><td>4.5 - 7.5</td><td></td><td>pH</td></tr></table></div>"
        },
        "status": "final",
        "subject": {
          "reference": "urn:uuid:1e6e5e19-6b66-4cea-9d99-0533589868d9",
          "display": "Victor Lagarde"
        },
        "effectiveDateTime": "2024-10-11T04:48:18Z",
        "specimen": {
          "reference": "urn:uuid:8e455853-ebfa-4363-a203-ed464838eaab"
        }
      }
    },
    {
      "fullUrl": "urn:uuid:a9e876e8-e182-4181-a857-b4c81bff2d21",
      "resource": {
        "resourceType": "Observation",
        "id": "a9e876e8-e182-4181-a857-b4c81bff2d21",
        "meta": {
          "profile": [
            "http://hl7.eu/fhir/laboratory/StructureDefinition/Observation-resultslab-eu-lab"
          ]
        },
        "performer": [
          {
            "display": "The Central European Lab"
          }
        ],
        "category": [
          {
            "coding": [
              {
                "system": "http://terminology.hl7.org/CodeSystem/observation-category",
                "code": "laboratory"
              }
            ]
          }
        ],
        "code": {
          "coding": [
            {
              "code": "5804-0",
              "system": "http://loinc.org",
              "display": "Protein [Mass/volume] in Urine by Test strip"
            }
          ],
          "text": "Protein [Mass/volume] in Urine by Test strip"
        },
        "valueQuantity": {
          "system": "http://unitsofmeasure.org",
          "value": 204.1,
          "unit": "mg/dL",
          "code": "mg/dL"
        },
        "referenceRange": [
          {
            "low": {
              "value": 0,
              "code": "mg/dL",
              "system": "http://unitsofmeasure.org"
            }
          },
          {
            "high": {
              "value": 149,
              "code": "mg/dL",
              "system": "http://unitsofmeasure.org"
            }
          }
        ],
        "interpretation": [
          {
            "coding": [
              {
                "code": "H",
                "system": "http://terminology.hl7.org/CodeSystem/v3-ObservationInterpretation",
                "display": "High"
              }
            ]
          }
        ],
        "text": {
          "status": "generated",
          "div": "<div xmlns=\"http://www.w3.org/1999/xhtml\"><table class=\"hl7__eu__lab__report\"><tr><th>Test</th><th>11-Oct-2024</th><th>Reference&#xA0;Range</th><th>Unit</th></tr><tr><td>Protein [Mass/volume] in Urine by Test strip</td><td>204.1</td><td>0 - 149</td><td>H</td><td>mg/dL</td></tr></table></div>"
        },
        "status": "final",
        "subject": {
          "reference": "urn:uuid:1e6e5e19-6b66-4cea-9d99-0533589868d9",
          "display": "Victor Lagarde"
        },
        "effectiveDateTime": "2024-10-11T04:48:18Z",
        "specimen": {
          "reference": "urn:uuid:8e455853-ebfa-4363-a203-ed464838eaab"
        }
      }
    },
    {
      "fullUrl": "urn:uuid:d0ff4277-c2b8-4b2d-937a-b95aedcc67e1",
      "resource": {
        "resourceType": "Observation",
        "id": "d0ff4277-c2b8-4b2d-937a-b95aedcc67e1",
        "meta": {
          "profile": [
            "http://hl7.eu/fhir/laboratory/StructureDefinition/Observation-resultslab-eu-lab"
          ]
        },
        "performer": [
          {
            "display": "The Central European Lab"
          }
        ],
        "category": [
          {
            "coding": [
              {
                "system": "http://terminology.hl7.org/CodeSystem/observation-category",
                "code": "laboratory"
              }
            ]
          }
        ],
        "code": {
          "coding": [
            {
              "code": "20454-5",
              "system": "http://loinc.org",
              "display": "Protein [Presence] in Urine by Test strip"
            }
          ],
          "text": "Protein [Presence] in Urine by Test strip"
        },
        "text": {
          "status": "generated",
          "div": "<div xmlns=\"http://www.w3.org/1999/xhtml\"><table class=\"hl7__eu__lab__report\"><tr><th>Test</th><th>11-Oct-2024</th><th>Reference&#xA0;Range</th><th>Unit</th></tr><tr><td>Protein [Presence] in Urine by Test strip</td></tr></table></div>"
        },
        "status": "final",
        "subject": {
          "reference": "urn:uuid:1e6e5e19-6b66-4cea-9d99-0533589868d9",
          "display": "Victor Lagarde"
        },
        "effectiveDateTime": "2024-10-11T04:48:18Z",
        "specimen": {
          "reference": "urn:uuid:8e455853-ebfa-4363-a203-ed464838eaab"
        }
      }
    },
    {
      "fullUrl": "urn:uuid:adacb944-e5ea-4608-a05e-e3434cd4cc7f",
      "resource": {
        "resourceType": "Observation",
        "id": "adacb944-e5ea-4608-a05e-e3434cd4cc7f",
        "meta": {
          "profile": [
            "http://hl7.eu/fhir/laboratory/StructureDefinition/Observation-resultslab-eu-lab"
          ]
        },
        "performer": [
          {
            "display": "The Central European Lab"
          }
        ],
        "category": [
          {
            "coding": [
              {
                "system": "http://terminology.hl7.org/CodeSystem/observation-category",
                "code": "laboratory"
              }
            ]
          }
        ],
        "code": {
          "coding": [
            {
              "code": "5802-4",
              "system": "http://loinc.org",
              "display": "Nitrite [Presence] in Urine by Test strip"
            }
          ],
          "text": "Nitrite [Presence] in Urine by Test strip"
        },
        "text": {
          "status": "generated",
          "div": "<div xmlns=\"http://www.w3.org/1999/xhtml\"><table class=\"hl7__eu__lab__report\"><tr><th>Test</th><th>11-Oct-2024</th><th>Reference&#xA0;Range</th><th>Unit</th></tr><tr><td>Nitrite [Presence] in Urine by Test strip</td></tr></table></div>"
        },
        "status": "final",
        "subject": {
          "reference": "urn:uuid:1e6e5e19-6b66-4cea-9d99-0533589868d9",
          "display": "Victor Lagarde"
        },
        "effectiveDateTime": "2024-10-11T04:48:18Z",
        "specimen": {
          "reference": "urn:uuid:8e455853-ebfa-4363-a203-ed464838eaab"
        }
      }
    },
    {
      "fullUrl": "urn:uuid:fdb9621c-b239-418e-b779-37dd53aeecbd",
      "resource": {
        "resourceType": "Observation",
        "id": "fdb9621c-b239-418e-b779-37dd53aeecbd",
        "meta": {
          "profile": [
            "http://hl7.eu/fhir/laboratory/StructureDefinition/Observation-resultslab-eu-lab"
          ]
        },
        "performer": [
          {
            "display": "The Central European Lab"
          }
        ],
        "category": [
          {
            "coding": [
              {
                "system": "http://terminology.hl7.org/CodeSystem/observation-category",
                "code": "laboratory"
              }
            ]
          }
        ],
        "code": {
          "coding": [
            {
              "code": "5794-3",
              "system": "http://loinc.org",
              "display": "Hemoglobin [Presence] in Urine by Test strip"
            }
          ],
          "text": "Hemoglobin [Presence] in Urine by Test strip"
        },
        "text": {
          "status": "generated",
          "div": "<div xmlns=\"http://www.w3.org/1999/xhtml\"><table class=\"hl7__eu__lab__report\"><tr><th>Test</th><th>11-Oct-2024</th><th>Reference&#xA0;Range</th><th>Unit</th></tr><tr><td>Hemoglobin [Presence] in Urine by Test strip</td></tr></table></div>"
        },
        "status": "final",
        "subject": {
          "reference": "urn:uuid:1e6e5e19-6b66-4cea-9d99-0533589868d9",
          "display": "Victor Lagarde"
        },
        "effectiveDateTime": "2024-10-11T04:48:18Z",
        "specimen": {
          "reference": "urn:uuid:8e455853-ebfa-4363-a203-ed464838eaab"
        }
      }
    },
    {
      "fullUrl": "urn:uuid:0325f03f-c7fe-46d5-96b7-a33d30e1932f",
      "resource": {
        "resourceType": "Observation",
        "id": "0325f03f-c7fe-46d5-96b7-a33d30e1932f",
        "meta": {
          "profile": [
            "http://hl7.eu/fhir/laboratory/StructureDefinition/Observation-resultslab-eu-lab"
          ]
        },
        "performer": [
          {
            "display": "The Central European Lab"
          }
        ],
        "category": [
          {
            "coding": [
              {
                "system": "http://terminology.hl7.org/CodeSystem/observation-category",
                "code": "laboratory"
              }
            ]
          }
        ],
        "code": {
          "coding": [
            {
              "code": "5799-2",
              "system": "http://loinc.org",
              "display": "Leukocyte esterase [Presence] in Urine by Test strip"
            }
          ],
          "text": "Leukocyte esterase [Presence] in Urine by Test strip"
        },
        "text": {
          "status": "generated",
          "div": "<div xmlns=\"http://www.w3.org/1999/xhtml\"><table class=\"hl7__eu__lab__report\"><tr><th>Test</th><th>11-Oct-2024</th><th>Reference&#xA0;Range</th><th>Unit</th></tr><tr><td>Leukocyte esterase [Presence] in Urine by Test strip</td></tr></table></div>"
        },
        "status": "final",
        "subject": {
          "reference": "urn:uuid:1e6e5e19-6b66-4cea-9d99-0533589868d9",
          "display": "Victor Lagarde"
        },
        "effectiveDateTime": "2024-10-11T04:48:18Z",
        "specimen": {
          "reference": "urn:uuid:8e455853-ebfa-4363-a203-ed464838eaab"
        }
      }
    },
    {
      "fullUrl": "urn:uuid:51c86af9-d4f7-4ef6-b3d6-9783aec9bb34",
      "resource": {
        "resourceType": "Observation",
        "id": "51c86af9-d4f7-4ef6-b3d6-9783aec9bb34",
        "meta": {
          "profile": [
            "http://hl7.eu/fhir/laboratory/StructureDefinition/Observation-resultslab-eu-lab"
          ]
        },
        "performer": [
          {
            "display": "The Central European Lab"
          }
        ],
        "category": [
          {
            "coding": [
              {
                "system": "http://terminology.hl7.org/CodeSystem/observation-category",
                "code": "laboratory"
              }
            ]
          }
        ],
        "code": {
          "coding": [
            {
              "code": "4548-4",
              "system": "http://loinc.org",
              "display": "Hemoglobin A1c/Hemoglobin.total in Blood"
            }
          ],
          "text": "Hemoglobin A1c/Hemoglobin.total in Blood"
        },
        "valueQuantity": {
          "system": "http://unitsofmeasure.org",
          "value": 2.9,
          "unit": "%",
          "code": "%"
        },
        "referenceRange": [
          {
            "low": {
              "value": 4.3,
              "code": "%",
              "system": "http://unitsofmeasure.org"
            }
          },
          {
            "high": {
              "value": 6,
              "code": "%",
              "system": "http://unitsofmeasure.org"
            }
          }
        ],
        "interpretation": [
          {
            "coding": [
              {
                "code": "L",
                "system": "http://terminology.hl7.org/CodeSystem/v3-ObservationInterpretation",
                "display": "Low"
              }
            ]
          }
        ],
        "text": {
          "status": "generated",
          "div": "<div xmlns=\"http://www.w3.org/1999/xhtml\"><table class=\"hl7__eu__lab__report\"><tr><th>Test</th><th>11-Oct-2024</th><th>Reference&#xA0;Range</th><th>Unit</th></tr><tr><td>Hemoglobin A1c/Hemoglobin.total in Blood</td><td>2.9</td><td>4.3 - 6</td><td>L</td><td>%</td></tr></table></div>"
        },
        "status": "final",
        "subject": {
          "reference": "urn:uuid:1e6e5e19-6b66-4cea-9d99-0533589868d9",
          "display": "Victor Lagarde"
        },
        "effectiveDateTime": "2024-10-11T04:48:18Z",
        "specimen": {
          "reference": "urn:uuid:33c730fd-349b-411a-9a97-fa83aeb02f5a"
        }
      }
    },
    {
      "fullUrl": "urn:uuid:b6eedf58-81fa-4de8-8d20-6120b7b5983c",
      "resource": {
        "resourceType": "Observation",
        "id": "b6eedf58-81fa-4de8-8d20-6120b7b5983c",
        "meta": {
          "profile": [
            "http://hl7.eu/fhir/laboratory/StructureDefinition/Observation-resultslab-eu-lab"
          ]
        },
        "performer": [
          {
            "display": "The Central European Lab"
          }
        ],
        "category": [
          {
            "coding": [
              {
                "system": "http://terminology.hl7.org/CodeSystem/observation-category",
                "code": "laboratory"
              }
            ]
          }
        ],
        "code": {
          "coding": [
            {
              "code": "2339-0",
              "system": "http://loinc.org",
              "display": "Glucose [Mass/volume] in Blood"
            }
          ],
          "text": "Glucose [Mass/volume] in Blood"
        },
        "valueQuantity": {
          "system": "http://unitsofmeasure.org",
          "value": 70.2,
          "unit": "mg/dL",
          "code": "mg/dL"
        },
        "referenceRange": [
          {
            "low": {
              "value": 70,
              "code": "mg/dL",
              "system": "http://unitsofmeasure.org"
            }
          },
          {
            "high": {
              "value": 140,
              "code": "mg/dL",
              "system": "http://unitsofmeasure.org"
            }
          }
        ],
        "text": {
          "status": "generated",
          "div": "<div xmlns=\"http://www.w3.org/1999/xhtml\"><table class=\"hl7__eu__lab__report\"><tr><th>Test</th><th>11-Oct-2024</th><th>Reference&#xA0;Range</th><th>Unit</th></tr><tr><td>Glucose [Mass/volume] in Blood</td><td>70.2</td><td>70 - 140</td><td></td><td>mg/dL</td></tr></table></div>"
        },
        "status": "final",
        "subject": {
          "reference": "urn:uuid:1e6e5e19-6b66-4cea-9d99-0533589868d9",
          "display": "Victor Lagarde"
        },
        "effectiveDateTime": "2024-10-11T04:48:18Z",
        "specimen": {
          "reference": "urn:uuid:33c730fd-349b-411a-9a97-fa83aeb02f5a"
        }
      }
    },
    {
      "fullUrl": "urn:uuid:ac3b1442-60e7-406e-81c2-e00d1aa61253",
      "resource": {
        "resourceType": "Observation",
        "id": "ac3b1442-60e7-406e-81c2-e00d1aa61253",
        "meta": {
          "profile": [
            "http://hl7.eu/fhir/laboratory/StructureDefinition/Observation-resultslab-eu-lab"
          ]
        },
        "performer": [
          {
            "display": "The Central European Lab"
          }
        ],
        "category": [
          {
            "coding": [
              {
                "system": "http://terminology.hl7.org/CodeSystem/observation-category",
                "code": "laboratory"
              }
            ]
          }
        ],
        "code": {
          "coding": [
            {
              "code": "6299-2",
              "system": "http://loinc.org",
              "display": "Urea nitrogen [Mass/volume] in Blood"
            }
          ],
          "text": "Urea nitrogen [Mass/volume] in Blood"
        },
        "valueQuantity": {
          "system": "http://unitsofmeasure.org",
          "value": 19.1,
          "unit": "mg/dL",
          "code": "mg/dL"
        },
        "referenceRange": [
          {
            "low": {
              "value": 7,
              "code": "mg/dL",
              "system": "http://unitsofmeasure.org"
            }
          },
          {
            "high": {
              "value": 20,
              "code": "mg/dL",
              "system": "http://unitsofmeasure.org"
            }
          }
        ],
        "text": {
          "status": "generated",
          "div": "<div xmlns=\"http://www.w3.org/1999/xhtml\"><table class=\"hl7__eu__lab__report\"><tr><th>Test</th><th>11-Oct-2024</th><th>Reference&#xA0;Range</th><th>Unit</th></tr><tr><td>Urea nitrogen [Mass/volume] in Blood</td><td>19.1</td><td>7 - 20</td><td></td><td>mg/dL</td></tr></table></div>"
        },
        "status": "final",
        "subject": {
          "reference": "urn:uuid:1e6e5e19-6b66-4cea-9d99-0533589868d9",
          "display": "Victor Lagarde"
        },
        "effectiveDateTime": "2024-10-11T04:48:18Z",
        "specimen": {
          "reference": "urn:uuid:33c730fd-349b-411a-9a97-fa83aeb02f5a"
        }
      }
    },
    {
      "fullUrl": "urn:uuid:0f06f5ba-303d-4a70-8325-736896dac8f4",
      "resource": {
        "resourceType": "Observation",
        "id": "0f06f5ba-303d-4a70-8325-736896dac8f4",
        "meta": {
          "profile": [
            "http://hl7.eu/fhir/laboratory/StructureDefinition/Observation-resultslab-eu-lab"
          ]
        },
        "performer": [
          {
            "display": "The Central European Lab"
          }
        ],
        "category": [
          {
            "coding": [
              {
                "system": "http://terminology.hl7.org/CodeSystem/observation-category",
                "code": "laboratory"
              }
            ]
          }
        ],
        "code": {
          "coding": [
            {
              "code": "38483-4",
              "system": "http://loinc.org",
              "display": "Creatinine [Mass/volume] in Blood"
            }
          ],
          "text": "Creatinine [Mass/volume] in Blood"
        },
        "valueQuantity": {
          "system": "http://unitsofmeasure.org",
          "value": 4,
          "unit": "mg/dL",
          "code": "mg/dL"
        },
        "referenceRange": [
          {
            "low": {
              "value": 0.9,
              "code": "mg/dL",
              "system": "http://unitsofmeasure.org"
            }
          },
          {
            "high": {
              "value": 1.3,
              "code": "mg/dL",
              "system": "http://unitsofmeasure.org"
            }
          }
        ],
        "interpretation": [
          {
            "coding": [
              {
                "code": "H",
                "system": "http://terminology.hl7.org/CodeSystem/v3-ObservationInterpretation",
                "display": "High"
              }
            ]
          }
        ],
        "text": {
          "status": "generated",
          "div": "<div xmlns=\"http://www.w3.org/1999/xhtml\"><table class=\"hl7__eu__lab__report\"><tr><th>Test</th><th>11-Oct-2024</th><th>Reference&#xA0;Range</th><th>Unit</th></tr><tr><td>Creatinine [Mass/volume] in Blood</td><td>4.0</td><td>0.9 - 1.3</td><td>H</td><td>mg/dL</td></tr></table></div>"
        },
        "status": "final",
        "subject": {
          "reference": "urn:uuid:1e6e5e19-6b66-4cea-9d99-0533589868d9",
          "display": "Victor Lagarde"
        },
        "effectiveDateTime": "2024-10-11T04:48:18Z",
        "specimen": {
          "reference": "urn:uuid:33c730fd-349b-411a-9a97-fa83aeb02f5a"
        }
      }
    },
    {
      "fullUrl": "urn:uuid:90ac8bb8-ab2e-46d0-8d05-f01d251237f1",
      "resource": {
        "resourceType": "Observation",
        "id": "90ac8bb8-ab2e-46d0-8d05-f01d251237f1",
        "meta": {
          "profile": [
            "http://hl7.eu/fhir/laboratory/StructureDefinition/Observation-resultslab-eu-lab"
          ]
        },
        "performer": [
          {
            "display": "The Central European Lab"
          }
        ],
        "category": [
          {
            "coding": [
              {
                "system": "http://terminology.hl7.org/CodeSystem/observation-category",
                "code": "laboratory"
              }
            ]
          }
        ],
        "code": {
          "coding": [
            {
              "code": "49765-1",
              "system": "http://loinc.org",
              "display": "Calcium [Mass/volume] in Blood"
            }
          ],
          "text": "Calcium [Mass/volume] in Blood"
        },
        "valueQuantity": {
          "system": "http://unitsofmeasure.org",
          "value": 9.1,
          "unit": "mg/dL",
          "code": "mg/dL"
        },
        "referenceRange": [
          {
            "low": {
              "value": 8.5,
              "code": "mg/dL",
              "system": "http://unitsofmeasure.org"
            }
          },
          {
            "high": {
              "value": 10.5,
              "code": "mg/dL",
              "system": "http://unitsofmeasure.org"
            }
          }
        ],
        "text": {
          "status": "generated",
          "div": "<div xmlns=\"http://www.w3.org/1999/xhtml\"><table class=\"hl7__eu__lab__report\"><tr><th>Test</th><th>11-Oct-2024</th><th>Reference&#xA0;Range</th><th>Unit</th></tr><tr><td>Calcium [Mass/volume] in Blood</td><td>9.1</td><td>8.5 - 10.5</td><td></td><td>mg/dL</td></tr></table></div>"
        },
        "status": "final",
        "subject": {
          "reference": "urn:uuid:1e6e5e19-6b66-4cea-9d99-0533589868d9",
          "display": "Victor Lagarde"
        },
        "effectiveDateTime": "2024-10-11T04:48:18Z",
        "specimen": {
          "reference": "urn:uuid:33c730fd-349b-411a-9a97-fa83aeb02f5a"
        }
      }
    },
    {
      "fullUrl": "urn:uuid:514e950f-c91d-49d6-873e-9879d0678274",
      "resource": {
        "resourceType": "Observation",
        "id": "514e950f-c91d-49d6-873e-9879d0678274",
        "meta": {
          "profile": [
            "http://hl7.eu/fhir/laboratory/StructureDefinition/Observation-resultslab-eu-lab"
          ]
        },
        "performer": [
          {
            "display": "The Central European Lab"
          }
        ],
        "category": [
          {
            "coding": [
              {
                "system": "http://terminology.hl7.org/CodeSystem/observation-category",
                "code": "laboratory"
              }
            ]
          }
        ],
        "code": {
          "coding": [
            {
              "code": "2947-0",
              "system": "http://loinc.org",
              "display": "Sodium [Moles/volume] in Blood"
            }
          ],
          "text": "Sodium [Moles/volume] in Blood"
        },
        "valueQuantity": {
          "system": "http://unitsofmeasure.org",
          "value": 140.7,
          "unit": "mmol/L",
          "code": "mmol/L"
        },
        "referenceRange": [
          {
            "low": {
              "value": 135,
              "code": "mmol/L",
              "system": "http://unitsofmeasure.org"
            }
          },
          {
            "high": {
              "value": 145,
              "code": "mmol/L",
              "system": "http://unitsofmeasure.org"
            }
          }
        ],
        "text": {
          "status": "generated",
          "div": "<div xmlns=\"http://www.w3.org/1999/xhtml\"><table class=\"hl7__eu__lab__report\"><tr><th>Test</th><th>11-Oct-2024</th><th>Reference&#xA0;Range</th><th>Unit</th></tr><tr><td>Sodium [Moles/volume] in Blood</td><td>140.7</td><td>135 - 145</td><td></td><td>mmol/L</td></tr></table></div>"
        },
        "status": "final",
        "subject": {
          "reference": "urn:uuid:1e6e5e19-6b66-4cea-9d99-0533589868d9",
          "display": "Victor Lagarde"
        },
        "effectiveDateTime": "2024-10-11T04:48:18Z",
        "specimen": {
          "reference": "urn:uuid:33c730fd-349b-411a-9a97-fa83aeb02f5a"
        }
      }
    },
    {
      "fullUrl": "urn:uuid:f40ce932-cb5e-4b5f-aefc-26e8484626c7",
      "resource": {
        "resourceType": "Observation",
        "id": "f40ce932-cb5e-4b5f-aefc-26e8484626c7",
        "meta": {
          "profile": [
            "http://hl7.eu/fhir/laboratory/StructureDefinition/Observation-resultslab-eu-lab"
          ]
        },
        "performer": [
          {
            "display": "The Central European Lab"
          }
        ],
        "category": [
          {
            "coding": [
              {
                "system": "http://terminology.hl7.org/CodeSystem/observation-category",
                "code": "laboratory"
              }
            ]
          }
        ],
        "code": {
          "coding": [
            {
              "code": "6298-4",
              "system": "http://loinc.org",
              "display": "Potassium [Moles/volume] in Blood"
            }
          ],
          "text": "Potassium [Moles/volume] in Blood"
        },
        "valueQuantity": {
          "system": "http://unitsofmeasure.org",
          "value": 4.5,
          "unit": "mmol/L",
          "code": "mmol/L"
        },
        "referenceRange": [
          {
            "low": {
              "value": 3.5,
              "code": "mmol/L",
              "system": "http://unitsofmeasure.org"
            }
          },
          {
            "high": {
              "value": 5.1,
              "code": "mmol/L",
              "system": "http://unitsofmeasure.org"
            }
          }
        ],
        "text": {
          "status": "generated",
          "div": "<div xmlns=\"http://www.w3.org/1999/xhtml\"><table class=\"hl7__eu__lab__report\"><tr><th>Test</th><th>11-Oct-2024</th><th>Reference&#xA0;Range</th><th>Unit</th></tr><tr><td>Potassium [Moles/volume] in Blood</td><td>4.5</td><td>3.5 - 5.1</td><td></td><td>mmol/L</td></tr></table></div>"
        },
        "status": "final",
        "subject": {
          "reference": "urn:uuid:1e6e5e19-6b66-4cea-9d99-0533589868d9",
          "display": "Victor Lagarde"
        },
        "effectiveDateTime": "2024-10-11T04:48:18Z",
        "specimen": {
          "reference": "urn:uuid:33c730fd-349b-411a-9a97-fa83aeb02f5a"
        }
      }
    },
    {
      "fullUrl": "urn:uuid:a43f0e4d-bcf1-46a7-ba26-a16c487eea45",
      "resource": {
        "resourceType": "Observation",
        "id": "a43f0e4d-bcf1-46a7-ba26-a16c487eea45",
        "meta": {
          "profile": [
            "http://hl7.eu/fhir/laboratory/StructureDefinition/Observation-resultslab-eu-lab"
          ]
        },
        "performer": [
          {
            "display": "The Central European Lab"
          }
        ],
        "category": [
          {
            "coding": [
              {
                "system": "http://terminology.hl7.org/CodeSystem/observation-category",
                "code": "laboratory"
              }
            ]
          }
        ],
        "code": {
          "coding": [
            {
              "code": "2069-3",
              "system": "http://loinc.org",
              "display": "Chloride [Moles/volume] in Blood"
            }
          ],
          "text": "Chloride [Moles/volume] in Blood"
        },
        "valueQuantity": {
          "system": "http://unitsofmeasure.org",
          "value": 109,
          "unit": "mmol/L",
          "code": "mmol/L"
        },
        "referenceRange": [
          {
            "low": {
              "value": 98,
              "code": "mmol/L",
              "system": "http://unitsofmeasure.org"
            }
          },
          {
            "high": {
              "value": 108,
              "code": "mmol/L",
              "system": "http://unitsofmeasure.org"
            }
          }
        ],
        "interpretation": [
          {
            "coding": [
              {
                "code": "H",
                "system": "http://terminology.hl7.org/CodeSystem/v3-ObservationInterpretation",
                "display": "High"
              }
            ]
          }
        ],
        "text": {
          "status": "generated",
          "div": "<div xmlns=\"http://www.w3.org/1999/xhtml\"><table class=\"hl7__eu__lab__report\"><tr><th>Test</th><th>11-Oct-2024</th><th>Reference&#xA0;Range</th><th>Unit</th></tr><tr><td>Chloride [Moles/volume] in Blood</td><td>109.0</td><td>98 - 108</td><td>H</td><td>mmol/L</td></tr></table></div>"
        },
        "status": "final",
        "subject": {
          "reference": "urn:uuid:1e6e5e19-6b66-4cea-9d99-0533589868d9",
          "display": "Victor Lagarde"
        },
        "effectiveDateTime": "2024-10-11T04:48:18Z",
        "specimen": {
          "reference": "urn:uuid:33c730fd-349b-411a-9a97-fa83aeb02f5a"
        }
      }
    },
    {
      "fullUrl": "urn:uuid:29056b06-8fe4-4402-b436-7da03f422078",
      "resource": {
        "resourceType": "Observation",
        "id": "29056b06-8fe4-4402-b436-7da03f422078",
        "meta": {
          "profile": [
            "http://hl7.eu/fhir/laboratory/StructureDefinition/Observation-resultslab-eu-lab"
          ]
        },
        "performer": [
          {
            "display": "The Central European Lab"
          }
        ],
        "category": [
          {
            "coding": [
              {
                "system": "http://terminology.hl7.org/CodeSystem/observation-category",
                "code": "laboratory"
              }
            ]
          }
        ],
        "code": {
          "coding": [
            {
              "code": "20565-8",
              "system": "http://loinc.org",
              "display": "Carbon dioxide, total [Moles/volume] in Blood"
            }
          ],
          "text": "Carbon dioxide, total [Moles/volume] in Blood"
        },
        "valueQuantity": {
          "system": "http://unitsofmeasure.org",
          "value": 24.8,
          "unit": "mmol/L",
          "code": "mmol/L"
        },
        "referenceRange": [
          {
            "low": {
              "value": 22,
              "code": "mmol/L",
              "system": "http://unitsofmeasure.org"
            }
          },
          {
            "high": {
              "value": 29,
              "code": "mmol/L",
              "system": "http://unitsofmeasure.org"
            }
          }
        ],
        "text": {
          "status": "generated",
          "div": "<div xmlns=\"http://www.w3.org/1999/xhtml\"><table class=\"hl7__eu__lab__report\"><tr><th>Test</th><th>11-Oct-2024</th><th>Reference&#xA0;Range</th><th>Unit</th></tr><tr><td>Carbon dioxide, total [Moles/volume] in Blood</td><td>24.8</td><td>22 - 29</td><td></td><td>mmol/L</td></tr></table></div>"
        },
        "status": "final",
        "subject": {
          "reference": "urn:uuid:1e6e5e19-6b66-4cea-9d99-0533589868d9",
          "display": "Victor Lagarde"
        },
        "effectiveDateTime": "2024-10-11T04:48:18Z",
        "specimen": {
          "reference": "urn:uuid:33c730fd-349b-411a-9a97-fa83aeb02f5a"
        }
      }
    },
    {
      "fullUrl": "urn:uuid:332ef643-7c9f-4f8e-9f8f-39c647f8e4c1",
      "resource": {
        "resourceType": "Device",
        "id": "332ef643-7c9f-4f8e-9f8f-39c647f8e4c1",
        "deviceName": [
          {
            "name": "SYNDERAI Synthetic Generator",
            "type": "manufacturer-name"
          }
        ],
        "version": [
          {
            "value": "5.0"
          }
        ],
        "text": {
          "status": "generated",
          "div": "<div xmlns=\"http://www.w3.org/1999/xhtml\">SYNDERAI Synthetic Generator v5.0</div>"
        },
        "status": "active\"",
        "distinctIdentifier": "synderai-generator-50",
        "manufacturer": "SYNDERAI Project"
      }
    },
    {
      "fullUrl": "urn:uuid:6317d744-6a1e-4ce9-9ef6-a8e529e2e1a7",
      "resource": {
        "resourceType": "Provenance",
        "id": "6317d744-6a1e-4ce9-9ef6-a8e529e2e1a7",
        "target": [
          {
            "reference": "Patient/1e6e5e19-6b66-4cea-9d99-0533589868d9"
          },
          {
            "reference": "Bundle/8c148c7a-54c0-4fb1-844f-5a96fcf1feb0"
          },
          {
            "reference": "Composition/75b392ed-f58a-49d4-82b4-9d33d209dd38"
          },
          {
            "reference": "PractitionerRole/80313672-8fdd-4122-87e2-801421646bbc"
          },
          {
            "reference": "Practitioner/d88a9303-2dad-4a66-9637-33bd8849e92a"
          },
          {
            "reference": "PractitionerRole/28482d0e-6dce-4b0b-a2cf-022b003b0b77"
          },
          {
            "reference": "Organization/2fb8ac6a-8400-4328-b941-b0f67292645c"
          }
        ],
        "activity": {
          "text": "Synthetic Example Data Generation"
        },
        "policy": [
          "https://synderai.net/synderai-synthetic-data-policy"
        ],
        "agent": [
          {
            "type": {
              "text": "author"
            },
            "who": {
              "reference": "Device/332ef643-7c9f-4f8e-9f8f-39c647f8e4c1"
            }
          }
        ],
        "reason": [
          {
            "text": "Interoperability Testing and Training (non-clinical use)"
          }
        ],
        "text": {
          "status": "generated",
          "div": "<div xmlns=\"http://www.w3.org/1999/xhtml\">Provenance for SYNDERAI Synthetic Example Data Resource</div>"
        },
        "recorded": "2024-10-11T06:48:18Z"
      }
    },
    {
      "fullUrl": "urn:uuid:80313672-8fdd-4122-87e2-801421646bbc",
      "resource": {
        "resourceType": "PractitionerRole",
        "id": "80313672-8fdd-4122-87e2-801421646bbc",
        "meta": {
          "profile": [
            "http://hl7.eu/fhir/base/StructureDefinition/practitionerRole-eu"
          ]
        },
        "text": {
          "status": "generated",
          "div": "<div xmlns=\"http://www.w3.org/1999/xhtml\">Laboratory Role Id: 80313672-8fdd-4122-87e2-801421646bbc</div>"
        },
        "practitioner": {
          "reference": "urn:uuid:d88a9303-2dad-4a66-9637-33bd8849e92a"
        }
      }
    },
    {
      "fullUrl": "urn:uuid:d88a9303-2dad-4a66-9637-33bd8849e92a",
      "resource": {
        "resourceType": "Practitioner",
        "id": "d88a9303-2dad-4a66-9637-33bd8849e92a",
        "meta": {
          "profile": [
            "http://hl7.eu/fhir/base/StructureDefinition/practitioner-eu"
          ]
        },
        "identifier": [
          {
            "assigner": {
              "display": "HL7 Europe"
            },
            "system": "urn:oid:2.16.840.1.113883.2.51.999",
            "value": "e15be644-99ea-4405-a7d3-a41078f72ad9"
          }
        ],
        "name": [
          {
            "prefix": [
              "dr"
            ],
            "given": [
              "Ex"
            ],
            "family": "Ample"
          }
        ],
        "address": [
          {
            "line": [
              "Laboratoire Central Européenne",
              "Boulevard du Jardin Botanique 32"
            ],
            "postalCode": "1000",
            "city": "Brussels",
            "country": "Belgium"
          }
        ],
        "text": {
          "status": "generated",
          "div": "<div xmlns=\"http://www.w3.org/1999/xhtml\">Laboratory: Laboratoire Central Européenne, 1000 Brussels, Belgium</div>"
        }
      }
    }
  ],
  "type": "document",
  "timestamp": "2024-10-11T06:48:18Z"
}
