{
  "resourceType": "Bundle",
  "id": "6d87d460-3fa5-4297-9339-917f21bdcec7",
  "meta": {
    "profile": [
      "http://hl7.eu/fhir/laboratory/StructureDefinition/Bundle-eu-lab"
    ]
  },
  "identifier": {
    "assigner": {
      "display": "HL7 Europe"
    },
    "system": "urn:oid:2.16.840.1.113883.2.51.999",
    "value": "8638c12f-94ef-4f2e-ad3e-60145b0c77d9"
  },
  "entry": [
    {
      "fullUrl": "urn:uuid:8c77ed38-3bc5-46f7-968f-e42a9ac9de33",
      "resource": {
        "resourceType": "Composition",
        "id": "8c77ed38-3bc5-46f7-968f-e42a9ac9de33",
        "meta": {
          "profile": [
            "http://hl7.eu/fhir/laboratory/StructureDefinition/Composition-eu-lab"
          ]
        },
        "identifier": {
          "assigner": {
            "display": "HL7 Europe"
          },
          "system": "urn:oid:2.16.840.1.113883.2.51.999",
          "value": "b5f7bd69-a97a-4ff2-952a-967134c0121a"
        },
        "author": [
          {
            "reference": "urn:uuid:1313b1d6-4392-4312-a37a-06a06ada011a"
          }
        ],
        "category": [
          {
            "coding": [
              {
                "code": "26436-6",
                "system": "http://loinc.org",
                "display": "Laboratory studies (set)"
              }
            ]
          }
        ],
        "type": {
          "coding": [
            {
              "code": "11502-2",
              "system": "http://loinc.org",
              "display": "Laboratory report"
            }
          ],
          "text": "Laboratory Report"
        },
        "section": [
          {
            "code": {
              "coding": [
                {
                  "code": "26436-6",
                  "system": "http://loinc.org",
                  "display": "Laboratory studies (set)"
                }
              ],
              "text": "Laboratory studies"
            },
            "section": [
              {
                "code": {
                  "coding": [
                    {
                      "code": "$18723-7",
                      "system": "http://loinc.org",
                      "display": "Hematology studies (set)"
                    }
                  ],
                  "text": "Hematology"
                },
                "entry": [
                  {
                    "reference": "urn:uuid:e38c9729-d920-432f-b30b-582c25156c1f"
                  },
                  {
                    "reference": "urn:uuid:0b0fbf1f-4124-40dc-a872-613c0dcb52e8"
                  },
                  {
                    "reference": "urn:uuid:57ae9af5-7525-48bc-a119-6b1f4d446aef"
                  },
                  {
                    "reference": "urn:uuid:17bc926e-8645-4ae0-8ee8-e8a099ce5e78"
                  },
                  {
                    "reference": "urn:uuid:98110ac5-df22-41d0-b656-189bb7e32751"
                  },
                  {
                    "reference": "urn:uuid:abac46d1-74af-4df0-ac70-f4318424ce90"
                  },
                  {
                    "reference": "urn:uuid:46bd34ee-d507-4679-8509-7ad3803cfd3c"
                  },
                  {
                    "reference": "urn:uuid:1b29df65-293e-4036-bef8-63158448f4d2"
                  },
                  {
                    "reference": "urn:uuid:84e38808-3596-4c91-8a81-5de50d901041"
                  },
                  {
                    "reference": "urn:uuid:3d168ee2-b57b-4307-a089-8f2d391fdaa0"
                  },
                  {
                    "reference": "urn:uuid:a07d07cd-7b37-413d-a65b-7d4a82ff6a37"
                  }
                ],
                "text": {
                  "status": "generated",
                  "div": "<div xmlns=\"http://www.w3.org/1999/xhtml\"><h3>Hematology</h3><table class=\"hl7__eu__lab__report\"><thead><tr><th>Test</th><th>04-APR-2016</th><th>Reference&#xA0;Range</th><th>Unit</th></tr></thead><tbody><tr><td>Leukocytes [#/volume] in Blood by Automated count</td><td>4.0</td><td>3.5 - 10.5</td><td>10*3/uL</td></tr><tr><td>Erythrocytes [#/volume] in Blood by Automated count</td><td>5.4</td><td>4.5 - 5.7</td><td>10*6/uL</td></tr><tr><td>Hemoglobin [Mass/volume] in Blood</td><td>17.3</td><td>13.5 - 17.5</td><td>g/dL</td></tr><tr><td>Hematocrit [Volume Fraction] of Blood by Automated count</td><td><strong>37.9 L</strong></td><td>38 - 50</td><td>%</td></tr><tr><td>MCV [Entitic volume] by Automated count</td><td>81.6</td><td>76 - 98</td><td>fL</td></tr><tr><td>MCH [Entitic mass] by Automated count</td><td>30.3</td><td>27 - 33</td><td>pg</td></tr><tr><td>MCHC [Mass/volume] by Automated count</td><td><strong>35.9 H</strong></td><td>31 - 35</td><td>g/dL</td></tr><tr><td>Erythrocyte distribution width [Entitic volume] by Automated count</td><td>45.5</td><td>36 - 55</td><td>fL</td></tr><tr><td>Platelets [#/volume] in Blood by Automated count</td><td>334.0</td><td>140 - 363</td><td>10*3/uL</td></tr><tr><td>Platelet distribution width [Entitic volume] in Blood by Automated count</td><td><strong>506.0 H</strong></td><td>11.6 - 17.4</td><td>fL</td></tr><tr><td>Platelet mean volume [Entitic volume] in Blood by Automated count</td><td>10.3</td><td>9.8 - 13.8</td><td>fL</td></tr></tbody></table></div>"
                },
                "title": "Hematology"
              },
              {
                "code": {
                  "coding": [
                    {
                      "code": "$18719-5",
                      "system": "http://loinc.org",
                      "display": "Chemistry studies (set)"
                    }
                  ],
                  "text": "Chemistry"
                },
                "entry": [
                  {
                    "reference": "urn:uuid:3b1ddc06-db51-479a-8666-e417b777a1c4"
                  },
                  {
                    "reference": "urn:uuid:1c73d188-898c-403c-85af-3792e55deee9"
                  },
                  {
                    "reference": "urn:uuid:36a096a1-b832-4aa2-a967-20bcf766de25"
                  },
                  {
                    "reference": "urn:uuid:20d6998d-00d9-476f-97ac-b2d9751a6513"
                  },
                  {
                    "reference": "urn:uuid:08441380-44c1-4758-9682-1acea64baf29"
                  },
                  {
                    "reference": "urn:uuid:ba2be6bb-9720-4947-b885-178e2906c2d8"
                  },
                  {
                    "reference": "urn:uuid:196196a0-50cf-4bcb-a217-3aacbad8e145"
                  },
                  {
                    "reference": "urn:uuid:eb677980-3f50-4e05-a0e5-1b1528814a93"
                  },
                  {
                    "reference": "urn:uuid:7f5776ef-2c14-466b-9218-a07e41e45acb"
                  },
                  {
                    "reference": "urn:uuid:5b67d1cb-74f5-4623-85ef-09700eb694d5"
                  },
                  {
                    "reference": "urn:uuid:31a3cf23-fbf3-4e13-8b11-9496473617c5"
                  },
                  {
                    "reference": "urn:uuid:372f5e69-30e6-4efc-9609-da10f5ecda52"
                  },
                  {
                    "reference": "urn:uuid:b2ad1125-f6bd-4246-8851-c4b1abe6df88"
                  },
                  {
                    "reference": "urn:uuid:ba4bdbe2-6d03-487b-bb87-b5c4bee05169"
                  }
                ],
                "text": {
                  "status": "generated",
                  "div": "<div xmlns=\"http://www.w3.org/1999/xhtml\"><h3>Chemistry</h3><table class=\"hl7__eu__lab__report\"><thead><tr><th>Test</th><th>04-APR-2016</th><th>Reference&#xA0;Range</th><th>Unit</th></tr></thead><tbody><tr><td>Hemoglobin A1c/Hemoglobin.total in Blood</td><td><strong>6.9 H</strong></td><td>4.8 - 5.7</td><td>%</td></tr><tr><td>Glucose [Mass/volume] in Blood</td><td><strong>65.4 L</strong></td><td>70 - 140</td><td>mg/dL</td></tr><tr><td>Urea nitrogen [Mass/volume] in Blood</td><td>16.0</td><td>7 - 20</td><td>mg/dL</td></tr><tr><td>Creatinine [Mass/volume] in Blood</td><td>1.0</td><td>0.6 - 1.3</td><td>mg/dL</td></tr><tr><td>Calcium [Mass/volume] in Blood</td><td>10.0</td><td>8.5 - 10.5</td><td>mg/dL</td></tr><tr><td>Sodium [Moles/volume] in Blood</td><td>138.8</td><td>135 - 145</td><td>mmol/L</td></tr><tr><td>Potassium [Moles/volume] in Blood</td><td>4.3</td><td>3.5 - 5.1</td><td>mmol/L</td></tr><tr><td>Chloride [Moles/volume] in Blood</td><td>106.0</td><td>98 - 108</td><td>mmol/L</td></tr><tr><td>Carbon dioxide, total [Moles/volume] in Blood</td><td><strong>20.5 L</strong></td><td>22 - 32</td><td>mmol/L</td></tr><tr><td>Cholesterol [Mass/volume] in Serum or Plasma</td><td>183.0</td><td>125 - 200</td><td>mg/dL</td></tr><tr><td>Triglyceride [Mass/volume] in Serum or Plasma</td><td>133.6</td><td>40 - 150</td><td>mg/dL</td></tr><tr><td>Cholesterol in LDL [Mass/volume] in Serum or Plasma by Direct assay</td><td>92.4</td><td>0 - 190</td><td>mg/dL</td></tr><tr><td>Cholesterol in HDL [Mass/volume] in Serum or Plasma</td><td><strong>63.9 H</strong></td><td>40 - 60</td><td>mg/dL</td></tr><tr><td>Microalbumin/Creatinine [Mass Ratio] in Urine</td><td>4.0</td><td>0 - 30</td><td>mg/g</td></tr></tbody></table></div>"
                },
                "title": "Chemistry"
              }
            ],
            "title": "Laboratory Report"
          },
          {
            "text": {
              "status": "generated",
              "div": "<div xmlns=\"http://www.w3.org/1999/xhtml\"><h3>Annotation</h3><table class=\"hl7__eu__lab__report\"><tr><th>Conclusion and Recommendations based on this report and previous findings known to us</th></tr><tr><td>The patient shows poor long-term glycemic control (elevated HbA1c), mild hypoglycemia, and a slightly low hematocrit. There is also a low total CO₂, which may suggest mild metabolic acidosis. Lipid profile is generally favorable, with high HDL. Platelet distribution width is markedly elevated, which may indicate increased platelet activation or variability. Renal function and other parameters are within normal limits. Clinical correlation is recommended, especially regarding glycemic management and possible causes for the hematological and acid-base findings.</td></tr></table></div>"
            },
            "code": {
              "coding": [
                {
                  "system": "http://loinc.org",
                  "code": "48767-8",
                  "display": "Annotation comment"
                }
              ]
            },
            "title": "Annotation comment"
          }
        ],
        "status": "final",
        "subject": {
          "reference": "urn:uuid:d0a99a8d-43f7-4eb1-acf6-bede1bf6050c",
          "display": "Stephen Weinhage"
        },
        "date": "2016-04-04T08:55:50Z",
        "title": "Laboratory Report",
        "confidentiality": "N"
      }
    },
    {
      "fullUrl": "urn:uuid:cc2076ce-92c5-4a06-a24e-7ddf200c4249",
      "resource": {
        "resourceType": "DiagnosticReport",
        "id": "cc2076ce-92c5-4a06-a24e-7ddf200c4249",
        "meta": {
          "profile": [
            "http://hl7.eu/fhir/laboratory/StructureDefinition/DiagnosticReport-eu-lab"
          ]
        },
        "identifier": [
          {
            "assigner": {
              "display": "HL7 Europe"
            },
            "system": "urn:oid:2.16.840.1.113883.2.51.999",
            "value": "ae602d42-d4c5-419c-8639-4375bf7147b4"
          }
        ],
        "extension": [
          {
            "url": "http://hl7.org/fhir/5.0/StructureDefinition/extension-DiagnosticReport.composition",
            "valueReference": {
              "reference": "urn:uuid:b5f7bd69-a97a-4ff2-952a-967134c0121a"
            }
          }
        ],
        "category": [
          {
            "coding": [
              {
                "code": "26436-6",
                "system": "http://loinc.org",
                "display": "Laboratory studies (set)"
              }
            ]
          }
        ],
        "specimen": [
          {
            "reference": "urn:uuid:bb07c7fd-5ce7-41c6-bfab-22c087931758"
          },
          {
            "reference": "urn:uuid:8fc5c982-6931-48c1-a36d-bcec274dc41f"
          },
          {
            "reference": "urn:uuid:80966046-8da7-4b5d-ab5d-bb2168340907"
          },
          {
            "reference": "urn:uuid:bb07c7fd-5ce7-41c6-bfab-22c087931758"
          }
        ],
        "result": [
          {
            "reference": "urn:uuid:3b1ddc06-db51-479a-8666-e417b777a1c4"
          },
          {
            "reference": "urn:uuid:1c73d188-898c-403c-85af-3792e55deee9"
          },
          {
            "reference": "urn:uuid:36a096a1-b832-4aa2-a967-20bcf766de25"
          },
          {
            "reference": "urn:uuid:20d6998d-00d9-476f-97ac-b2d9751a6513"
          },
          {
            "reference": "urn:uuid:08441380-44c1-4758-9682-1acea64baf29"
          },
          {
            "reference": "urn:uuid:ba2be6bb-9720-4947-b885-178e2906c2d8"
          },
          {
            "reference": "urn:uuid:196196a0-50cf-4bcb-a217-3aacbad8e145"
          },
          {
            "reference": "urn:uuid:eb677980-3f50-4e05-a0e5-1b1528814a93"
          },
          {
            "reference": "urn:uuid:7f5776ef-2c14-466b-9218-a07e41e45acb"
          },
          {
            "reference": "urn:uuid:5b67d1cb-74f5-4623-85ef-09700eb694d5"
          },
          {
            "reference": "urn:uuid:31a3cf23-fbf3-4e13-8b11-9496473617c5"
          },
          {
            "reference": "urn:uuid:372f5e69-30e6-4efc-9609-da10f5ecda52"
          },
          {
            "reference": "urn:uuid:b2ad1125-f6bd-4246-8851-c4b1abe6df88"
          },
          {
            "reference": "urn:uuid:ba4bdbe2-6d03-487b-bb87-b5c4bee05169"
          },
          {
            "reference": "urn:uuid:e38c9729-d920-432f-b30b-582c25156c1f"
          },
          {
            "reference": "urn:uuid:0b0fbf1f-4124-40dc-a872-613c0dcb52e8"
          },
          {
            "reference": "urn:uuid:57ae9af5-7525-48bc-a119-6b1f4d446aef"
          },
          {
            "reference": "urn:uuid:17bc926e-8645-4ae0-8ee8-e8a099ce5e78"
          },
          {
            "reference": "urn:uuid:98110ac5-df22-41d0-b656-189bb7e32751"
          },
          {
            "reference": "urn:uuid:abac46d1-74af-4df0-ac70-f4318424ce90"
          },
          {
            "reference": "urn:uuid:46bd34ee-d507-4679-8509-7ad3803cfd3c"
          },
          {
            "reference": "urn:uuid:1b29df65-293e-4036-bef8-63158448f4d2"
          },
          {
            "reference": "urn:uuid:84e38808-3596-4c91-8a81-5de50d901041"
          },
          {
            "reference": "urn:uuid:3d168ee2-b57b-4307-a089-8f2d391fdaa0"
          },
          {
            "reference": "urn:uuid:a07d07cd-7b37-413d-a65b-7d4a82ff6a37"
          }
        ],
        "status": "registered",
        "code": {
          "coding": [
            {
              "code": "11502-2",
              "system": "http://loinc.org",
              "display": "Laboratory report"
            }
          ]
        },
        "subject": {
          "reference": "urn:uuid:d0a99a8d-43f7-4eb1-acf6-bede1bf6050c",
          "display": "Stephen Weinhage"
        }
      }
    },
    {
      "fullUrl": "urn:uuid:d0a99a8d-43f7-4eb1-acf6-bede1bf6050c",
      "resource": {
        "resourceType": "Patient",
        "id": "d0a99a8d-43f7-4eb1-acf6-bede1bf6050c",
        "meta": {
          "security": [
            {
              "system": "http://terminology.hl7.org/CodeSystem/v3-ActReason",
              "code": "HTEST"
            },
            {
              "system": "http://terminology.hl7.org/CodeSystem/v3-ActReason",
              "code": "TRAIN"
            }
          ],
          "tag": [
            {
              "system": "https://synderai.net/fhir/CodeSystem/tags",
              "code": "synthetic",
              "display": "SYNDERAI Synthetic data"
            }
          ],
          "profile": [
            "http://hl7.eu/fhir/base/StructureDefinition/patient-eu-core"
          ]
        },
        "identifier": [
          {
            "type": {
              "coding": [
                {
                  "code": "PT",
                  "system": "http://terminology.hl7.org/CodeSystem/v2-0203"
                }
              ]
            },
            "system": "http://ec.europa.eu/identifier/eci",
            "value": "6413-101438-9"
          },
          {
            "type": {
              "coding": [
                {
                  "code": "MR",
                  "system": "http://terminology.hl7.org/CodeSystem/v2-0203"
                }
              ]
            },
            "system": "http://local.setting.eu/identifier",
            "value": "24ebd065-2072-c582-96d3-10256a4a5a7d"
          }
        ],
        "name": [
          {
            "family": "Weinhage"
          },
          {
            "given": [
              "Stephen"
            ]
          },
          {
            "text": "Stephen Weinhage"
          }
        ],
        "address": [
          {
            "line": [
              "Bertold-Stahr-Platz 6/3"
            ],
            "use": "home",
            "type": "physical",
            "postalCode": "31535",
            "city": "Neustadt am Rübenberge",
            "country": "Germany"
          }
        ],
        "telecom": [
          {
            "system": "phone",
            "value": "+49(0)5355171263"
          }
        ],
        "extension": [
          {
            "url": "http://hl7.org/fhir/StructureDefinition/patient-nationality",
            "valueCodeableConcept": {
              "coding": [
                {
                  "code": "DE",
                  "system": "http://hl7.org/fhir/ValueSet/country"
                }
              ]
            }
          }
        ],
        "text": {
          "status": "generated",
          "div": "<div xmlns=\"http://www.w3.org/1999/xhtml\"><table class=\"hl7__ips\"><tr><td>Stephen Weinhage</td><td>male</td><td>11-Aug-1950</td></tr></table></div>"
        },
        "gender": "male",
        "birthDate": "1950-08-11"
      }
    },
    {
      "fullUrl": "urn:uuid:6ed200be-5aa2-4c7f-af5c-ce2e8762e252",
      "resource": {
        "resourceType": "ServiceRequest",
        "id": "6ed200be-5aa2-4c7f-af5c-ce2e8762e252",
        "meta": {
          "profile": [
            "http://hl7.eu/fhir/laboratory/StructureDefinition/ServiceRequest-eu-lab"
          ]
        },
        "identifier": [
          {
            "system": "http://example.org",
            "value": "2fb17137-5430-4d25-9c2e-00abeb54a31f"
          }
        ],
        "specimen": [
          {
            "reference": "urn:uuid:bb07c7fd-5ce7-41c6-bfab-22c087931758"
          },
          {
            "reference": "urn:uuid:8fc5c982-6931-48c1-a36d-bcec274dc41f"
          },
          {
            "reference": "urn:uuid:80966046-8da7-4b5d-ab5d-bb2168340907"
          }
        ],
        "reasonCode": [
          {
            "coding": [
              {
                "code": "422034002",
                "system": "http://snomed.info/sct",
                "display": "Retinopathy due to type 2 diabetes mellitus"
              }
            ]
          },
          {
            "coding": [
              {
                "code": "55822004",
                "system": "http://snomed.info/sct",
                "display": "Hyperlipidemia"
              }
            ]
          },
          {
            "coding": [
              {
                "code": "302870006",
                "system": "http://snomed.info/sct",
                "display": "Hypertriglyceridemia"
              }
            ]
          },
          {
            "coding": [
              {
                "code": "44054006",
                "system": "http://snomed.info/sct",
                "display": "Type 2 diabetes mellitus"
              }
            ]
          },
          {
            "coding": [
              {
                "code": "414545008",
                "system": "http://snomed.info/sct",
                "display": "Ischemic heart disease"
              }
            ]
          },
          {
            "coding": [
              {
                "code": "237602007",
                "system": "http://snomed.info/sct",
                "display": "Metabolic syndrome X"
              }
            ]
          },
          {
            "coding": [
              {
                "code": "68496003",
                "system": "http://snomed.info/sct",
                "display": "Polyp of colon"
              }
            ]
          },
          {
            "coding": [
              {
                "code": "59621000",
                "system": "http://snomed.info/sct",
                "display": "Essential hypertension"
              }
            ]
          },
          {
            "coding": [
              {
                "code": "15777000",
                "system": "http://snomed.info/sct",
                "display": "Prediabetes"
              }
            ]
          },
          {
            "coding": [
              {
                "code": "271737000",
                "system": "http://snomed.info/sct",
                "display": "Anemia"
              }
            ]
          },
          {
            "coding": [
              {
                "code": "40055000",
                "system": "http://snomed.info/sct",
                "display": "Chronic sinusitis"
              }
            ]
          }
        ],
        "status": "active",
        "intent": "order",
        "code": {
          "coding": [
            {
              "code": "108252007",
              "system": "http://snomed.info/sct",
              "display": "Laboratory procedure"
            }
          ]
        },
        "subject": {
          "reference": "urn:uuid:d0a99a8d-43f7-4eb1-acf6-bede1bf6050c",
          "display": "Stephen Weinhage"
        },
        "requester": {
          "reference": "urn:uuid:9df6360d-a92f-43ef-becf-31234a2c45e0"
        }
      }
    },
    {
      "fullUrl": "urn:uuid:9df6360d-a92f-43ef-becf-31234a2c45e0",
      "resource": {
        "resourceType": "PractitionerRole",
        "id": "9df6360d-a92f-43ef-becf-31234a2c45e0",
        "meta": {
          "profile": [
            "http://hl7.eu/fhir/base/StructureDefinition/practitionerRole-eu"
          ]
        },
        "text": {
          "status": "generated",
          "div": "<div xmlns=\"http://www.w3.org/1999/xhtml\">Provider Role Id: 9df6360d-a92f-43ef-becf-31234a2c45e0</div>"
        },
        "organization": {
          "reference": "urn:uuid:503a62a9-cc1d-4347-a50d-d0ce4e22a181"
        }
      }
    },
    {
      "fullUrl": "urn:uuid:503a62a9-cc1d-4347-a50d-d0ce4e22a181",
      "resource": {
        "resourceType": "Organization",
        "id": "503a62a9-cc1d-4347-a50d-d0ce4e22a181",
        "meta": {
          "profile": [
            "http://hl7.eu/fhir/base/StructureDefinition/organization-eu"
          ]
        },
        "identifier": [
          {
            "assigner": {
              "display": "HL7 Europe"
            },
            "system": "urn:oid:2.16.840.1.113883.2.51.999",
            "value": "c094bcf5-8a59-44fc-807f-ed9ccd2481ee"
          }
        ],
        "address": [
          {
            "line": [
              "Dudenser Straße 41A"
            ],
            "city": "Neustadt am Rübenberge",
            "postalCode": "31535",
            "country": "Germany"
          }
        ],
        "text": {
          "status": "generated",
          "div": "<div xmlns=\"http://www.w3.org/1999/xhtml\">Provider Organization: Landarztpraxis Dudensen</div>"
        },
        "name": "Landarztpraxis Dudensen"
      }
    },
    {
      "fullUrl": "urn:uuid:bb07c7fd-5ce7-41c6-bfab-22c087931758",
      "resource": {
        "resourceType": "Specimen",
        "id": "bb07c7fd-5ce7-41c6-bfab-22c087931758",
        "meta": {
          "profile": [
            "http://hl7.eu/fhir/laboratory/StructureDefinition/Specimen-eu-lab"
          ]
        },
        "collection": {
          "collectedDateTime": "2016-04-04"
        },
        "text": {
          "status": "generated",
          "div": "<div xmlns=\"http://www.w3.org/1999/xhtml\"><table class=\"hl7__eu__lab__report\"><tr><th>Specimen</th><th>Collection Date</th></tr><tr><td>Whole blood specimen (specimen)</td><td><span class=\"nb\">04-Apr-2016</span></td></tr></table></div>"
        },
        "type": {
          "coding": [
            {
              "code": "258580003",
              "system": "http://snomed.info/sct",
              "display": "Whole blood specimen (specimen)"
            }
          ]
        }
      }
    },
    {
      "fullUrl": "urn:uuid:8fc5c982-6931-48c1-a36d-bcec274dc41f",
      "resource": {
        "resourceType": "Specimen",
        "id": "8fc5c982-6931-48c1-a36d-bcec274dc41f",
        "meta": {
          "profile": [
            "http://hl7.eu/fhir/laboratory/StructureDefinition/Specimen-eu-lab"
          ]
        },
        "collection": {
          "collectedDateTime": "2016-04-04"
        },
        "text": {
          "status": "generated",
          "div": "<div xmlns=\"http://www.w3.org/1999/xhtml\"><table class=\"hl7__eu__lab__report\"><tr><th>Specimen</th><th>Collection Date</th></tr><tr><td>Acellular blood (serum or plasma) specimen</td><td><span class=\"nb\">04-Apr-2016</span></td></tr></table></div>"
        },
        "type": {
          "coding": [
            {
              "code": "122592007",
              "system": "http://snomed.info/sct",
              "display": "Acellular blood (serum or plasma) specimen"
            }
          ]
        }
      }
    },
    {
      "fullUrl": "urn:uuid:80966046-8da7-4b5d-ab5d-bb2168340907",
      "resource": {
        "resourceType": "Specimen",
        "id": "80966046-8da7-4b5d-ab5d-bb2168340907",
        "meta": {
          "profile": [
            "http://hl7.eu/fhir/laboratory/StructureDefinition/Specimen-eu-lab"
          ]
        },
        "collection": {
          "collectedDateTime": "2016-04-04"
        },
        "text": {
          "status": "generated",
          "div": "<div xmlns=\"http://www.w3.org/1999/xhtml\"><table class=\"hl7__eu__lab__report\"><tr><th>Specimen</th><th>Collection Date</th></tr><tr><td>Urine specimen</td><td><span class=\"nb\">04-Apr-2016</span></td></tr></table></div>"
        },
        "type": {
          "coding": [
            {
              "code": "122575003",
              "system": "http://snomed.info/sct",
              "display": "Urine specimen"
            }
          ]
        }
      }
    },
    {
      "fullUrl": "urn:uuid:bb07c7fd-5ce7-41c6-bfab-22c087931758",
      "resource": {
        "resourceType": "Specimen",
        "id": "bb07c7fd-5ce7-41c6-bfab-22c087931758",
        "meta": {
          "profile": [
            "http://hl7.eu/fhir/laboratory/StructureDefinition/Specimen-eu-lab"
          ]
        },
        "collection": {
          "collectedDateTime": "2016-04-04"
        },
        "text": {
          "status": "generated",
          "div": "<div xmlns=\"http://www.w3.org/1999/xhtml\"><table class=\"hl7__eu__lab__report\"><tr><th>Specimen</th><th>Collection Date</th></tr><tr><td>Whole blood specimen (specimen)</td><td><span class=\"nb\">04-Apr-2016</span></td></tr></table></div>"
        },
        "type": {
          "coding": [
            {
              "code": "258580003",
              "system": "http://snomed.info/sct",
              "display": "Whole blood specimen (specimen)"
            }
          ]
        }
      }
    },
    {
      "fullUrl": "urn:uuid:3b1ddc06-db51-479a-8666-e417b777a1c4",
      "resource": {
        "resourceType": "Observation",
        "id": "3b1ddc06-db51-479a-8666-e417b777a1c4",
        "meta": {
          "profile": [
            "http://hl7.eu/fhir/laboratory/StructureDefinition/Observation-resultslab-eu-lab"
          ]
        },
        "performer": [
          {
            "display": "The Central European Lab"
          }
        ],
        "category": [
          {
            "coding": [
              {
                "system": "http://terminology.hl7.org/CodeSystem/observation-category",
                "code": "laboratory"
              }
            ]
          }
        ],
        "code": {
          "coding": [
            {
              "code": "4548-4",
              "system": "http://loinc.org",
              "display": "Hemoglobin A1c/Hemoglobin.total in Blood"
            }
          ],
          "text": "Hemoglobin A1c/Hemoglobin.total in Blood"
        },
        "valueQuantity": {
          "system": "http://unitsofmeasure.org",
          "value": 6.9,
          "unit": "%",
          "code": "%"
        },
        "referenceRange": [
          {
            "low": {
              "value": 4.8,
              "code": "%",
              "system": "http://unitsofmeasure.org"
            }
          },
          {
            "high": {
              "value": 5.7,
              "code": "%",
              "system": "http://unitsofmeasure.org"
            }
          }
        ],
        "interpretation": [
          {
            "coding": [
              {
                "code": "H",
                "system": "http://terminology.hl7.org/CodeSystem/v3-ObservationInterpretation",
                "display": "High"
              }
            ]
          }
        ],
        "text": {
          "status": "generated",
          "div": "<div xmlns=\"http://www.w3.org/1999/xhtml\"><table class=\"hl7__eu__lab__report\"><tr><th>Test</th><th>04-Apr-2016</th><th>Reference&#xA0;Range</th><th>Unit</th></tr><tr><td>Hemoglobin A1c/Hemoglobin.total in Blood</td><td>6.9</td><td>4.8 - 5.7</td><td>H</td><td>%</td></tr></table></div>"
        },
        "status": "final",
        "subject": {
          "reference": "urn:uuid:d0a99a8d-43f7-4eb1-acf6-bede1bf6050c",
          "display": "Stephen Weinhage"
        },
        "effectiveDateTime": "2016-04-04T06:55:50Z",
        "specimen": {
          "reference": "urn:uuid:bb07c7fd-5ce7-41c6-bfab-22c087931758"
        }
      }
    },
    {
      "fullUrl": "urn:uuid:1c73d188-898c-403c-85af-3792e55deee9",
      "resource": {
        "resourceType": "Observation",
        "id": "1c73d188-898c-403c-85af-3792e55deee9",
        "meta": {
          "profile": [
            "http://hl7.eu/fhir/laboratory/StructureDefinition/Observation-resultslab-eu-lab"
          ]
        },
        "performer": [
          {
            "display": "The Central European Lab"
          }
        ],
        "category": [
          {
            "coding": [
              {
                "system": "http://terminology.hl7.org/CodeSystem/observation-category",
                "code": "laboratory"
              }
            ]
          }
        ],
        "code": {
          "coding": [
            {
              "code": "2339-0",
              "system": "http://loinc.org",
              "display": "Glucose [Mass/volume] in Blood"
            }
          ],
          "text": "Glucose [Mass/volume] in Blood"
        },
        "valueQuantity": {
          "system": "http://unitsofmeasure.org",
          "value": 65.4,
          "unit": "mg/dL",
          "code": "mg/dL"
        },
        "referenceRange": [
          {
            "low": {
              "value": 70,
              "code": "mg/dL",
              "system": "http://unitsofmeasure.org"
            }
          },
          {
            "high": {
              "value": 140,
              "code": "mg/dL",
              "system": "http://unitsofmeasure.org"
            }
          }
        ],
        "interpretation": [
          {
            "coding": [
              {
                "code": "L",
                "system": "http://terminology.hl7.org/CodeSystem/v3-ObservationInterpretation",
                "display": "Low"
              }
            ]
          }
        ],
        "text": {
          "status": "generated",
          "div": "<div xmlns=\"http://www.w3.org/1999/xhtml\"><table class=\"hl7__eu__lab__report\"><tr><th>Test</th><th>04-Apr-2016</th><th>Reference&#xA0;Range</th><th>Unit</th></tr><tr><td>Glucose [Mass/volume] in Blood</td><td>65.4</td><td>70 - 140</td><td>L</td><td>mg/dL</td></tr></table></div>"
        },
        "status": "final",
        "subject": {
          "reference": "urn:uuid:d0a99a8d-43f7-4eb1-acf6-bede1bf6050c",
          "display": "Stephen Weinhage"
        },
        "effectiveDateTime": "2016-04-04T06:55:50Z",
        "specimen": {
          "reference": "urn:uuid:bb07c7fd-5ce7-41c6-bfab-22c087931758"
        }
      }
    },
    {
      "fullUrl": "urn:uuid:36a096a1-b832-4aa2-a967-20bcf766de25",
      "resource": {
        "resourceType": "Observation",
        "id": "36a096a1-b832-4aa2-a967-20bcf766de25",
        "meta": {
          "profile": [
            "http://hl7.eu/fhir/laboratory/StructureDefinition/Observation-resultslab-eu-lab"
          ]
        },
        "performer": [
          {
            "display": "The Central European Lab"
          }
        ],
        "category": [
          {
            "coding": [
              {
                "system": "http://terminology.hl7.org/CodeSystem/observation-category",
                "code": "laboratory"
              }
            ]
          }
        ],
        "code": {
          "coding": [
            {
              "code": "6299-2",
              "system": "http://loinc.org",
              "display": "Urea nitrogen [Mass/volume] in Blood"
            }
          ],
          "text": "Urea nitrogen [Mass/volume] in Blood"
        },
        "valueQuantity": {
          "system": "http://unitsofmeasure.org",
          "value": 16,
          "unit": "mg/dL",
          "code": "mg/dL"
        },
        "referenceRange": [
          {
            "low": {
              "value": 7,
              "code": "mg/dL",
              "system": "http://unitsofmeasure.org"
            }
          },
          {
            "high": {
              "value": 20,
              "code": "mg/dL",
              "system": "http://unitsofmeasure.org"
            }
          }
        ],
        "text": {
          "status": "generated",
          "div": "<div xmlns=\"http://www.w3.org/1999/xhtml\"><table class=\"hl7__eu__lab__report\"><tr><th>Test</th><th>04-Apr-2016</th><th>Reference&#xA0;Range</th><th>Unit</th></tr><tr><td>Urea nitrogen [Mass/volume] in Blood</td><td>16.0</td><td>7 - 20</td><td></td><td>mg/dL</td></tr></table></div>"
        },
        "status": "final",
        "subject": {
          "reference": "urn:uuid:d0a99a8d-43f7-4eb1-acf6-bede1bf6050c",
          "display": "Stephen Weinhage"
        },
        "effectiveDateTime": "2016-04-04T06:55:50Z",
        "specimen": {
          "reference": "urn:uuid:bb07c7fd-5ce7-41c6-bfab-22c087931758"
        }
      }
    },
    {
      "fullUrl": "urn:uuid:20d6998d-00d9-476f-97ac-b2d9751a6513",
      "resource": {
        "resourceType": "Observation",
        "id": "20d6998d-00d9-476f-97ac-b2d9751a6513",
        "meta": {
          "profile": [
            "http://hl7.eu/fhir/laboratory/StructureDefinition/Observation-resultslab-eu-lab"
          ]
        },
        "performer": [
          {
            "display": "The Central European Lab"
          }
        ],
        "category": [
          {
            "coding": [
              {
                "system": "http://terminology.hl7.org/CodeSystem/observation-category",
                "code": "laboratory"
              }
            ]
          }
        ],
        "code": {
          "coding": [
            {
              "code": "38483-4",
              "system": "http://loinc.org",
              "display": "Creatinine [Mass/volume] in Blood"
            }
          ],
          "text": "Creatinine [Mass/volume] in Blood"
        },
        "valueQuantity": {
          "system": "http://unitsofmeasure.org",
          "value": 1,
          "unit": "mg/dL",
          "code": "mg/dL"
        },
        "referenceRange": [
          {
            "low": {
              "value": 0.6,
              "code": "mg/dL",
              "system": "http://unitsofmeasure.org"
            }
          },
          {
            "high": {
              "value": 1.3,
              "code": "mg/dL",
              "system": "http://unitsofmeasure.org"
            }
          }
        ],
        "text": {
          "status": "generated",
          "div": "<div xmlns=\"http://www.w3.org/1999/xhtml\"><table class=\"hl7__eu__lab__report\"><tr><th>Test</th><th>04-Apr-2016</th><th>Reference&#xA0;Range</th><th>Unit</th></tr><tr><td>Creatinine [Mass/volume] in Blood</td><td>1.0</td><td>0.6 - 1.3</td><td></td><td>mg/dL</td></tr></table></div>"
        },
        "status": "final",
        "subject": {
          "reference": "urn:uuid:d0a99a8d-43f7-4eb1-acf6-bede1bf6050c",
          "display": "Stephen Weinhage"
        },
        "effectiveDateTime": "2016-04-04T06:55:50Z",
        "specimen": {
          "reference": "urn:uuid:bb07c7fd-5ce7-41c6-bfab-22c087931758"
        }
      }
    },
    {
      "fullUrl": "urn:uuid:08441380-44c1-4758-9682-1acea64baf29",
      "resource": {
        "resourceType": "Observation",
        "id": "08441380-44c1-4758-9682-1acea64baf29",
        "meta": {
          "profile": [
            "http://hl7.eu/fhir/laboratory/StructureDefinition/Observation-resultslab-eu-lab"
          ]
        },
        "performer": [
          {
            "display": "The Central European Lab"
          }
        ],
        "category": [
          {
            "coding": [
              {
                "system": "http://terminology.hl7.org/CodeSystem/observation-category",
                "code": "laboratory"
              }
            ]
          }
        ],
        "code": {
          "coding": [
            {
              "code": "49765-1",
              "system": "http://loinc.org",
              "display": "Calcium [Mass/volume] in Blood"
            }
          ],
          "text": "Calcium [Mass/volume] in Blood"
        },
        "valueQuantity": {
          "system": "http://unitsofmeasure.org",
          "value": 10,
          "unit": "mg/dL",
          "code": "mg/dL"
        },
        "referenceRange": [
          {
            "low": {
              "value": 8.5,
              "code": "mg/dL",
              "system": "http://unitsofmeasure.org"
            }
          },
          {
            "high": {
              "value": 10.5,
              "code": "mg/dL",
              "system": "http://unitsofmeasure.org"
            }
          }
        ],
        "text": {
          "status": "generated",
          "div": "<div xmlns=\"http://www.w3.org/1999/xhtml\"><table class=\"hl7__eu__lab__report\"><tr><th>Test</th><th>04-Apr-2016</th><th>Reference&#xA0;Range</th><th>Unit</th></tr><tr><td>Calcium [Mass/volume] in Blood</td><td>10.0</td><td>8.5 - 10.5</td><td></td><td>mg/dL</td></tr></table></div>"
        },
        "status": "final",
        "subject": {
          "reference": "urn:uuid:d0a99a8d-43f7-4eb1-acf6-bede1bf6050c",
          "display": "Stephen Weinhage"
        },
        "effectiveDateTime": "2016-04-04T06:55:50Z",
        "specimen": {
          "reference": "urn:uuid:bb07c7fd-5ce7-41c6-bfab-22c087931758"
        }
      }
    },
    {
      "fullUrl": "urn:uuid:ba2be6bb-9720-4947-b885-178e2906c2d8",
      "resource": {
        "resourceType": "Observation",
        "id": "ba2be6bb-9720-4947-b885-178e2906c2d8",
        "meta": {
          "profile": [
            "http://hl7.eu/fhir/laboratory/StructureDefinition/Observation-resultslab-eu-lab"
          ]
        },
        "performer": [
          {
            "display": "The Central European Lab"
          }
        ],
        "category": [
          {
            "coding": [
              {
                "system": "http://terminology.hl7.org/CodeSystem/observation-category",
                "code": "laboratory"
              }
            ]
          }
        ],
        "code": {
          "coding": [
            {
              "code": "2947-0",
              "system": "http://loinc.org",
              "display": "Sodium [Moles/volume] in Blood"
            }
          ],
          "text": "Sodium [Moles/volume] in Blood"
        },
        "valueQuantity": {
          "system": "http://unitsofmeasure.org",
          "value": 138.8,
          "unit": "mmol/L",
          "code": "mmol/L"
        },
        "referenceRange": [
          {
            "low": {
              "value": 135,
              "code": "mmol/L",
              "system": "http://unitsofmeasure.org"
            }
          },
          {
            "high": {
              "value": 145,
              "code": "mmol/L",
              "system": "http://unitsofmeasure.org"
            }
          }
        ],
        "text": {
          "status": "generated",
          "div": "<div xmlns=\"http://www.w3.org/1999/xhtml\"><table class=\"hl7__eu__lab__report\"><tr><th>Test</th><th>04-Apr-2016</th><th>Reference&#xA0;Range</th><th>Unit</th></tr><tr><td>Sodium [Moles/volume] in Blood</td><td>138.8</td><td>135 - 145</td><td></td><td>mmol/L</td></tr></table></div>"
        },
        "status": "final",
        "subject": {
          "reference": "urn:uuid:d0a99a8d-43f7-4eb1-acf6-bede1bf6050c",
          "display": "Stephen Weinhage"
        },
        "effectiveDateTime": "2016-04-04T06:55:50Z",
        "specimen": {
          "reference": "urn:uuid:bb07c7fd-5ce7-41c6-bfab-22c087931758"
        }
      }
    },
    {
      "fullUrl": "urn:uuid:196196a0-50cf-4bcb-a217-3aacbad8e145",
      "resource": {
        "resourceType": "Observation",
        "id": "196196a0-50cf-4bcb-a217-3aacbad8e145",
        "meta": {
          "profile": [
            "http://hl7.eu/fhir/laboratory/StructureDefinition/Observation-resultslab-eu-lab"
          ]
        },
        "performer": [
          {
            "display": "The Central European Lab"
          }
        ],
        "category": [
          {
            "coding": [
              {
                "system": "http://terminology.hl7.org/CodeSystem/observation-category",
                "code": "laboratory"
              }
            ]
          }
        ],
        "code": {
          "coding": [
            {
              "code": "6298-4",
              "system": "http://loinc.org",
              "display": "Potassium [Moles/volume] in Blood"
            }
          ],
          "text": "Potassium [Moles/volume] in Blood"
        },
        "valueQuantity": {
          "system": "http://unitsofmeasure.org",
          "value": 4.3,
          "unit": "mmol/L",
          "code": "mmol/L"
        },
        "referenceRange": [
          {
            "low": {
              "value": 3.5,
              "code": "mmol/L",
              "system": "http://unitsofmeasure.org"
            }
          },
          {
            "high": {
              "value": 5.1,
              "code": "mmol/L",
              "system": "http://unitsofmeasure.org"
            }
          }
        ],
        "text": {
          "status": "generated",
          "div": "<div xmlns=\"http://www.w3.org/1999/xhtml\"><table class=\"hl7__eu__lab__report\"><tr><th>Test</th><th>04-Apr-2016</th><th>Reference&#xA0;Range</th><th>Unit</th></tr><tr><td>Potassium [Moles/volume] in Blood</td><td>4.3</td><td>3.5 - 5.1</td><td></td><td>mmol/L</td></tr></table></div>"
        },
        "status": "final",
        "subject": {
          "reference": "urn:uuid:d0a99a8d-43f7-4eb1-acf6-bede1bf6050c",
          "display": "Stephen Weinhage"
        },
        "effectiveDateTime": "2016-04-04T06:55:50Z",
        "specimen": {
          "reference": "urn:uuid:bb07c7fd-5ce7-41c6-bfab-22c087931758"
        }
      }
    },
    {
      "fullUrl": "urn:uuid:eb677980-3f50-4e05-a0e5-1b1528814a93",
      "resource": {
        "resourceType": "Observation",
        "id": "eb677980-3f50-4e05-a0e5-1b1528814a93",
        "meta": {
          "profile": [
            "http://hl7.eu/fhir/laboratory/StructureDefinition/Observation-resultslab-eu-lab"
          ]
        },
        "performer": [
          {
            "display": "The Central European Lab"
          }
        ],
        "category": [
          {
            "coding": [
              {
                "system": "http://terminology.hl7.org/CodeSystem/observation-category",
                "code": "laboratory"
              }
            ]
          }
        ],
        "code": {
          "coding": [
            {
              "code": "2069-3",
              "system": "http://loinc.org",
              "display": "Chloride [Moles/volume] in Blood"
            }
          ],
          "text": "Chloride [Moles/volume] in Blood"
        },
        "valueQuantity": {
          "system": "http://unitsofmeasure.org",
          "value": 106,
          "unit": "mmol/L",
          "code": "mmol/L"
        },
        "referenceRange": [
          {
            "low": {
              "value": 98,
              "code": "mmol/L",
              "system": "http://unitsofmeasure.org"
            }
          },
          {
            "high": {
              "value": 108,
              "code": "mmol/L",
              "system": "http://unitsofmeasure.org"
            }
          }
        ],
        "text": {
          "status": "generated",
          "div": "<div xmlns=\"http://www.w3.org/1999/xhtml\"><table class=\"hl7__eu__lab__report\"><tr><th>Test</th><th>04-Apr-2016</th><th>Reference&#xA0;Range</th><th>Unit</th></tr><tr><td>Chloride [Moles/volume] in Blood</td><td>106.0</td><td>98 - 108</td><td></td><td>mmol/L</td></tr></table></div>"
        },
        "status": "final",
        "subject": {
          "reference": "urn:uuid:d0a99a8d-43f7-4eb1-acf6-bede1bf6050c",
          "display": "Stephen Weinhage"
        },
        "effectiveDateTime": "2016-04-04T06:55:50Z",
        "specimen": {
          "reference": "urn:uuid:bb07c7fd-5ce7-41c6-bfab-22c087931758"
        }
      }
    },
    {
      "fullUrl": "urn:uuid:7f5776ef-2c14-466b-9218-a07e41e45acb",
      "resource": {
        "resourceType": "Observation",
        "id": "7f5776ef-2c14-466b-9218-a07e41e45acb",
        "meta": {
          "profile": [
            "http://hl7.eu/fhir/laboratory/StructureDefinition/Observation-resultslab-eu-lab"
          ]
        },
        "performer": [
          {
            "display": "The Central European Lab"
          }
        ],
        "category": [
          {
            "coding": [
              {
                "system": "http://terminology.hl7.org/CodeSystem/observation-category",
                "code": "laboratory"
              }
            ]
          }
        ],
        "code": {
          "coding": [
            {
              "code": "20565-8",
              "system": "http://loinc.org",
              "display": "Carbon dioxide, total [Moles/volume] in Blood"
            }
          ],
          "text": "Carbon dioxide, total [Moles/volume] in Blood"
        },
        "valueQuantity": {
          "system": "http://unitsofmeasure.org",
          "value": 20.5,
          "unit": "mmol/L",
          "code": "mmol/L"
        },
        "referenceRange": [
          {
            "low": {
              "value": 22,
              "code": "mmol/L",
              "system": "http://unitsofmeasure.org"
            }
          },
          {
            "high": {
              "value": 32,
              "code": "mmol/L",
              "system": "http://unitsofmeasure.org"
            }
          }
        ],
        "interpretation": [
          {
            "coding": [
              {
                "code": "L",
                "system": "http://terminology.hl7.org/CodeSystem/v3-ObservationInterpretation",
                "display": "Low"
              }
            ]
          }
        ],
        "text": {
          "status": "generated",
          "div": "<div xmlns=\"http://www.w3.org/1999/xhtml\"><table class=\"hl7__eu__lab__report\"><tr><th>Test</th><th>04-Apr-2016</th><th>Reference&#xA0;Range</th><th>Unit</th></tr><tr><td>Carbon dioxide, total [Moles/volume] in Blood</td><td>20.5</td><td>22 - 32</td><td>L</td><td>mmol/L</td></tr></table></div>"
        },
        "status": "final",
        "subject": {
          "reference": "urn:uuid:d0a99a8d-43f7-4eb1-acf6-bede1bf6050c",
          "display": "Stephen Weinhage"
        },
        "effectiveDateTime": "2016-04-04T06:55:50Z",
        "specimen": {
          "reference": "urn:uuid:bb07c7fd-5ce7-41c6-bfab-22c087931758"
        }
      }
    },
    {
      "fullUrl": "urn:uuid:5b67d1cb-74f5-4623-85ef-09700eb694d5",
      "resource": {
        "resourceType": "Observation",
        "id": "5b67d1cb-74f5-4623-85ef-09700eb694d5",
        "meta": {
          "profile": [
            "http://hl7.eu/fhir/laboratory/StructureDefinition/Observation-resultslab-eu-lab"
          ]
        },
        "performer": [
          {
            "display": "The Central European Lab"
          }
        ],
        "category": [
          {
            "coding": [
              {
                "system": "http://terminology.hl7.org/CodeSystem/observation-category",
                "code": "laboratory"
              }
            ]
          }
        ],
        "code": {
          "coding": [
            {
              "code": "2093-3",
              "system": "http://loinc.org",
              "display": "Cholesterol [Mass/volume] in Serum or Plasma"
            }
          ],
          "text": "Cholesterol [Mass/volume] in Serum or Plasma"
        },
        "valueQuantity": {
          "system": "http://unitsofmeasure.org",
          "value": 183,
          "unit": "mg/dL",
          "code": "mg/dL"
        },
        "referenceRange": [
          {
            "low": {
              "value": 125,
              "code": "mg/dL",
              "system": "http://unitsofmeasure.org"
            }
          },
          {
            "high": {
              "value": 200,
              "code": "mg/dL",
              "system": "http://unitsofmeasure.org"
            }
          }
        ],
        "text": {
          "status": "generated",
          "div": "<div xmlns=\"http://www.w3.org/1999/xhtml\"><table class=\"hl7__eu__lab__report\"><tr><th>Test</th><th>04-Apr-2016</th><th>Reference&#xA0;Range</th><th>Unit</th></tr><tr><td>Cholesterol [Mass/volume] in Serum or Plasma</td><td>183.0</td><td>125 - 200</td><td></td><td>mg/dL</td></tr></table></div>"
        },
        "status": "final",
        "subject": {
          "reference": "urn:uuid:d0a99a8d-43f7-4eb1-acf6-bede1bf6050c",
          "display": "Stephen Weinhage"
        },
        "effectiveDateTime": "2016-04-04T06:55:50Z",
        "specimen": {
          "reference": "urn:uuid:8fc5c982-6931-48c1-a36d-bcec274dc41f"
        }
      }
    },
    {
      "fullUrl": "urn:uuid:31a3cf23-fbf3-4e13-8b11-9496473617c5",
      "resource": {
        "resourceType": "Observation",
        "id": "31a3cf23-fbf3-4e13-8b11-9496473617c5",
        "meta": {
          "profile": [
            "http://hl7.eu/fhir/laboratory/StructureDefinition/Observation-resultslab-eu-lab"
          ]
        },
        "performer": [
          {
            "display": "The Central European Lab"
          }
        ],
        "category": [
          {
            "coding": [
              {
                "system": "http://terminology.hl7.org/CodeSystem/observation-category",
                "code": "laboratory"
              }
            ]
          }
        ],
        "code": {
          "coding": [
            {
              "code": "2571-8",
              "system": "http://loinc.org",
              "display": "Triglyceride [Mass/volume] in Serum or Plasma"
            }
          ],
          "text": "Triglyceride [Mass/volume] in Serum or Plasma"
        },
        "valueQuantity": {
          "system": "http://unitsofmeasure.org",
          "value": 133.6,
          "unit": "mg/dL",
          "code": "mg/dL"
        },
        "referenceRange": [
          {
            "low": {
              "value": 40,
              "code": "mg/dL",
              "system": "http://unitsofmeasure.org"
            }
          },
          {
            "high": {
              "value": 150,
              "code": "mg/dL",
              "system": "http://unitsofmeasure.org"
            }
          }
        ],
        "text": {
          "status": "generated",
          "div": "<div xmlns=\"http://www.w3.org/1999/xhtml\"><table class=\"hl7__eu__lab__report\"><tr><th>Test</th><th>04-Apr-2016</th><th>Reference&#xA0;Range</th><th>Unit</th></tr><tr><td>Triglyceride [Mass/volume] in Serum or Plasma</td><td>133.6</td><td>40 - 150</td><td></td><td>mg/dL</td></tr></table></div>"
        },
        "status": "final",
        "subject": {
          "reference": "urn:uuid:d0a99a8d-43f7-4eb1-acf6-bede1bf6050c",
          "display": "Stephen Weinhage"
        },
        "effectiveDateTime": "2016-04-04T06:55:50Z",
        "specimen": {
          "reference": "urn:uuid:8fc5c982-6931-48c1-a36d-bcec274dc41f"
        }
      }
    },
    {
      "fullUrl": "urn:uuid:372f5e69-30e6-4efc-9609-da10f5ecda52",
      "resource": {
        "resourceType": "Observation",
        "id": "372f5e69-30e6-4efc-9609-da10f5ecda52",
        "meta": {
          "profile": [
            "http://hl7.eu/fhir/laboratory/StructureDefinition/Observation-resultslab-eu-lab"
          ]
        },
        "performer": [
          {
            "display": "The Central European Lab"
          }
        ],
        "category": [
          {
            "coding": [
              {
                "system": "http://terminology.hl7.org/CodeSystem/observation-category",
                "code": "laboratory"
              }
            ]
          }
        ],
        "code": {
          "coding": [
            {
              "code": "18262-6",
              "system": "http://loinc.org",
              "display": "Cholesterol in LDL [Mass/volume] in Serum or Plasma by Direct assay"
            }
          ],
          "text": "Cholesterol in LDL [Mass/volume] in Serum or Plasma by Direct assay"
        },
        "valueQuantity": {
          "system": "http://unitsofmeasure.org",
          "value": 92.4,
          "unit": "mg/dL",
          "code": "mg/dL"
        },
        "referenceRange": [
          {
            "low": {
              "value": 0,
              "code": "mg/dL",
              "system": "http://unitsofmeasure.org"
            }
          },
          {
            "high": {
              "value": 190,
              "code": "mg/dL",
              "system": "http://unitsofmeasure.org"
            }
          }
        ],
        "text": {
          "status": "generated",
          "div": "<div xmlns=\"http://www.w3.org/1999/xhtml\"><table class=\"hl7__eu__lab__report\"><tr><th>Test</th><th>04-Apr-2016</th><th>Reference&#xA0;Range</th><th>Unit</th></tr><tr><td>Cholesterol in LDL [Mass/volume] in Serum or Plasma by Direct assay</td><td>92.4</td><td>0 - 190</td><td></td><td>mg/dL</td></tr></table></div>"
        },
        "status": "final",
        "subject": {
          "reference": "urn:uuid:d0a99a8d-43f7-4eb1-acf6-bede1bf6050c",
          "display": "Stephen Weinhage"
        },
        "effectiveDateTime": "2016-04-04T06:55:50Z",
        "specimen": {
          "reference": "urn:uuid:8fc5c982-6931-48c1-a36d-bcec274dc41f"
        }
      }
    },
    {
      "fullUrl": "urn:uuid:b2ad1125-f6bd-4246-8851-c4b1abe6df88",
      "resource": {
        "resourceType": "Observation",
        "id": "b2ad1125-f6bd-4246-8851-c4b1abe6df88",
        "meta": {
          "profile": [
            "http://hl7.eu/fhir/laboratory/StructureDefinition/Observation-resultslab-eu-lab"
          ]
        },
        "performer": [
          {
            "display": "The Central European Lab"
          }
        ],
        "category": [
          {
            "coding": [
              {
                "system": "http://terminology.hl7.org/CodeSystem/observation-category",
                "code": "laboratory"
              }
            ]
          }
        ],
        "code": {
          "coding": [
            {
              "code": "2085-9",
              "system": "http://loinc.org",
              "display": "Cholesterol in HDL [Mass/volume] in Serum or Plasma"
            }
          ],
          "text": "Cholesterol in HDL [Mass/volume] in Serum or Plasma"
        },
        "valueQuantity": {
          "system": "http://unitsofmeasure.org",
          "value": 63.9,
          "unit": "mg/dL",
          "code": "mg/dL"
        },
        "referenceRange": [
          {
            "low": {
              "value": 40,
              "code": "mg/dL",
              "system": "http://unitsofmeasure.org"
            }
          },
          {
            "high": {
              "value": 60,
              "code": "mg/dL",
              "system": "http://unitsofmeasure.org"
            }
          }
        ],
        "interpretation": [
          {
            "coding": [
              {
                "code": "H",
                "system": "http://terminology.hl7.org/CodeSystem/v3-ObservationInterpretation",
                "display": "High"
              }
            ]
          }
        ],
        "text": {
          "status": "generated",
          "div": "<div xmlns=\"http://www.w3.org/1999/xhtml\"><table class=\"hl7__eu__lab__report\"><tr><th>Test</th><th>04-Apr-2016</th><th>Reference&#xA0;Range</th><th>Unit</th></tr><tr><td>Cholesterol in HDL [Mass/volume] in Serum or Plasma</td><td>63.9</td><td>40 - 60</td><td>H</td><td>mg/dL</td></tr></table></div>"
        },
        "status": "final",
        "subject": {
          "reference": "urn:uuid:d0a99a8d-43f7-4eb1-acf6-bede1bf6050c",
          "display": "Stephen Weinhage"
        },
        "effectiveDateTime": "2016-04-04T06:55:50Z",
        "specimen": {
          "reference": "urn:uuid:8fc5c982-6931-48c1-a36d-bcec274dc41f"
        }
      }
    },
    {
      "fullUrl": "urn:uuid:ba4bdbe2-6d03-487b-bb87-b5c4bee05169",
      "resource": {
        "resourceType": "Observation",
        "id": "ba4bdbe2-6d03-487b-bb87-b5c4bee05169",
        "meta": {
          "profile": [
            "http://hl7.eu/fhir/laboratory/StructureDefinition/Observation-resultslab-eu-lab"
          ]
        },
        "performer": [
          {
            "display": "The Central European Lab"
          }
        ],
        "category": [
          {
            "coding": [
              {
                "system": "http://terminology.hl7.org/CodeSystem/observation-category",
                "code": "laboratory"
              }
            ]
          }
        ],
        "code": {
          "coding": [
            {
              "code": "14959-1",
              "system": "http://loinc.org",
              "display": "Microalbumin/Creatinine [Mass Ratio] in Urine"
            }
          ],
          "text": "Microalbumin/Creatinine [Mass Ratio] in Urine"
        },
        "valueQuantity": {
          "system": "http://unitsofmeasure.org",
          "value": 4,
          "unit": "mg/g",
          "code": "mg/g"
        },
        "referenceRange": [
          {
            "low": {
              "value": 0,
              "code": "mg/g",
              "system": "http://unitsofmeasure.org"
            }
          },
          {
            "high": {
              "value": 30,
              "code": "mg/g",
              "system": "http://unitsofmeasure.org"
            }
          }
        ],
        "text": {
          "status": "generated",
          "div": "<div xmlns=\"http://www.w3.org/1999/xhtml\"><table class=\"hl7__eu__lab__report\"><tr><th>Test</th><th>04-Apr-2016</th><th>Reference&#xA0;Range</th><th>Unit</th></tr><tr><td>Microalbumin/Creatinine [Mass Ratio] in Urine</td><td>4.0</td><td>0 - 30</td><td></td><td>mg/g</td></tr></table></div>"
        },
        "status": "final",
        "subject": {
          "reference": "urn:uuid:d0a99a8d-43f7-4eb1-acf6-bede1bf6050c",
          "display": "Stephen Weinhage"
        },
        "effectiveDateTime": "2016-04-04T06:55:50Z",
        "specimen": {
          "reference": "urn:uuid:80966046-8da7-4b5d-ab5d-bb2168340907"
        }
      }
    },
    {
      "fullUrl": "urn:uuid:e38c9729-d920-432f-b30b-582c25156c1f",
      "resource": {
        "resourceType": "Observation",
        "id": "e38c9729-d920-432f-b30b-582c25156c1f",
        "meta": {
          "profile": [
            "http://hl7.eu/fhir/laboratory/StructureDefinition/Observation-resultslab-eu-lab"
          ]
        },
        "performer": [
          {
            "display": "The Central European Lab"
          }
        ],
        "category": [
          {
            "coding": [
              {
                "system": "http://terminology.hl7.org/CodeSystem/observation-category",
                "code": "laboratory"
              }
            ]
          }
        ],
        "code": {
          "coding": [
            {
              "code": "6690-2",
              "system": "http://loinc.org",
              "display": "Leukocytes [#/volume] in Blood by Automated count"
            }
          ],
          "text": "Leukocytes [#/volume] in Blood by Automated count"
        },
        "valueQuantity": {
          "system": "http://unitsofmeasure.org",
          "value": 4,
          "unit": "10*3/uL",
          "code": "10*3/uL"
        },
        "referenceRange": [
          {
            "low": {
              "value": 3.5,
              "code": "10*3/uL",
              "system": "http://unitsofmeasure.org"
            }
          },
          {
            "high": {
              "value": 10.5,
              "code": "10*3/uL",
              "system": "http://unitsofmeasure.org"
            }
          }
        ],
        "text": {
          "status": "generated",
          "div": "<div xmlns=\"http://www.w3.org/1999/xhtml\"><table class=\"hl7__eu__lab__report\"><tr><th>Test</th><th>04-Apr-2016</th><th>Reference&#xA0;Range</th><th>Unit</th></tr><tr><td>Leukocytes [#/volume] in Blood by Automated count</td><td>4.0</td><td>3.5 - 10.5</td><td></td><td>10*3/uL</td></tr></table></div>"
        },
        "status": "final",
        "subject": {
          "reference": "urn:uuid:d0a99a8d-43f7-4eb1-acf6-bede1bf6050c",
          "display": "Stephen Weinhage"
        },
        "effectiveDateTime": "2016-04-04T06:55:50Z",
        "specimen": {
          "reference": "urn:uuid:bb07c7fd-5ce7-41c6-bfab-22c087931758"
        }
      }
    },
    {
      "fullUrl": "urn:uuid:0b0fbf1f-4124-40dc-a872-613c0dcb52e8",
      "resource": {
        "resourceType": "Observation",
        "id": "0b0fbf1f-4124-40dc-a872-613c0dcb52e8",
        "meta": {
          "profile": [
            "http://hl7.eu/fhir/laboratory/StructureDefinition/Observation-resultslab-eu-lab"
          ]
        },
        "performer": [
          {
            "display": "The Central European Lab"
          }
        ],
        "category": [
          {
            "coding": [
              {
                "system": "http://terminology.hl7.org/CodeSystem/observation-category",
                "code": "laboratory"
              }
            ]
          }
        ],
        "code": {
          "coding": [
            {
              "code": "789-8",
              "system": "http://loinc.org",
              "display": "Erythrocytes [#/volume] in Blood by Automated count"
            }
          ],
          "text": "Erythrocytes [#/volume] in Blood by Automated count"
        },
        "valueQuantity": {
          "system": "http://unitsofmeasure.org",
          "value": 5.4,
          "unit": "10*6/uL",
          "code": "10*6/uL"
        },
        "referenceRange": [
          {
            "low": {
              "value": 4.5,
              "code": "10*6/uL",
              "system": "http://unitsofmeasure.org"
            }
          },
          {
            "high": {
              "value": 5.7,
              "code": "10*6/uL",
              "system": "http://unitsofmeasure.org"
            }
          }
        ],
        "text": {
          "status": "generated",
          "div": "<div xmlns=\"http://www.w3.org/1999/xhtml\"><table class=\"hl7__eu__lab__report\"><tr><th>Test</th><th>04-Apr-2016</th><th>Reference&#xA0;Range</th><th>Unit</th></tr><tr><td>Erythrocytes [#/volume] in Blood by Automated count</td><td>5.4</td><td>4.5 - 5.7</td><td></td><td>10*6/uL</td></tr></table></div>"
        },
        "status": "final",
        "subject": {
          "reference": "urn:uuid:d0a99a8d-43f7-4eb1-acf6-bede1bf6050c",
          "display": "Stephen Weinhage"
        },
        "effectiveDateTime": "2016-04-04T06:55:50Z",
        "specimen": {
          "reference": "urn:uuid:bb07c7fd-5ce7-41c6-bfab-22c087931758"
        }
      }
    },
    {
      "fullUrl": "urn:uuid:57ae9af5-7525-48bc-a119-6b1f4d446aef",
      "resource": {
        "resourceType": "Observation",
        "id": "57ae9af5-7525-48bc-a119-6b1f4d446aef",
        "meta": {
          "profile": [
            "http://hl7.eu/fhir/laboratory/StructureDefinition/Observation-resultslab-eu-lab"
          ]
        },
        "performer": [
          {
            "display": "The Central European Lab"
          }
        ],
        "category": [
          {
            "coding": [
              {
                "system": "http://terminology.hl7.org/CodeSystem/observation-category",
                "code": "laboratory"
              }
            ]
          }
        ],
        "code": {
          "coding": [
            {
              "code": "718-7",
              "system": "http://loinc.org",
              "display": "Hemoglobin [Mass/volume] in Blood"
            }
          ],
          "text": "Hemoglobin [Mass/volume] in Blood"
        },
        "valueQuantity": {
          "system": "http://unitsofmeasure.org",
          "value": 17.3,
          "unit": "g/dL",
          "code": "g/dL"
        },
        "referenceRange": [
          {
            "low": {
              "value": 13.5,
              "code": "g/dL",
              "system": "http://unitsofmeasure.org"
            }
          },
          {
            "high": {
              "value": 17.5,
              "code": "g/dL",
              "system": "http://unitsofmeasure.org"
            }
          }
        ],
        "text": {
          "status": "generated",
          "div": "<div xmlns=\"http://www.w3.org/1999/xhtml\"><table class=\"hl7__eu__lab__report\"><tr><th>Test</th><th>04-Apr-2016</th><th>Reference&#xA0;Range</th><th>Unit</th></tr><tr><td>Hemoglobin [Mass/volume] in Blood</td><td>17.3</td><td>13.5 - 17.5</td><td></td><td>g/dL</td></tr></table></div>"
        },
        "status": "final",
        "subject": {
          "reference": "urn:uuid:d0a99a8d-43f7-4eb1-acf6-bede1bf6050c",
          "display": "Stephen Weinhage"
        },
        "effectiveDateTime": "2016-04-04T06:55:50Z",
        "specimen": {
          "reference": "urn:uuid:bb07c7fd-5ce7-41c6-bfab-22c087931758"
        }
      }
    },
    {
      "fullUrl": "urn:uuid:17bc926e-8645-4ae0-8ee8-e8a099ce5e78",
      "resource": {
        "resourceType": "Observation",
        "id": "17bc926e-8645-4ae0-8ee8-e8a099ce5e78",
        "meta": {
          "profile": [
            "http://hl7.eu/fhir/laboratory/StructureDefinition/Observation-resultslab-eu-lab"
          ]
        },
        "performer": [
          {
            "display": "The Central European Lab"
          }
        ],
        "category": [
          {
            "coding": [
              {
                "system": "http://terminology.hl7.org/CodeSystem/observation-category",
                "code": "laboratory"
              }
            ]
          }
        ],
        "code": {
          "coding": [
            {
              "code": "4544-3",
              "system": "http://loinc.org",
              "display": "Hematocrit [Volume Fraction] of Blood by Automated count"
            }
          ],
          "text": "Hematocrit [Volume Fraction] of Blood by Automated count"
        },
        "valueQuantity": {
          "system": "http://unitsofmeasure.org",
          "value": 37.9,
          "unit": "%",
          "code": "%"
        },
        "referenceRange": [
          {
            "low": {
              "value": 38,
              "code": "%",
              "system": "http://unitsofmeasure.org"
            }
          },
          {
            "high": {
              "value": 50,
              "code": "%",
              "system": "http://unitsofmeasure.org"
            }
          }
        ],
        "interpretation": [
          {
            "coding": [
              {
                "code": "L",
                "system": "http://terminology.hl7.org/CodeSystem/v3-ObservationInterpretation",
                "display": "Low"
              }
            ]
          }
        ],
        "text": {
          "status": "generated",
          "div": "<div xmlns=\"http://www.w3.org/1999/xhtml\"><table class=\"hl7__eu__lab__report\"><tr><th>Test</th><th>04-Apr-2016</th><th>Reference&#xA0;Range</th><th>Unit</th></tr><tr><td>Hematocrit [Volume Fraction] of Blood by Automated count</td><td>37.9</td><td>38 - 50</td><td>L</td><td>%</td></tr></table></div>"
        },
        "status": "final",
        "subject": {
          "reference": "urn:uuid:d0a99a8d-43f7-4eb1-acf6-bede1bf6050c",
          "display": "Stephen Weinhage"
        },
        "effectiveDateTime": "2016-04-04T06:55:50Z",
        "specimen": {
          "reference": "urn:uuid:bb07c7fd-5ce7-41c6-bfab-22c087931758"
        }
      }
    },
    {
      "fullUrl": "urn:uuid:98110ac5-df22-41d0-b656-189bb7e32751",
      "resource": {
        "resourceType": "Observation",
        "id": "98110ac5-df22-41d0-b656-189bb7e32751",
        "meta": {
          "profile": [
            "http://hl7.eu/fhir/laboratory/StructureDefinition/Observation-resultslab-eu-lab"
          ]
        },
        "performer": [
          {
            "display": "The Central European Lab"
          }
        ],
        "category": [
          {
            "coding": [
              {
                "system": "http://terminology.hl7.org/CodeSystem/observation-category",
                "code": "laboratory"
              }
            ]
          }
        ],
        "code": {
          "coding": [
            {
              "code": "787-2",
              "system": "http://loinc.org",
              "display": "MCV [Entitic volume] by Automated count"
            }
          ],
          "text": "MCV [Entitic volume] by Automated count"
        },
        "valueQuantity": {
          "system": "http://unitsofmeasure.org",
          "value": 81.6,
          "unit": "fL",
          "code": "fL"
        },
        "referenceRange": [
          {
            "low": {
              "value": 76,
              "code": "fL",
              "system": "http://unitsofmeasure.org"
            }
          },
          {
            "high": {
              "value": 98,
              "code": "fL",
              "system": "http://unitsofmeasure.org"
            }
          }
        ],
        "text": {
          "status": "generated",
          "div": "<div xmlns=\"http://www.w3.org/1999/xhtml\"><table class=\"hl7__eu__lab__report\"><tr><th>Test</th><th>04-Apr-2016</th><th>Reference&#xA0;Range</th><th>Unit</th></tr><tr><td>MCV [Entitic volume] by Automated count</td><td>81.6</td><td>76 - 98</td><td></td><td>fL</td></tr></table></div>"
        },
        "status": "final",
        "subject": {
          "reference": "urn:uuid:d0a99a8d-43f7-4eb1-acf6-bede1bf6050c",
          "display": "Stephen Weinhage"
        },
        "effectiveDateTime": "2016-04-04T06:55:50Z",
        "specimen": {
          "reference": "urn:uuid:bb07c7fd-5ce7-41c6-bfab-22c087931758"
        }
      }
    },
    {
      "fullUrl": "urn:uuid:abac46d1-74af-4df0-ac70-f4318424ce90",
      "resource": {
        "resourceType": "Observation",
        "id": "abac46d1-74af-4df0-ac70-f4318424ce90",
        "meta": {
          "profile": [
            "http://hl7.eu/fhir/laboratory/StructureDefinition/Observation-resultslab-eu-lab"
          ]
        },
        "performer": [
          {
            "display": "The Central European Lab"
          }
        ],
        "category": [
          {
            "coding": [
              {
                "system": "http://terminology.hl7.org/CodeSystem/observation-category",
                "code": "laboratory"
              }
            ]
          }
        ],
        "code": {
          "coding": [
            {
              "code": "785-6",
              "system": "http://loinc.org",
              "display": "MCH [Entitic mass] by Automated count"
            }
          ],
          "text": "MCH [Entitic mass] by Automated count"
        },
        "valueQuantity": {
          "system": "http://unitsofmeasure.org",
          "value": 30.3,
          "unit": "pg",
          "code": "pg"
        },
        "referenceRange": [
          {
            "low": {
              "value": 27,
              "code": "pg",
              "system": "http://unitsofmeasure.org"
            }
          },
          {
            "high": {
              "value": 33,
              "code": "pg",
              "system": "http://unitsofmeasure.org"
            }
          }
        ],
        "text": {
          "status": "generated",
          "div": "<div xmlns=\"http://www.w3.org/1999/xhtml\"><table class=\"hl7__eu__lab__report\"><tr><th>Test</th><th>04-Apr-2016</th><th>Reference&#xA0;Range</th><th>Unit</th></tr><tr><td>MCH [Entitic mass] by Automated count</td><td>30.3</td><td>27 - 33</td><td></td><td>pg</td></tr></table></div>"
        },
        "status": "final",
        "subject": {
          "reference": "urn:uuid:d0a99a8d-43f7-4eb1-acf6-bede1bf6050c",
          "display": "Stephen Weinhage"
        },
        "effectiveDateTime": "2016-04-04T06:55:50Z",
        "specimen": {
          "reference": "urn:uuid:bb07c7fd-5ce7-41c6-bfab-22c087931758"
        }
      }
    },
    {
      "fullUrl": "urn:uuid:46bd34ee-d507-4679-8509-7ad3803cfd3c",
      "resource": {
        "resourceType": "Observation",
        "id": "46bd34ee-d507-4679-8509-7ad3803cfd3c",
        "meta": {
          "profile": [
            "http://hl7.eu/fhir/laboratory/StructureDefinition/Observation-resultslab-eu-lab"
          ]
        },
        "performer": [
          {
            "display": "The Central European Lab"
          }
        ],
        "category": [
          {
            "coding": [
              {
                "system": "http://terminology.hl7.org/CodeSystem/observation-category",
                "code": "laboratory"
              }
            ]
          }
        ],
        "code": {
          "coding": [
            {
              "code": "786-4",
              "system": "http://loinc.org",
              "display": "MCHC [Mass/volume] by Automated count"
            }
          ],
          "text": "MCHC [Mass/volume] by Automated count"
        },
        "valueQuantity": {
          "system": "http://unitsofmeasure.org",
          "value": 35.9,
          "unit": "g/dL",
          "code": "g/dL"
        },
        "referenceRange": [
          {
            "low": {
              "value": 31,
              "code": "g/dL",
              "system": "http://unitsofmeasure.org"
            }
          },
          {
            "high": {
              "value": 35,
              "code": "g/dL",
              "system": "http://unitsofmeasure.org"
            }
          }
        ],
        "interpretation": [
          {
            "coding": [
              {
                "code": "H",
                "system": "http://terminology.hl7.org/CodeSystem/v3-ObservationInterpretation",
                "display": "High"
              }
            ]
          }
        ],
        "text": {
          "status": "generated",
          "div": "<div xmlns=\"http://www.w3.org/1999/xhtml\"><table class=\"hl7__eu__lab__report\"><tr><th>Test</th><th>04-Apr-2016</th><th>Reference&#xA0;Range</th><th>Unit</th></tr><tr><td>MCHC [Mass/volume] by Automated count</td><td>35.9</td><td>31 - 35</td><td>H</td><td>g/dL</td></tr></table></div>"
        },
        "status": "final",
        "subject": {
          "reference": "urn:uuid:d0a99a8d-43f7-4eb1-acf6-bede1bf6050c",
          "display": "Stephen Weinhage"
        },
        "effectiveDateTime": "2016-04-04T06:55:50Z",
        "specimen": {
          "reference": "urn:uuid:bb07c7fd-5ce7-41c6-bfab-22c087931758"
        }
      }
    },
    {
      "fullUrl": "urn:uuid:1b29df65-293e-4036-bef8-63158448f4d2",
      "resource": {
        "resourceType": "Observation",
        "id": "1b29df65-293e-4036-bef8-63158448f4d2",
        "meta": {
          "profile": [
            "http://hl7.eu/fhir/laboratory/StructureDefinition/Observation-resultslab-eu-lab"
          ]
        },
        "performer": [
          {
            "display": "The Central European Lab"
          }
        ],
        "category": [
          {
            "coding": [
              {
                "system": "http://terminology.hl7.org/CodeSystem/observation-category",
                "code": "laboratory"
              }
            ]
          }
        ],
        "code": {
          "coding": [
            {
              "code": "21000-5",
              "system": "http://loinc.org",
              "display": "Erythrocyte distribution width [Entitic volume] by Automated count"
            }
          ],
          "text": "Erythrocyte distribution width [Entitic volume] by Automated count"
        },
        "valueQuantity": {
          "system": "http://unitsofmeasure.org",
          "value": 45.5,
          "unit": "fL",
          "code": "fL"
        },
        "referenceRange": [
          {
            "low": {
              "value": 36,
              "code": "fL",
              "system": "http://unitsofmeasure.org"
            }
          },
          {
            "high": {
              "value": 55,
              "code": "fL",
              "system": "http://unitsofmeasure.org"
            }
          }
        ],
        "text": {
          "status": "generated",
          "div": "<div xmlns=\"http://www.w3.org/1999/xhtml\"><table class=\"hl7__eu__lab__report\"><tr><th>Test</th><th>04-Apr-2016</th><th>Reference&#xA0;Range</th><th>Unit</th></tr><tr><td>Erythrocyte distribution width [Entitic volume] by Automated count</td><td>45.5</td><td>36 - 55</td><td></td><td>fL</td></tr></table></div>"
        },
        "status": "final",
        "subject": {
          "reference": "urn:uuid:d0a99a8d-43f7-4eb1-acf6-bede1bf6050c",
          "display": "Stephen Weinhage"
        },
        "effectiveDateTime": "2016-04-04T06:55:50Z",
        "specimen": {
          "reference": "urn:uuid:bb07c7fd-5ce7-41c6-bfab-22c087931758"
        }
      }
    },
    {
      "fullUrl": "urn:uuid:84e38808-3596-4c91-8a81-5de50d901041",
      "resource": {
        "resourceType": "Observation",
        "id": "84e38808-3596-4c91-8a81-5de50d901041",
        "meta": {
          "profile": [
            "http://hl7.eu/fhir/laboratory/StructureDefinition/Observation-resultslab-eu-lab"
          ]
        },
        "performer": [
          {
            "display": "The Central European Lab"
          }
        ],
        "category": [
          {
            "coding": [
              {
                "system": "http://terminology.hl7.org/CodeSystem/observation-category",
                "code": "laboratory"
              }
            ]
          }
        ],
        "code": {
          "coding": [
            {
              "code": "777-3",
              "system": "http://loinc.org",
              "display": "Platelets [#/volume] in Blood by Automated count"
            }
          ],
          "text": "Platelets [#/volume] in Blood by Automated count"
        },
        "valueQuantity": {
          "system": "http://unitsofmeasure.org",
          "value": 334,
          "unit": "10*3/uL",
          "code": "10*3/uL"
        },
        "referenceRange": [
          {
            "low": {
              "value": 140,
              "code": "10*3/uL",
              "system": "http://unitsofmeasure.org"
            }
          },
          {
            "high": {
              "value": 363,
              "code": "10*3/uL",
              "system": "http://unitsofmeasure.org"
            }
          }
        ],
        "text": {
          "status": "generated",
          "div": "<div xmlns=\"http://www.w3.org/1999/xhtml\"><table class=\"hl7__eu__lab__report\"><tr><th>Test</th><th>04-Apr-2016</th><th>Reference&#xA0;Range</th><th>Unit</th></tr><tr><td>Platelets [#/volume] in Blood by Automated count</td><td>334.0</td><td>140 - 363</td><td></td><td>10*3/uL</td></tr></table></div>"
        },
        "status": "final",
        "subject": {
          "reference": "urn:uuid:d0a99a8d-43f7-4eb1-acf6-bede1bf6050c",
          "display": "Stephen Weinhage"
        },
        "effectiveDateTime": "2016-04-04T06:55:50Z",
        "specimen": {
          "reference": "urn:uuid:bb07c7fd-5ce7-41c6-bfab-22c087931758"
        }
      }
    },
    {
      "fullUrl": "urn:uuid:3d168ee2-b57b-4307-a089-8f2d391fdaa0",
      "resource": {
        "resourceType": "Observation",
        "id": "3d168ee2-b57b-4307-a089-8f2d391fdaa0",
        "meta": {
          "profile": [
            "http://hl7.eu/fhir/laboratory/StructureDefinition/Observation-resultslab-eu-lab"
          ]
        },
        "performer": [
          {
            "display": "The Central European Lab"
          }
        ],
        "category": [
          {
            "coding": [
              {
                "system": "http://terminology.hl7.org/CodeSystem/observation-category",
                "code": "laboratory"
              }
            ]
          }
        ],
        "code": {
          "coding": [
            {
              "code": "32207-3",
              "system": "http://loinc.org",
              "display": "Platelet distribution width [Entitic volume] in Blood by Automated count"
            }
          ],
          "text": "Platelet distribution width [Entitic volume] in Blood by Automated count"
        },
        "valueQuantity": {
          "system": "http://unitsofmeasure.org",
          "value": 506,
          "unit": "fL",
          "code": "fL"
        },
        "referenceRange": [
          {
            "low": {
              "value": 11.6,
              "code": "fL",
              "system": "http://unitsofmeasure.org"
            }
          },
          {
            "high": {
              "value": 17.4,
              "code": "fL",
              "system": "http://unitsofmeasure.org"
            }
          }
        ],
        "interpretation": [
          {
            "coding": [
              {
                "code": "H",
                "system": "http://terminology.hl7.org/CodeSystem/v3-ObservationInterpretation",
                "display": "High"
              }
            ]
          }
        ],
        "text": {
          "status": "generated",
          "div": "<div xmlns=\"http://www.w3.org/1999/xhtml\"><table class=\"hl7__eu__lab__report\"><tr><th>Test</th><th>04-Apr-2016</th><th>Reference&#xA0;Range</th><th>Unit</th></tr><tr><td>Platelet distribution width [Entitic volume] in Blood by Automated count</td><td>506.0</td><td>11.6 - 17.4</td><td>H</td><td>fL</td></tr></table></div>"
        },
        "status": "final",
        "subject": {
          "reference": "urn:uuid:d0a99a8d-43f7-4eb1-acf6-bede1bf6050c",
          "display": "Stephen Weinhage"
        },
        "effectiveDateTime": "2016-04-04T06:55:50Z",
        "specimen": {
          "reference": "urn:uuid:bb07c7fd-5ce7-41c6-bfab-22c087931758"
        }
      }
    },
    {
      "fullUrl": "urn:uuid:a07d07cd-7b37-413d-a65b-7d4a82ff6a37",
      "resource": {
        "resourceType": "Observation",
        "id": "a07d07cd-7b37-413d-a65b-7d4a82ff6a37",
        "meta": {
          "profile": [
            "http://hl7.eu/fhir/laboratory/StructureDefinition/Observation-resultslab-eu-lab"
          ]
        },
        "performer": [
          {
            "display": "The Central European Lab"
          }
        ],
        "category": [
          {
            "coding": [
              {
                "system": "http://terminology.hl7.org/CodeSystem/observation-category",
                "code": "laboratory"
              }
            ]
          }
        ],
        "code": {
          "coding": [
            {
              "code": "32623-1",
              "system": "http://loinc.org",
              "display": "Platelet mean volume [Entitic volume] in Blood by Automated count"
            }
          ],
          "text": "Platelet mean volume [Entitic volume] in Blood by Automated count"
        },
        "valueQuantity": {
          "system": "http://unitsofmeasure.org",
          "value": 10.3,
          "unit": "fL",
          "code": "fL"
        },
        "referenceRange": [
          {
            "low": {
              "value": 9.8,
              "code": "fL",
              "system": "http://unitsofmeasure.org"
            }
          },
          {
            "high": {
              "value": 13.8,
              "code": "fL",
              "system": "http://unitsofmeasure.org"
            }
          }
        ],
        "text": {
          "status": "generated",
          "div": "<div xmlns=\"http://www.w3.org/1999/xhtml\"><table class=\"hl7__eu__lab__report\"><tr><th>Test</th><th>04-Apr-2016</th><th>Reference&#xA0;Range</th><th>Unit</th></tr><tr><td>Platelet mean volume [Entitic volume] in Blood by Automated count</td><td>10.3</td><td>9.8 - 13.8</td><td></td><td>fL</td></tr></table></div>"
        },
        "status": "final",
        "subject": {
          "reference": "urn:uuid:d0a99a8d-43f7-4eb1-acf6-bede1bf6050c",
          "display": "Stephen Weinhage"
        },
        "effectiveDateTime": "2016-04-04T06:55:50Z",
        "specimen": {
          "reference": "urn:uuid:bb07c7fd-5ce7-41c6-bfab-22c087931758"
        }
      }
    },
    {
      "fullUrl": "urn:uuid:c8bd9769-a4c0-4dc4-ae3a-bfe0407f5107",
      "resource": {
        "resourceType": "Device",
        "id": "c8bd9769-a4c0-4dc4-ae3a-bfe0407f5107",
        "deviceName": [
          {
            "name": "SYNDERAI Synthetic Generator",
            "type": "manufacturer-name"
          }
        ],
        "version": [
          {
            "value": "5.0"
          }
        ],
        "text": {
          "status": "generated",
          "div": "<div xmlns=\"http://www.w3.org/1999/xhtml\">SYNDERAI Synthetic Generator v5.0</div>"
        },
        "status": "active\"",
        "distinctIdentifier": "synderai-generator-50",
        "manufacturer": "SYNDERAI Project"
      }
    },
    {
      "fullUrl": "urn:uuid:b678b29a-8db4-4ec8-8e69-53f3bd65386a",
      "resource": {
        "resourceType": "Provenance",
        "id": "b678b29a-8db4-4ec8-8e69-53f3bd65386a",
        "target": [
          {
            "reference": "Patient/d0a99a8d-43f7-4eb1-acf6-bede1bf6050c"
          },
          {
            "reference": "Bundle/6d87d460-3fa5-4297-9339-917f21bdcec7"
          },
          {
            "reference": "Composition/8c77ed38-3bc5-46f7-968f-e42a9ac9de33"
          },
          {
            "reference": "PractitionerRole/1313b1d6-4392-4312-a37a-06a06ada011a"
          },
          {
            "reference": "Practitioner/3285005b-c4c4-4f3f-b945-0816cefd0afe"
          },
          {
            "reference": "PractitionerRole/9df6360d-a92f-43ef-becf-31234a2c45e0"
          },
          {
            "reference": "Organization/503a62a9-cc1d-4347-a50d-d0ce4e22a181"
          }
        ],
        "activity": {
          "text": "Synthetic Example Data Generation"
        },
        "policy": [
          "https://synderai.net/synderai-synthetic-data-policy"
        ],
        "agent": [
          {
            "type": {
              "text": "author"
            },
            "who": {
              "reference": "Device/c8bd9769-a4c0-4dc4-ae3a-bfe0407f5107"
            }
          }
        ],
        "reason": [
          {
            "text": "Interoperability Testing and Training (non-clinical use)"
          }
        ],
        "text": {
          "status": "generated",
          "div": "<div xmlns=\"http://www.w3.org/1999/xhtml\">Provenance for SYNDERAI Synthetic Example Data Resource</div>"
        },
        "recorded": "2016-04-04T08:55:50Z"
      }
    },
    {
      "fullUrl": "urn:uuid:1313b1d6-4392-4312-a37a-06a06ada011a",
      "resource": {
        "resourceType": "PractitionerRole",
        "id": "1313b1d6-4392-4312-a37a-06a06ada011a",
        "meta": {
          "profile": [
            "http://hl7.eu/fhir/base/StructureDefinition/practitionerRole-eu"
          ]
        },
        "text": {
          "status": "generated",
          "div": "<div xmlns=\"http://www.w3.org/1999/xhtml\">Laboratory Role Id: 1313b1d6-4392-4312-a37a-06a06ada011a</div>"
        },
        "practitioner": {
          "reference": "urn:uuid:3285005b-c4c4-4f3f-b945-0816cefd0afe"
        }
      }
    },
    {
      "fullUrl": "urn:uuid:3285005b-c4c4-4f3f-b945-0816cefd0afe",
      "resource": {
        "resourceType": "Practitioner",
        "id": "3285005b-c4c4-4f3f-b945-0816cefd0afe",
        "meta": {
          "profile": [
            "http://hl7.eu/fhir/base/StructureDefinition/practitioner-eu"
          ]
        },
        "identifier": [
          {
            "assigner": {
              "display": "HL7 Europe"
            },
            "system": "urn:oid:2.16.840.1.113883.2.51.999",
            "value": "bff9aaee-7abe-4ef8-8e67-1de025006759"
          }
        ],
        "name": [
          {
            "prefix": [
              "dr"
            ],
            "given": [
              "Ex"
            ],
            "family": "Ample"
          }
        ],
        "address": [
          {
            "line": [
              "Laboratoire Central Européenne",
              "Boulevard du Jardin Botanique 32"
            ],
            "postalCode": "1000",
            "city": "Brussels",
            "country": "Belgium"
          }
        ],
        "text": {
          "status": "generated",
          "div": "<div xmlns=\"http://www.w3.org/1999/xhtml\">Laboratory: Laboratoire Central Européenne, 1000 Brussels, Belgium</div>"
        }
      }
    }
  ],
  "type": "document",
  "timestamp": "2016-04-04T08:55:50Z"
}
