{
  "resourceType": "Bundle",
  "id": "3399c886-aa16-4aa9-bef1-d9da24f44b9f",
  "meta": {
    "profile": [
      "http://hl7.eu/fhir/laboratory/StructureDefinition/Bundle-eu-lab"
    ]
  },
  "identifier": {
    "assigner": {
      "display": "HL7 Europe"
    },
    "system": "urn:oid:2.16.840.1.113883.2.51.999",
    "value": "9f8f7d94-0874-49fa-857b-cc3eb3b99a8a"
  },
  "entry": [
    {
      "fullUrl": "urn:uuid:24b73398-7554-4cb3-abb6-3ebd89086fbc",
      "resource": {
        "resourceType": "Composition",
        "id": "24b73398-7554-4cb3-abb6-3ebd89086fbc",
        "meta": {
          "profile": [
            "http://hl7.eu/fhir/laboratory/StructureDefinition/Composition-eu-lab"
          ]
        },
        "identifier": {
          "assigner": {
            "display": "HL7 Europe"
          },
          "system": "urn:oid:2.16.840.1.113883.2.51.999",
          "value": "5b1b5329-1202-41b6-9787-9170208ca732"
        },
        "author": [
          {
            "reference": "urn:uuid:026e6529-de84-4d48-b0d6-603ef040ded6"
          }
        ],
        "category": [
          {
            "coding": [
              {
                "code": "26436-6",
                "system": "http://loinc.org",
                "display": "Laboratory studies (set)"
              }
            ]
          }
        ],
        "type": {
          "coding": [
            {
              "code": "11502-2",
              "system": "http://loinc.org",
              "display": "Laboratory report"
            }
          ],
          "text": "Laboratory Report"
        },
        "section": [
          {
            "code": {
              "coding": [
                {
                  "code": "26436-6",
                  "system": "http://loinc.org",
                  "display": "Laboratory studies (set)"
                }
              ],
              "text": "Laboratory studies"
            },
            "section": [
              {
                "code": {
                  "coding": [
                    {
                      "code": "$18719-5",
                      "system": "http://loinc.org",
                      "display": "Chemistry studies (set)"
                    }
                  ],
                  "text": "Chemistry"
                },
                "entry": [
                  {
                    "reference": "urn:uuid:2fb482dd-0b78-4d42-9d3a-af551d72be57"
                  },
                  {
                    "reference": "urn:uuid:9cce364a-c642-4196-a3a6-515f08a4badc"
                  },
                  {
                    "reference": "urn:uuid:d51cf1ec-f742-4bc6-b7b0-129f385c73e3"
                  },
                  {
                    "reference": "urn:uuid:199b9525-035b-4cfb-9018-b981b552bd0b"
                  },
                  {
                    "reference": "urn:uuid:4c2dcb9e-3b34-4e88-91ff-b5a5328c7695"
                  },
                  {
                    "reference": "urn:uuid:b2adbf7f-a53e-43ef-97fe-01152a770281"
                  },
                  {
                    "reference": "urn:uuid:73ff92f6-1578-49c9-8760-8fd55a88e153"
                  },
                  {
                    "reference": "urn:uuid:5028589e-7558-4dd3-8eba-f550a1cb9676"
                  },
                  {
                    "reference": "urn:uuid:d99fb715-50a8-4a3f-8708-cb11abb0a0d2"
                  },
                  {
                    "reference": "urn:uuid:5d36113a-b4e5-44e8-9e16-83da161dcdbd"
                  },
                  {
                    "reference": "urn:uuid:9963e1e2-d7f5-468f-84fd-45273474e1b4"
                  },
                  {
                    "reference": "urn:uuid:126496f5-21e9-4403-8ba8-193ad3593cd6"
                  },
                  {
                    "reference": "urn:uuid:76f5628d-e70c-44dd-b2f4-64961abcd573"
                  },
                  {
                    "reference": "urn:uuid:d433395a-2a15-4e0c-a8d0-491e2b23ad75"
                  },
                  {
                    "reference": "urn:uuid:7f8ff73c-5658-4e43-95b8-270da01aad83"
                  },
                  {
                    "reference": "urn:uuid:9c63ed1b-818c-4b7b-b53a-4d176f733e15"
                  },
                  {
                    "reference": "urn:uuid:cfb202b3-f190-4811-a880-0454d87671da"
                  },
                  {
                    "reference": "urn:uuid:dc05683a-c06c-4265-9cfe-781605362bdc"
                  }
                ],
                "text": {
                  "status": "generated",
                  "div": "<div xmlns=\"http://www.w3.org/1999/xhtml\"><h3>Chemistry</h3><table class=\"hl7__eu__lab__report\"><thead><tr><th>Test</th><th>14-MAR-2021</th><th>Reference&#xA0;Range</th><th>Unit</th></tr></thead><tbody><tr><td>Glucose [Mass/volume] in Serum or Plasma</td><td>77.9</td><td>70 - 99</td><td>mg/dL</td></tr><tr><td>Urea nitrogen [Mass/volume] in Serum or Plasma</td><td>19.5</td><td>7 - 20</td><td>mg/dL</td></tr><tr><td>Creatinine [Mass/volume] in Serum or Plasma</td><td><strong>1.6 H</strong></td><td>0.6 - 1.3</td><td>mg/dL</td></tr><tr><td>Calcium [Mass/volume] in Serum or Plasma</td><td>10.2</td><td>8.6 - 10.4</td><td>mg/dL</td></tr><tr><td>Sodium [Moles/volume] in Serum or Plasma</td><td>138.4</td><td>135 - 145</td><td>mmol/L</td></tr><tr><td>Potassium [Moles/volume] in Serum or Plasma</td><td>4.1</td><td>3.5 - 5</td><td>mmol/L</td></tr><tr><td>Chloride [Moles/volume] in Serum or Plasma</td><td><strong>106.3 H</strong></td><td>98 - 106</td><td>mmol/L</td></tr><tr><td>Carbon dioxide, total [Moles/volume] in Serum or Plasma</td><td>27.1</td><td>22 - 29</td><td>mmol/L</td></tr><tr><td>Ketones [Presence] in Urine by Test strip</td><td>Urine ketone test = trace</td><td></td><td></td></tr><tr><td>Hemoglobin A1c/Hemoglobin.total in Blood</td><td><strong>2.9 L</strong></td><td>4 - 6</td><td>%</td></tr><tr><td>Glucose [Mass/volume] in Blood</td><td>77.9</td><td>70 - 140</td><td>mg/dL</td></tr><tr><td>Urea nitrogen [Mass/volume] in Blood</td><td>19.5</td><td>7 - 25</td><td>mg/dL</td></tr><tr><td>Creatinine [Mass/volume] in Blood</td><td>1.0</td><td>0.6 - 1.1</td><td>mg/dL</td></tr><tr><td>Calcium [Mass/volume] in Blood</td><td>10.2</td><td>8.6 - 10.4</td><td>mg/dL</td></tr><tr><td>Sodium [Moles/volume] in Blood</td><td>138.4</td><td>135 - 145</td><td>mmol/L</td></tr><tr><td>Potassium [Moles/volume] in Blood</td><td>4.1</td><td>3.5 - 5.1</td><td>mmol/L</td></tr><tr><td>Chloride [Moles/volume] in Blood</td><td>106.3</td><td>98 - 110</td><td>mmol/L</td></tr><tr><td>Carbon dioxide, total [Moles/volume] in Blood</td><td>27.1</td><td>22 - 29</td><td>mmol/L</td></tr></tbody></table></div>"
                },
                "title": "Chemistry"
              },
              {
                "code": {
                  "coding": [
                    {
                      "code": "$18729-4",
                      "system": "http://loinc.org",
                      "display": "Urinalysis studies (set)"
                    }
                  ],
                  "text": "Urinalysis"
                },
                "entry": [
                  {
                    "reference": "urn:uuid:94c010e1-8746-495e-bcbe-b3201b139587"
                  },
                  {
                    "reference": "urn:uuid:f4d30054-d177-431d-9f44-c9752d21dfc9"
                  },
                  {
                    "reference": "urn:uuid:a4d38b94-4147-444f-99ad-7000d3565e8c"
                  },
                  {
                    "reference": "urn:uuid:15e59904-1830-4eda-a6a4-52facbb202bc"
                  },
                  {
                    "reference": "urn:uuid:b447099d-e6b1-4624-9d36-d744d3dee147"
                  },
                  {
                    "reference": "urn:uuid:a118d54d-f513-4f08-b4c1-0f3f897ddd54"
                  },
                  {
                    "reference": "urn:uuid:28e2a45b-1f5f-443a-b5ae-4fd968ef106c"
                  },
                  {
                    "reference": "urn:uuid:ee97afab-1d83-4ec4-a329-49957b58b3c1"
                  },
                  {
                    "reference": "urn:uuid:849a3d61-ac07-4aa2-b5ed-a605483c31f0"
                  },
                  {
                    "reference": "urn:uuid:243a3633-e6a1-4e73-b879-1caaaa3397c4"
                  },
                  {
                    "reference": "urn:uuid:592fe969-5eea-4175-bbb6-8f0c9526e72e"
                  },
                  {
                    "reference": "urn:uuid:d7236fbb-9a61-4e1f-ac2f-2cb78af054be"
                  }
                ],
                "text": {
                  "status": "generated",
                  "div": "<div xmlns=\"http://www.w3.org/1999/xhtml\"><h3>Urinalysis</h3><table class=\"hl7__eu__lab__report\"><thead><tr><th>Test</th><th>14-MAR-2021</th><th>Reference&#xA0;Range</th><th>Unit</th></tr></thead><tbody><tr><td>Glucose [Mass/volume] in Urine by Test strip</td><td><strong>1.1 H</strong></td><td>0 - 0.8</td><td>mg/dL</td></tr><tr><td>Glucose [Presence] in Urine by Test strip</td><td>++</td><td></td><td></td></tr><tr><td>Bilirubin.total [Mass/volume] in Urine by Test strip</td><td><strong>1.1 H</strong></td><td>0 - 1</td><td>mg/dL</td></tr><tr><td>Bilirubin.total [Presence] in Urine by Test strip</td><td>Finding of bilirubin in urine</td><td></td><td></td></tr><tr><td>Ketones [Mass/volume] in Urine by Test strip</td><td><strong>15.3 H</strong></td><td>0 - 4</td><td>mg/dL</td></tr><tr><td>Specific gravity of Urine by Test strip</td><td><strong>1.0 L</strong></td><td>1.005 - 1.03</td><td>{nominal}</td></tr><tr><td>pH of Urine by Test strip</td><td>6.8</td><td>4.5 - 7</td><td>pH</td></tr><tr><td>Protein [Mass/volume] in Urine by Test strip</td><td>78.4</td><td>0 - 145</td><td>mg/dL</td></tr><tr><td>Protein [Presence] in Urine by Test strip</td><td>Urine protein test = +</td><td></td><td></td></tr><tr><td>Nitrite [Presence] in Urine by Test strip</td><td>Urine nitrite negative</td><td></td><td></td></tr><tr><td>Hemoglobin [Presence] in Urine by Test strip</td><td>Urine blood test = negative</td><td></td><td></td></tr><tr><td>Leukocyte esterase [Presence] in Urine by Test strip</td><td>Urine leukocyte test negative</td><td></td><td></td></tr></tbody></table></div>"
                },
                "title": "Urinalysis"
              },
              {
                "code": {
                  "coding": [
                    {
                      "code": "$LP7846-1",
                      "system": "http://loinc.org",
                      "display": "Specimen information"
                    }
                  ],
                  "text": "Specimen information"
                },
                "entry": [
                  {
                    "reference": "urn:uuid:aff9d2cc-2bb5-49f3-a4e6-be9a45bb4287"
                  },
                  {
                    "reference": "urn:uuid:9beb5ac6-b0fc-4157-a3c6-04284873a8c3"
                  },
                  {
                    "reference": "urn:uuid:fa55125d-6b57-40da-8209-d7f766d9852b"
                  },
                  {
                    "reference": "urn:uuid:7dfe0a11-7730-43db-8dbc-892f12e9bd76"
                  }
                ],
                "text": {
                  "status": "generated",
                  "div": "<div xmlns=\"http://www.w3.org/1999/xhtml\"><h3>Specimen information</h3><table class=\"hl7__eu__lab__report\"><thead><tr><th>Test</th><th>14-MAR-2021</th><th>Specimen</th><th></th></tr></thead><tbody><tr><td>Appearance of Urine</td><td>Cloudy urine</td><td>Urine</td><td></td></tr><tr><td>Odor of Urine</td><td>Urine smell ammoniacal</td><td>Urine</td><td></td></tr><tr><td>Clarity of Urine</td><td>Translucent</td><td>Urine</td><td></td></tr><tr><td>Color of Urine</td><td>Brown color</td><td>Urine</td><td></td></tr></tbody></table></div>"
                },
                "title": "Specimen information"
              }
            ],
            "title": "Laboratory Report"
          },
          {
            "text": {
              "status": "generated",
              "div": "<div xmlns=\"http://www.w3.org/1999/xhtml\"><h3>Annotation</h3><table class=\"hl7__eu__lab__report\"><tr><th>Conclusion and Recommendations based on this report and previous findings known to us</th></tr><tr><td>Renal function shows mildly elevated serum creatinine, suggesting possible early renal impairment. Urinalysis reveals glucosuria, ketonuria, bilirubinuria, low specific gravity, and proteinuria, with abnormal urine appearance and color, but no evidence of infection. Hemoglobin A1c is unexpectedly low, which may indicate analytical error or a condition affecting red cell turnover. Findings suggest possible renal dysfunction and metabolic derangement; correlation with clinical context and further evaluation are recommended.</td></tr></table></div>"
            },
            "code": {
              "coding": [
                {
                  "system": "http://loinc.org",
                  "code": "48767-8",
                  "display": "Annotation comment"
                }
              ]
            },
            "title": "Annotation comment"
          }
        ],
        "status": "final",
        "subject": {
          "reference": "urn:uuid:e38de851-86c6-4ebc-b7c6-c1bbe0e4e743",
          "display": "Iva Kratochvílová"
        },
        "date": "2021-03-14T17:10:29Z",
        "title": "Laboratory Report",
        "confidentiality": "N"
      }
    },
    {
      "fullUrl": "urn:uuid:6014d993-7fe2-4f95-a1e5-a757c3a5edfb",
      "resource": {
        "resourceType": "DiagnosticReport",
        "id": "6014d993-7fe2-4f95-a1e5-a757c3a5edfb",
        "meta": {
          "profile": [
            "http://hl7.eu/fhir/laboratory/StructureDefinition/DiagnosticReport-eu-lab"
          ]
        },
        "identifier": [
          {
            "assigner": {
              "display": "HL7 Europe"
            },
            "system": "urn:oid:2.16.840.1.113883.2.51.999",
            "value": "b52164df-9361-4c9a-b92b-7c71f7b8b388"
          }
        ],
        "extension": [
          {
            "url": "http://hl7.org/fhir/5.0/StructureDefinition/extension-DiagnosticReport.composition",
            "valueReference": {
              "reference": "urn:uuid:5b1b5329-1202-41b6-9787-9170208ca732"
            }
          }
        ],
        "category": [
          {
            "coding": [
              {
                "code": "26436-6",
                "system": "http://loinc.org",
                "display": "Laboratory studies (set)"
              }
            ]
          }
        ],
        "specimen": [
          {
            "reference": "urn:uuid:0ec77542-f75a-4ad3-8de9-e2f1cc072efa"
          },
          {
            "reference": "urn:uuid:3310cf99-ba0a-45dc-a15a-636a7a06b32e"
          },
          {
            "reference": "urn:uuid:3030959d-e2b2-4595-b266-9cb623ea248a"
          }
        ],
        "result": [
          {
            "reference": "urn:uuid:2fb482dd-0b78-4d42-9d3a-af551d72be57"
          },
          {
            "reference": "urn:uuid:9cce364a-c642-4196-a3a6-515f08a4badc"
          },
          {
            "reference": "urn:uuid:d51cf1ec-f742-4bc6-b7b0-129f385c73e3"
          },
          {
            "reference": "urn:uuid:199b9525-035b-4cfb-9018-b981b552bd0b"
          },
          {
            "reference": "urn:uuid:4c2dcb9e-3b34-4e88-91ff-b5a5328c7695"
          },
          {
            "reference": "urn:uuid:b2adbf7f-a53e-43ef-97fe-01152a770281"
          },
          {
            "reference": "urn:uuid:73ff92f6-1578-49c9-8760-8fd55a88e153"
          },
          {
            "reference": "urn:uuid:5028589e-7558-4dd3-8eba-f550a1cb9676"
          },
          {
            "reference": "urn:uuid:aff9d2cc-2bb5-49f3-a4e6-be9a45bb4287"
          },
          {
            "reference": "urn:uuid:9beb5ac6-b0fc-4157-a3c6-04284873a8c3"
          },
          {
            "reference": "urn:uuid:fa55125d-6b57-40da-8209-d7f766d9852b"
          },
          {
            "reference": "urn:uuid:7dfe0a11-7730-43db-8dbc-892f12e9bd76"
          },
          {
            "reference": "urn:uuid:94c010e1-8746-495e-bcbe-b3201b139587"
          },
          {
            "reference": "urn:uuid:f4d30054-d177-431d-9f44-c9752d21dfc9"
          },
          {
            "reference": "urn:uuid:a4d38b94-4147-444f-99ad-7000d3565e8c"
          },
          {
            "reference": "urn:uuid:15e59904-1830-4eda-a6a4-52facbb202bc"
          },
          {
            "reference": "urn:uuid:b447099d-e6b1-4624-9d36-d744d3dee147"
          },
          {
            "reference": "urn:uuid:d99fb715-50a8-4a3f-8708-cb11abb0a0d2"
          },
          {
            "reference": "urn:uuid:a118d54d-f513-4f08-b4c1-0f3f897ddd54"
          },
          {
            "reference": "urn:uuid:28e2a45b-1f5f-443a-b5ae-4fd968ef106c"
          },
          {
            "reference": "urn:uuid:ee97afab-1d83-4ec4-a329-49957b58b3c1"
          },
          {
            "reference": "urn:uuid:849a3d61-ac07-4aa2-b5ed-a605483c31f0"
          },
          {
            "reference": "urn:uuid:243a3633-e6a1-4e73-b879-1caaaa3397c4"
          },
          {
            "reference": "urn:uuid:592fe969-5eea-4175-bbb6-8f0c9526e72e"
          },
          {
            "reference": "urn:uuid:d7236fbb-9a61-4e1f-ac2f-2cb78af054be"
          },
          {
            "reference": "urn:uuid:5d36113a-b4e5-44e8-9e16-83da161dcdbd"
          },
          {
            "reference": "urn:uuid:9963e1e2-d7f5-468f-84fd-45273474e1b4"
          },
          {
            "reference": "urn:uuid:126496f5-21e9-4403-8ba8-193ad3593cd6"
          },
          {
            "reference": "urn:uuid:76f5628d-e70c-44dd-b2f4-64961abcd573"
          },
          {
            "reference": "urn:uuid:d433395a-2a15-4e0c-a8d0-491e2b23ad75"
          },
          {
            "reference": "urn:uuid:7f8ff73c-5658-4e43-95b8-270da01aad83"
          },
          {
            "reference": "urn:uuid:9c63ed1b-818c-4b7b-b53a-4d176f733e15"
          },
          {
            "reference": "urn:uuid:cfb202b3-f190-4811-a880-0454d87671da"
          },
          {
            "reference": "urn:uuid:dc05683a-c06c-4265-9cfe-781605362bdc"
          }
        ],
        "status": "registered",
        "code": {
          "coding": [
            {
              "code": "11502-2",
              "system": "http://loinc.org",
              "display": "Laboratory report"
            }
          ]
        },
        "subject": {
          "reference": "urn:uuid:e38de851-86c6-4ebc-b7c6-c1bbe0e4e743",
          "display": "Iva Kratochvílová"
        }
      }
    },
    {
      "fullUrl": "urn:uuid:e38de851-86c6-4ebc-b7c6-c1bbe0e4e743",
      "resource": {
        "resourceType": "Patient",
        "id": "e38de851-86c6-4ebc-b7c6-c1bbe0e4e743",
        "meta": {
          "security": [
            {
              "system": "http://terminology.hl7.org/CodeSystem/v3-ActReason",
              "code": "HTEST"
            },
            {
              "system": "http://terminology.hl7.org/CodeSystem/v3-ActReason",
              "code": "TRAIN"
            }
          ],
          "tag": [
            {
              "system": "https://synderai.net/fhir/CodeSystem/tags",
              "code": "synthetic",
              "display": "SYNDERAI Synthetic data"
            }
          ],
          "profile": [
            "http://hl7.eu/fhir/base/StructureDefinition/patient-eu-core"
          ]
        },
        "identifier": [
          {
            "type": {
              "coding": [
                {
                  "code": "PT",
                  "system": "http://terminology.hl7.org/CodeSystem/v2-0203"
                }
              ]
            },
            "system": "http://ec.europa.eu/identifier/eci",
            "value": "4380-389488-0"
          },
          {
            "type": {
              "coding": [
                {
                  "code": "MR",
                  "system": "http://terminology.hl7.org/CodeSystem/v2-0203"
                }
              ]
            },
            "system": "http://local.setting.eu/identifier",
            "value": "f8f9ebdc-03dd-2fc0-819c-affa4ffd7f67"
          }
        ],
        "name": [
          {
            "family": "Kratochvílová"
          },
          {
            "given": [
              "Iva"
            ]
          },
          {
            "text": "Iva Kratochvílová"
          }
        ],
        "address": [
          {
            "line": [
              "Žofie Podlipské 4"
            ],
            "use": "home",
            "type": "physical",
            "postalCode": "27324",
            "city": "Postoloprty",
            "country": "Czechia"
          }
        ],
        "telecom": [
          {
            "system": "phone",
            "value": "00420 607 985 072"
          }
        ],
        "extension": [
          {
            "url": "http://hl7.org/fhir/StructureDefinition/patient-nationality",
            "valueCodeableConcept": {
              "coding": [
                {
                  "code": "CZ",
                  "system": "http://hl7.org/fhir/ValueSet/country"
                }
              ]
            }
          }
        ],
        "text": {
          "status": "generated",
          "div": "<div xmlns=\"http://www.w3.org/1999/xhtml\"><table class=\"hl7__ips\"><tr><td>Iva Kratochvílová</td><td>female</td><td>17-Sep-1964</td></tr></table></div>"
        },
        "gender": "female",
        "birthDate": "1964-09-17"
      }
    },
    {
      "fullUrl": "urn:uuid:9ad4bcc1-d241-4b4b-ac0b-d6f7fc439047",
      "resource": {
        "resourceType": "ServiceRequest",
        "id": "9ad4bcc1-d241-4b4b-ac0b-d6f7fc439047",
        "meta": {
          "profile": [
            "http://hl7.eu/fhir/laboratory/StructureDefinition/ServiceRequest-eu-lab"
          ]
        },
        "identifier": [
          {
            "system": "http://example.org",
            "value": "97b09bf5-96e4-4d50-8dd8-7cfa9ba5db7f"
          }
        ],
        "specimen": [
          {
            "reference": "urn:uuid:0ec77542-f75a-4ad3-8de9-e2f1cc072efa"
          },
          {
            "reference": "urn:uuid:3310cf99-ba0a-45dc-a15a-636a7a06b32e"
          },
          {
            "reference": "urn:uuid:3030959d-e2b2-4595-b266-9cb623ea248a"
          }
        ],
        "reasonCode": [
          {
            "coding": [
              {
                "code": "431856006",
                "system": "http://snomed.info/sct",
                "display": "Chronic kidney disease stage 2"
              }
            ]
          },
          {
            "coding": [
              {
                "code": "431855005",
                "system": "http://snomed.info/sct",
                "display": "Chronic kidney disease stage 1"
              }
            ]
          },
          {
            "coding": [
              {
                "code": "237602007",
                "system": "http://snomed.info/sct",
                "display": "Metabolic syndrome X"
              }
            ]
          },
          {
            "coding": [
              {
                "code": "91302008",
                "system": "http://snomed.info/sct",
                "display": "Sepsis"
              }
            ]
          },
          {
            "coding": [
              {
                "code": "271737000",
                "system": "http://snomed.info/sct",
                "display": "Anemia"
              }
            ]
          },
          {
            "coding": [
              {
                "code": "15777000",
                "system": "http://snomed.info/sct",
                "display": "Prediabetes"
              }
            ]
          },
          {
            "coding": [
              {
                "code": "157141000119108",
                "system": "http://snomed.info/sct",
                "display": "Proteinuria due to type 2 diabetes mellitus"
              }
            ]
          },
          {
            "coding": [
              {
                "code": "90781000119102",
                "system": "http://snomed.info/sct",
                "display": "Microalbuminuria due to type 2 diabetes mellitus"
              }
            ]
          },
          {
            "coding": [
              {
                "code": "239872002",
                "system": "http://snomed.info/sct",
                "display": "Osteoarthritis of hip"
              }
            ]
          },
          {
            "coding": [
              {
                "code": "40055000",
                "system": "http://snomed.info/sct",
                "display": "Chronic sinusitis"
              }
            ]
          },
          {
            "coding": [
              {
                "code": "127013003",
                "system": "http://snomed.info/sct",
                "display": "Disorder of kidney due to diabetes mellitus"
              }
            ]
          },
          {
            "coding": [
              {
                "code": "59621000",
                "system": "http://snomed.info/sct",
                "display": "Essential hypertension"
              }
            ]
          }
        ],
        "status": "active",
        "intent": "order",
        "code": {
          "coding": [
            {
              "code": "108252007",
              "system": "http://snomed.info/sct",
              "display": "Laboratory procedure"
            }
          ]
        },
        "subject": {
          "reference": "urn:uuid:e38de851-86c6-4ebc-b7c6-c1bbe0e4e743",
          "display": "Iva Kratochvílová"
        },
        "requester": {
          "reference": "urn:uuid:fd620345-28c1-4177-bfa4-4fe95602d030"
        }
      }
    },
    {
      "fullUrl": "urn:uuid:fd620345-28c1-4177-bfa4-4fe95602d030",
      "resource": {
        "resourceType": "PractitionerRole",
        "id": "fd620345-28c1-4177-bfa4-4fe95602d030",
        "meta": {
          "profile": [
            "http://hl7.eu/fhir/base/StructureDefinition/practitionerRole-eu"
          ]
        },
        "text": {
          "status": "generated",
          "div": "<div xmlns=\"http://www.w3.org/1999/xhtml\">Provider Role Id: fd620345-28c1-4177-bfa4-4fe95602d030</div>"
        },
        "organization": {
          "reference": "urn:uuid:f4560a59-036c-4184-afb9-95553d00be52"
        }
      }
    },
    {
      "fullUrl": "urn:uuid:f4560a59-036c-4184-afb9-95553d00be52",
      "resource": {
        "resourceType": "Organization",
        "id": "f4560a59-036c-4184-afb9-95553d00be52",
        "meta": {
          "profile": [
            "http://hl7.eu/fhir/base/StructureDefinition/organization-eu"
          ]
        },
        "identifier": [
          {
            "assigner": {
              "display": "HL7 Europe"
            },
            "system": "urn:oid:2.16.840.1.113883.2.51.999",
            "value": "cd8a3fd3-7b1f-445e-85d0-d3794e6b1373"
          }
        ],
        "address": [
          {
            "city": "Kadaň",
            "postalCode": "432 01",
            "country": "Czechia"
          }
        ],
        "text": {
          "status": "generated",
          "div": "<div xmlns=\"http://www.w3.org/1999/xhtml\">Provider Organization: Nemocnice s poliklinikou Kadaň</div>"
        },
        "name": "Nemocnice s poliklinikou Kadaň"
      }
    },
    {
      "fullUrl": "urn:uuid:0ec77542-f75a-4ad3-8de9-e2f1cc072efa",
      "resource": {
        "resourceType": "Specimen",
        "id": "0ec77542-f75a-4ad3-8de9-e2f1cc072efa",
        "meta": {
          "profile": [
            "http://hl7.eu/fhir/laboratory/StructureDefinition/Specimen-eu-lab"
          ]
        },
        "collection": {
          "collectedDateTime": "2021-03-14"
        },
        "text": {
          "status": "generated",
          "div": "<div xmlns=\"http://www.w3.org/1999/xhtml\"><table class=\"hl7__eu__lab__report\"><tr><th>Specimen</th><th>Collection Date</th></tr><tr><td>Acellular blood (serum or plasma) specimen</td><td><span class=\"nb\">14-Mar-2021</span></td></tr></table></div>"
        },
        "type": {
          "coding": [
            {
              "code": "122592007",
              "system": "http://snomed.info/sct",
              "display": "Acellular blood (serum or plasma) specimen"
            }
          ]
        }
      }
    },
    {
      "fullUrl": "urn:uuid:3310cf99-ba0a-45dc-a15a-636a7a06b32e",
      "resource": {
        "resourceType": "Specimen",
        "id": "3310cf99-ba0a-45dc-a15a-636a7a06b32e",
        "meta": {
          "profile": [
            "http://hl7.eu/fhir/laboratory/StructureDefinition/Specimen-eu-lab"
          ]
        },
        "collection": {
          "collectedDateTime": "2021-03-14"
        },
        "text": {
          "status": "generated",
          "div": "<div xmlns=\"http://www.w3.org/1999/xhtml\"><table class=\"hl7__eu__lab__report\"><tr><th>Specimen</th><th>Collection Date</th></tr><tr><td>Urine specimen</td><td><span class=\"nb\">14-Mar-2021</span></td></tr></table></div>"
        },
        "type": {
          "coding": [
            {
              "code": "122575003",
              "system": "http://snomed.info/sct",
              "display": "Urine specimen"
            }
          ]
        }
      }
    },
    {
      "fullUrl": "urn:uuid:3030959d-e2b2-4595-b266-9cb623ea248a",
      "resource": {
        "resourceType": "Specimen",
        "id": "3030959d-e2b2-4595-b266-9cb623ea248a",
        "meta": {
          "profile": [
            "http://hl7.eu/fhir/laboratory/StructureDefinition/Specimen-eu-lab"
          ]
        },
        "collection": {
          "collectedDateTime": "2021-03-14"
        },
        "text": {
          "status": "generated",
          "div": "<div xmlns=\"http://www.w3.org/1999/xhtml\"><table class=\"hl7__eu__lab__report\"><tr><th>Specimen</th><th>Collection Date</th></tr><tr><td>Whole blood specimen (specimen)</td><td><span class=\"nb\">14-Mar-2021</span></td></tr></table></div>"
        },
        "type": {
          "coding": [
            {
              "code": "258580003",
              "system": "http://snomed.info/sct",
              "display": "Whole blood specimen (specimen)"
            }
          ]
        }
      }
    },
    {
      "fullUrl": "urn:uuid:2fb482dd-0b78-4d42-9d3a-af551d72be57",
      "resource": {
        "resourceType": "Observation",
        "id": "2fb482dd-0b78-4d42-9d3a-af551d72be57",
        "meta": {
          "profile": [
            "http://hl7.eu/fhir/laboratory/StructureDefinition/Observation-resultslab-eu-lab"
          ]
        },
        "performer": [
          {
            "display": "The Central European Lab"
          }
        ],
        "category": [
          {
            "coding": [
              {
                "system": "http://terminology.hl7.org/CodeSystem/observation-category",
                "code": "laboratory"
              }
            ]
          }
        ],
        "code": {
          "coding": [
            {
              "code": "2345-7",
              "system": "http://loinc.org",
              "display": "Glucose [Mass/volume] in Serum or Plasma"
            }
          ],
          "text": "Glucose [Mass/volume] in Serum or Plasma"
        },
        "valueQuantity": {
          "system": "http://unitsofmeasure.org",
          "value": 77.9,
          "unit": "mg/dL",
          "code": "mg/dL"
        },
        "referenceRange": [
          {
            "low": {
              "value": 70,
              "code": "mg/dL",
              "system": "http://unitsofmeasure.org"
            }
          },
          {
            "high": {
              "value": 99,
              "code": "mg/dL",
              "system": "http://unitsofmeasure.org"
            }
          }
        ],
        "text": {
          "status": "generated",
          "div": "<div xmlns=\"http://www.w3.org/1999/xhtml\"><table class=\"hl7__eu__lab__report\"><tr><th>Test</th><th>14-Mar-2021</th><th>Reference&#xA0;Range</th><th>Unit</th></tr><tr><td>Glucose [Mass/volume] in Serum or Plasma</td><td>77.9</td><td>70 - 99</td><td></td><td>mg/dL</td></tr></table></div>"
        },
        "status": "final",
        "subject": {
          "reference": "urn:uuid:e38de851-86c6-4ebc-b7c6-c1bbe0e4e743",
          "display": "Iva Kratochvílová"
        },
        "effectiveDateTime": "2021-03-14T16:10:29Z",
        "specimen": {
          "reference": "urn:uuid:0ec77542-f75a-4ad3-8de9-e2f1cc072efa"
        }
      }
    },
    {
      "fullUrl": "urn:uuid:9cce364a-c642-4196-a3a6-515f08a4badc",
      "resource": {
        "resourceType": "Observation",
        "id": "9cce364a-c642-4196-a3a6-515f08a4badc",
        "meta": {
          "profile": [
            "http://hl7.eu/fhir/laboratory/StructureDefinition/Observation-resultslab-eu-lab"
          ]
        },
        "performer": [
          {
            "display": "The Central European Lab"
          }
        ],
        "category": [
          {
            "coding": [
              {
                "system": "http://terminology.hl7.org/CodeSystem/observation-category",
                "code": "laboratory"
              }
            ]
          }
        ],
        "code": {
          "coding": [
            {
              "code": "3094-0",
              "system": "http://loinc.org",
              "display": "Urea nitrogen [Mass/volume] in Serum or Plasma"
            }
          ],
          "text": "Urea nitrogen [Mass/volume] in Serum or Plasma"
        },
        "valueQuantity": {
          "system": "http://unitsofmeasure.org",
          "value": 19.5,
          "unit": "mg/dL",
          "code": "mg/dL"
        },
        "referenceRange": [
          {
            "low": {
              "value": 7,
              "code": "mg/dL",
              "system": "http://unitsofmeasure.org"
            }
          },
          {
            "high": {
              "value": 20,
              "code": "mg/dL",
              "system": "http://unitsofmeasure.org"
            }
          }
        ],
        "text": {
          "status": "generated",
          "div": "<div xmlns=\"http://www.w3.org/1999/xhtml\"><table class=\"hl7__eu__lab__report\"><tr><th>Test</th><th>14-Mar-2021</th><th>Reference&#xA0;Range</th><th>Unit</th></tr><tr><td>Urea nitrogen [Mass/volume] in Serum or Plasma</td><td>19.5</td><td>7 - 20</td><td></td><td>mg/dL</td></tr></table></div>"
        },
        "status": "final",
        "subject": {
          "reference": "urn:uuid:e38de851-86c6-4ebc-b7c6-c1bbe0e4e743",
          "display": "Iva Kratochvílová"
        },
        "effectiveDateTime": "2021-03-14T16:10:29Z",
        "specimen": {
          "reference": "urn:uuid:0ec77542-f75a-4ad3-8de9-e2f1cc072efa"
        }
      }
    },
    {
      "fullUrl": "urn:uuid:d51cf1ec-f742-4bc6-b7b0-129f385c73e3",
      "resource": {
        "resourceType": "Observation",
        "id": "d51cf1ec-f742-4bc6-b7b0-129f385c73e3",
        "meta": {
          "profile": [
            "http://hl7.eu/fhir/laboratory/StructureDefinition/Observation-resultslab-eu-lab"
          ]
        },
        "performer": [
          {
            "display": "The Central European Lab"
          }
        ],
        "category": [
          {
            "coding": [
              {
                "system": "http://terminology.hl7.org/CodeSystem/observation-category",
                "code": "laboratory"
              }
            ]
          }
        ],
        "code": {
          "coding": [
            {
              "code": "2160-0",
              "system": "http://loinc.org",
              "display": "Creatinine [Mass/volume] in Serum or Plasma"
            }
          ],
          "text": "Creatinine [Mass/volume] in Serum or Plasma"
        },
        "valueQuantity": {
          "system": "http://unitsofmeasure.org",
          "value": 1.6,
          "unit": "mg/dL",
          "code": "mg/dL"
        },
        "referenceRange": [
          {
            "low": {
              "value": 0.6,
              "code": "mg/dL",
              "system": "http://unitsofmeasure.org"
            }
          },
          {
            "high": {
              "value": 1.3,
              "code": "mg/dL",
              "system": "http://unitsofmeasure.org"
            }
          }
        ],
        "interpretation": [
          {
            "coding": [
              {
                "code": "H",
                "system": "http://terminology.hl7.org/CodeSystem/v3-ObservationInterpretation",
                "display": "High"
              }
            ]
          }
        ],
        "text": {
          "status": "generated",
          "div": "<div xmlns=\"http://www.w3.org/1999/xhtml\"><table class=\"hl7__eu__lab__report\"><tr><th>Test</th><th>14-Mar-2021</th><th>Reference&#xA0;Range</th><th>Unit</th></tr><tr><td>Creatinine [Mass/volume] in Serum or Plasma</td><td>1.6</td><td>0.6 - 1.3</td><td>H</td><td>mg/dL</td></tr></table></div>"
        },
        "status": "final",
        "subject": {
          "reference": "urn:uuid:e38de851-86c6-4ebc-b7c6-c1bbe0e4e743",
          "display": "Iva Kratochvílová"
        },
        "effectiveDateTime": "2021-03-14T16:10:29Z",
        "specimen": {
          "reference": "urn:uuid:0ec77542-f75a-4ad3-8de9-e2f1cc072efa"
        }
      }
    },
    {
      "fullUrl": "urn:uuid:199b9525-035b-4cfb-9018-b981b552bd0b",
      "resource": {
        "resourceType": "Observation",
        "id": "199b9525-035b-4cfb-9018-b981b552bd0b",
        "meta": {
          "profile": [
            "http://hl7.eu/fhir/laboratory/StructureDefinition/Observation-resultslab-eu-lab"
          ]
        },
        "performer": [
          {
            "display": "The Central European Lab"
          }
        ],
        "category": [
          {
            "coding": [
              {
                "system": "http://terminology.hl7.org/CodeSystem/observation-category",
                "code": "laboratory"
              }
            ]
          }
        ],
        "code": {
          "coding": [
            {
              "code": "17861-6",
              "system": "http://loinc.org",
              "display": "Calcium [Mass/volume] in Serum or Plasma"
            }
          ],
          "text": "Calcium [Mass/volume] in Serum or Plasma"
        },
        "valueQuantity": {
          "system": "http://unitsofmeasure.org",
          "value": 10.2,
          "unit": "mg/dL",
          "code": "mg/dL"
        },
        "referenceRange": [
          {
            "low": {
              "value": 8.6,
              "code": "mg/dL",
              "system": "http://unitsofmeasure.org"
            }
          },
          {
            "high": {
              "value": 10.4,
              "code": "mg/dL",
              "system": "http://unitsofmeasure.org"
            }
          }
        ],
        "text": {
          "status": "generated",
          "div": "<div xmlns=\"http://www.w3.org/1999/xhtml\"><table class=\"hl7__eu__lab__report\"><tr><th>Test</th><th>14-Mar-2021</th><th>Reference&#xA0;Range</th><th>Unit</th></tr><tr><td>Calcium [Mass/volume] in Serum or Plasma</td><td>10.2</td><td>8.6 - 10.4</td><td></td><td>mg/dL</td></tr></table></div>"
        },
        "status": "final",
        "subject": {
          "reference": "urn:uuid:e38de851-86c6-4ebc-b7c6-c1bbe0e4e743",
          "display": "Iva Kratochvílová"
        },
        "effectiveDateTime": "2021-03-14T16:10:29Z",
        "specimen": {
          "reference": "urn:uuid:0ec77542-f75a-4ad3-8de9-e2f1cc072efa"
        }
      }
    },
    {
      "fullUrl": "urn:uuid:4c2dcb9e-3b34-4e88-91ff-b5a5328c7695",
      "resource": {
        "resourceType": "Observation",
        "id": "4c2dcb9e-3b34-4e88-91ff-b5a5328c7695",
        "meta": {
          "profile": [
            "http://hl7.eu/fhir/laboratory/StructureDefinition/Observation-resultslab-eu-lab"
          ]
        },
        "performer": [
          {
            "display": "The Central European Lab"
          }
        ],
        "category": [
          {
            "coding": [
              {
                "system": "http://terminology.hl7.org/CodeSystem/observation-category",
                "code": "laboratory"
              }
            ]
          }
        ],
        "code": {
          "coding": [
            {
              "code": "2951-2",
              "system": "http://loinc.org",
              "display": "Sodium [Moles/volume] in Serum or Plasma"
            }
          ],
          "text": "Sodium [Moles/volume] in Serum or Plasma"
        },
        "valueQuantity": {
          "system": "http://unitsofmeasure.org",
          "value": 138.4,
          "unit": "mmol/L",
          "code": "mmol/L"
        },
        "referenceRange": [
          {
            "low": {
              "value": 135,
              "code": "mmol/L",
              "system": "http://unitsofmeasure.org"
            }
          },
          {
            "high": {
              "value": 145,
              "code": "mmol/L",
              "system": "http://unitsofmeasure.org"
            }
          }
        ],
        "text": {
          "status": "generated",
          "div": "<div xmlns=\"http://www.w3.org/1999/xhtml\"><table class=\"hl7__eu__lab__report\"><tr><th>Test</th><th>14-Mar-2021</th><th>Reference&#xA0;Range</th><th>Unit</th></tr><tr><td>Sodium [Moles/volume] in Serum or Plasma</td><td>138.4</td><td>135 - 145</td><td></td><td>mmol/L</td></tr></table></div>"
        },
        "status": "final",
        "subject": {
          "reference": "urn:uuid:e38de851-86c6-4ebc-b7c6-c1bbe0e4e743",
          "display": "Iva Kratochvílová"
        },
        "effectiveDateTime": "2021-03-14T16:10:29Z",
        "specimen": {
          "reference": "urn:uuid:0ec77542-f75a-4ad3-8de9-e2f1cc072efa"
        }
      }
    },
    {
      "fullUrl": "urn:uuid:b2adbf7f-a53e-43ef-97fe-01152a770281",
      "resource": {
        "resourceType": "Observation",
        "id": "b2adbf7f-a53e-43ef-97fe-01152a770281",
        "meta": {
          "profile": [
            "http://hl7.eu/fhir/laboratory/StructureDefinition/Observation-resultslab-eu-lab"
          ]
        },
        "performer": [
          {
            "display": "The Central European Lab"
          }
        ],
        "category": [
          {
            "coding": [
              {
                "system": "http://terminology.hl7.org/CodeSystem/observation-category",
                "code": "laboratory"
              }
            ]
          }
        ],
        "code": {
          "coding": [
            {
              "code": "2823-3",
              "system": "http://loinc.org",
              "display": "Potassium [Moles/volume] in Serum or Plasma"
            }
          ],
          "text": "Potassium [Moles/volume] in Serum or Plasma"
        },
        "valueQuantity": {
          "system": "http://unitsofmeasure.org",
          "value": 4.1,
          "unit": "mmol/L",
          "code": "mmol/L"
        },
        "referenceRange": [
          {
            "low": {
              "value": 3.5,
              "code": "mmol/L",
              "system": "http://unitsofmeasure.org"
            }
          },
          {
            "high": {
              "value": 5,
              "code": "mmol/L",
              "system": "http://unitsofmeasure.org"
            }
          }
        ],
        "text": {
          "status": "generated",
          "div": "<div xmlns=\"http://www.w3.org/1999/xhtml\"><table class=\"hl7__eu__lab__report\"><tr><th>Test</th><th>14-Mar-2021</th><th>Reference&#xA0;Range</th><th>Unit</th></tr><tr><td>Potassium [Moles/volume] in Serum or Plasma</td><td>4.1</td><td>3.5 - 5</td><td></td><td>mmol/L</td></tr></table></div>"
        },
        "status": "final",
        "subject": {
          "reference": "urn:uuid:e38de851-86c6-4ebc-b7c6-c1bbe0e4e743",
          "display": "Iva Kratochvílová"
        },
        "effectiveDateTime": "2021-03-14T16:10:29Z",
        "specimen": {
          "reference": "urn:uuid:0ec77542-f75a-4ad3-8de9-e2f1cc072efa"
        }
      }
    },
    {
      "fullUrl": "urn:uuid:73ff92f6-1578-49c9-8760-8fd55a88e153",
      "resource": {
        "resourceType": "Observation",
        "id": "73ff92f6-1578-49c9-8760-8fd55a88e153",
        "meta": {
          "profile": [
            "http://hl7.eu/fhir/laboratory/StructureDefinition/Observation-resultslab-eu-lab"
          ]
        },
        "performer": [
          {
            "display": "The Central European Lab"
          }
        ],
        "category": [
          {
            "coding": [
              {
                "system": "http://terminology.hl7.org/CodeSystem/observation-category",
                "code": "laboratory"
              }
            ]
          }
        ],
        "code": {
          "coding": [
            {
              "code": "2075-0",
              "system": "http://loinc.org",
              "display": "Chloride [Moles/volume] in Serum or Plasma"
            }
          ],
          "text": "Chloride [Moles/volume] in Serum or Plasma"
        },
        "valueQuantity": {
          "system": "http://unitsofmeasure.org",
          "value": 106.3,
          "unit": "mmol/L",
          "code": "mmol/L"
        },
        "referenceRange": [
          {
            "low": {
              "value": 98,
              "code": "mmol/L",
              "system": "http://unitsofmeasure.org"
            }
          },
          {
            "high": {
              "value": 106,
              "code": "mmol/L",
              "system": "http://unitsofmeasure.org"
            }
          }
        ],
        "interpretation": [
          {
            "coding": [
              {
                "code": "H",
                "system": "http://terminology.hl7.org/CodeSystem/v3-ObservationInterpretation",
                "display": "High"
              }
            ]
          }
        ],
        "text": {
          "status": "generated",
          "div": "<div xmlns=\"http://www.w3.org/1999/xhtml\"><table class=\"hl7__eu__lab__report\"><tr><th>Test</th><th>14-Mar-2021</th><th>Reference&#xA0;Range</th><th>Unit</th></tr><tr><td>Chloride [Moles/volume] in Serum or Plasma</td><td>106.3</td><td>98 - 106</td><td>H</td><td>mmol/L</td></tr></table></div>"
        },
        "status": "final",
        "subject": {
          "reference": "urn:uuid:e38de851-86c6-4ebc-b7c6-c1bbe0e4e743",
          "display": "Iva Kratochvílová"
        },
        "effectiveDateTime": "2021-03-14T16:10:29Z",
        "specimen": {
          "reference": "urn:uuid:0ec77542-f75a-4ad3-8de9-e2f1cc072efa"
        }
      }
    },
    {
      "fullUrl": "urn:uuid:5028589e-7558-4dd3-8eba-f550a1cb9676",
      "resource": {
        "resourceType": "Observation",
        "id": "5028589e-7558-4dd3-8eba-f550a1cb9676",
        "meta": {
          "profile": [
            "http://hl7.eu/fhir/laboratory/StructureDefinition/Observation-resultslab-eu-lab"
          ]
        },
        "performer": [
          {
            "display": "The Central European Lab"
          }
        ],
        "category": [
          {
            "coding": [
              {
                "system": "http://terminology.hl7.org/CodeSystem/observation-category",
                "code": "laboratory"
              }
            ]
          }
        ],
        "code": {
          "coding": [
            {
              "code": "2028-9",
              "system": "http://loinc.org",
              "display": "Carbon dioxide, total [Moles/volume] in Serum or Plasma"
            }
          ],
          "text": "Carbon dioxide, total [Moles/volume] in Serum or Plasma"
        },
        "valueQuantity": {
          "system": "http://unitsofmeasure.org",
          "value": 27.1,
          "unit": "mmol/L",
          "code": "mmol/L"
        },
        "referenceRange": [
          {
            "low": {
              "value": 22,
              "code": "mmol/L",
              "system": "http://unitsofmeasure.org"
            }
          },
          {
            "high": {
              "value": 29,
              "code": "mmol/L",
              "system": "http://unitsofmeasure.org"
            }
          }
        ],
        "text": {
          "status": "generated",
          "div": "<div xmlns=\"http://www.w3.org/1999/xhtml\"><table class=\"hl7__eu__lab__report\"><tr><th>Test</th><th>14-Mar-2021</th><th>Reference&#xA0;Range</th><th>Unit</th></tr><tr><td>Carbon dioxide, total [Moles/volume] in Serum or Plasma</td><td>27.1</td><td>22 - 29</td><td></td><td>mmol/L</td></tr></table></div>"
        },
        "status": "final",
        "subject": {
          "reference": "urn:uuid:e38de851-86c6-4ebc-b7c6-c1bbe0e4e743",
          "display": "Iva Kratochvílová"
        },
        "effectiveDateTime": "2021-03-14T16:10:29Z",
        "specimen": {
          "reference": "urn:uuid:0ec77542-f75a-4ad3-8de9-e2f1cc072efa"
        }
      }
    },
    {
      "fullUrl": "urn:uuid:aff9d2cc-2bb5-49f3-a4e6-be9a45bb4287",
      "resource": {
        "resourceType": "Observation",
        "id": "aff9d2cc-2bb5-49f3-a4e6-be9a45bb4287",
        "meta": {
          "profile": [
            "http://hl7.eu/fhir/laboratory/StructureDefinition/Observation-resultslab-eu-lab"
          ]
        },
        "performer": [
          {
            "display": "The Central European Lab"
          }
        ],
        "category": [
          {
            "coding": [
              {
                "system": "http://terminology.hl7.org/CodeSystem/observation-category",
                "code": "laboratory"
              }
            ]
          }
        ],
        "code": {
          "coding": [
            {
              "code": "5767-9",
              "system": "http://loinc.org",
              "display": "Appearance of Urine"
            }
          ],
          "text": "Appearance of Urine"
        },
        "text": {
          "status": "generated",
          "div": "<div xmlns=\"http://www.w3.org/1999/xhtml\"><table class=\"hl7__eu__lab__report\"><tr><th>Test</th><th>14-Mar-2021</th><th>Reference&#xA0;Range</th><th>Unit</th></tr><tr><td>Appearance of Urine</td></tr></table></div>"
        },
        "status": "final",
        "subject": {
          "reference": "urn:uuid:e38de851-86c6-4ebc-b7c6-c1bbe0e4e743",
          "display": "Iva Kratochvílová"
        },
        "effectiveDateTime": "2021-03-14T16:10:29Z",
        "specimen": {
          "reference": "urn:uuid:3310cf99-ba0a-45dc-a15a-636a7a06b32e"
        }
      }
    },
    {
      "fullUrl": "urn:uuid:9beb5ac6-b0fc-4157-a3c6-04284873a8c3",
      "resource": {
        "resourceType": "Observation",
        "id": "9beb5ac6-b0fc-4157-a3c6-04284873a8c3",
        "meta": {
          "profile": [
            "http://hl7.eu/fhir/laboratory/StructureDefinition/Observation-resultslab-eu-lab"
          ]
        },
        "performer": [
          {
            "display": "The Central European Lab"
          }
        ],
        "category": [
          {
            "coding": [
              {
                "system": "http://terminology.hl7.org/CodeSystem/observation-category",
                "code": "laboratory"
              }
            ]
          }
        ],
        "code": {
          "coding": [
            {
              "code": "34533-0",
              "system": "http://loinc.org",
              "display": "Odor of Urine"
            }
          ],
          "text": "Odor of Urine"
        },
        "text": {
          "status": "generated",
          "div": "<div xmlns=\"http://www.w3.org/1999/xhtml\"><table class=\"hl7__eu__lab__report\"><tr><th>Test</th><th>14-Mar-2021</th><th>Reference&#xA0;Range</th><th>Unit</th></tr><tr><td>Odor of Urine</td></tr></table></div>"
        },
        "status": "final",
        "subject": {
          "reference": "urn:uuid:e38de851-86c6-4ebc-b7c6-c1bbe0e4e743",
          "display": "Iva Kratochvílová"
        },
        "effectiveDateTime": "2021-03-14T16:10:29Z",
        "specimen": {
          "reference": "urn:uuid:3310cf99-ba0a-45dc-a15a-636a7a06b32e"
        }
      }
    },
    {
      "fullUrl": "urn:uuid:fa55125d-6b57-40da-8209-d7f766d9852b",
      "resource": {
        "resourceType": "Observation",
        "id": "fa55125d-6b57-40da-8209-d7f766d9852b",
        "meta": {
          "profile": [
            "http://hl7.eu/fhir/laboratory/StructureDefinition/Observation-resultslab-eu-lab"
          ]
        },
        "performer": [
          {
            "display": "The Central European Lab"
          }
        ],
        "category": [
          {
            "coding": [
              {
                "system": "http://terminology.hl7.org/CodeSystem/observation-category",
                "code": "laboratory"
              }
            ]
          }
        ],
        "code": {
          "coding": [
            {
              "code": "32167-9",
              "system": "http://loinc.org",
              "display": "Clarity of Urine"
            }
          ],
          "text": "Clarity of Urine"
        },
        "text": {
          "status": "generated",
          "div": "<div xmlns=\"http://www.w3.org/1999/xhtml\"><table class=\"hl7__eu__lab__report\"><tr><th>Test</th><th>14-Mar-2021</th><th>Reference&#xA0;Range</th><th>Unit</th></tr><tr><td>Clarity of Urine</td></tr></table></div>"
        },
        "status": "final",
        "subject": {
          "reference": "urn:uuid:e38de851-86c6-4ebc-b7c6-c1bbe0e4e743",
          "display": "Iva Kratochvílová"
        },
        "effectiveDateTime": "2021-03-14T16:10:29Z",
        "specimen": {
          "reference": "urn:uuid:3310cf99-ba0a-45dc-a15a-636a7a06b32e"
        }
      }
    },
    {
      "fullUrl": "urn:uuid:7dfe0a11-7730-43db-8dbc-892f12e9bd76",
      "resource": {
        "resourceType": "Observation",
        "id": "7dfe0a11-7730-43db-8dbc-892f12e9bd76",
        "meta": {
          "profile": [
            "http://hl7.eu/fhir/laboratory/StructureDefinition/Observation-resultslab-eu-lab"
          ]
        },
        "performer": [
          {
            "display": "The Central European Lab"
          }
        ],
        "category": [
          {
            "coding": [
              {
                "system": "http://terminology.hl7.org/CodeSystem/observation-category",
                "code": "laboratory"
              }
            ]
          }
        ],
        "code": {
          "coding": [
            {
              "code": "5778-6",
              "system": "http://loinc.org",
              "display": "Color of Urine"
            }
          ],
          "text": "Color of Urine"
        },
        "text": {
          "status": "generated",
          "div": "<div xmlns=\"http://www.w3.org/1999/xhtml\"><table class=\"hl7__eu__lab__report\"><tr><th>Test</th><th>14-Mar-2021</th><th>Reference&#xA0;Range</th><th>Unit</th></tr><tr><td>Color of Urine</td></tr></table></div>"
        },
        "status": "final",
        "subject": {
          "reference": "urn:uuid:e38de851-86c6-4ebc-b7c6-c1bbe0e4e743",
          "display": "Iva Kratochvílová"
        },
        "effectiveDateTime": "2021-03-14T16:10:29Z",
        "specimen": {
          "reference": "urn:uuid:3310cf99-ba0a-45dc-a15a-636a7a06b32e"
        }
      }
    },
    {
      "fullUrl": "urn:uuid:94c010e1-8746-495e-bcbe-b3201b139587",
      "resource": {
        "resourceType": "Observation",
        "id": "94c010e1-8746-495e-bcbe-b3201b139587",
        "meta": {
          "profile": [
            "http://hl7.eu/fhir/laboratory/StructureDefinition/Observation-resultslab-eu-lab"
          ]
        },
        "performer": [
          {
            "display": "The Central European Lab"
          }
        ],
        "category": [
          {
            "coding": [
              {
                "system": "http://terminology.hl7.org/CodeSystem/observation-category",
                "code": "laboratory"
              }
            ]
          }
        ],
        "code": {
          "coding": [
            {
              "code": "5792-7",
              "system": "http://loinc.org",
              "display": "Glucose [Mass/volume] in Urine by Test strip"
            }
          ],
          "text": "Glucose [Mass/volume] in Urine by Test strip"
        },
        "valueQuantity": {
          "system": "http://unitsofmeasure.org",
          "value": 1.1,
          "unit": "mg/dL",
          "code": "mg/dL"
        },
        "referenceRange": [
          {
            "low": {
              "value": 0,
              "code": "mg/dL",
              "system": "http://unitsofmeasure.org"
            }
          },
          {
            "high": {
              "value": 0.8,
              "code": "mg/dL",
              "system": "http://unitsofmeasure.org"
            }
          }
        ],
        "interpretation": [
          {
            "coding": [
              {
                "code": "H",
                "system": "http://terminology.hl7.org/CodeSystem/v3-ObservationInterpretation",
                "display": "High"
              }
            ]
          }
        ],
        "text": {
          "status": "generated",
          "div": "<div xmlns=\"http://www.w3.org/1999/xhtml\"><table class=\"hl7__eu__lab__report\"><tr><th>Test</th><th>14-Mar-2021</th><th>Reference&#xA0;Range</th><th>Unit</th></tr><tr><td>Glucose [Mass/volume] in Urine by Test strip</td><td>1.1</td><td>0 - 0.8</td><td>H</td><td>mg/dL</td></tr></table></div>"
        },
        "status": "final",
        "subject": {
          "reference": "urn:uuid:e38de851-86c6-4ebc-b7c6-c1bbe0e4e743",
          "display": "Iva Kratochvílová"
        },
        "effectiveDateTime": "2021-03-14T16:10:29Z",
        "specimen": {
          "reference": "urn:uuid:3310cf99-ba0a-45dc-a15a-636a7a06b32e"
        }
      }
    },
    {
      "fullUrl": "urn:uuid:f4d30054-d177-431d-9f44-c9752d21dfc9",
      "resource": {
        "resourceType": "Observation",
        "id": "f4d30054-d177-431d-9f44-c9752d21dfc9",
        "meta": {
          "profile": [
            "http://hl7.eu/fhir/laboratory/StructureDefinition/Observation-resultslab-eu-lab"
          ]
        },
        "performer": [
          {
            "display": "The Central European Lab"
          }
        ],
        "category": [
          {
            "coding": [
              {
                "system": "http://terminology.hl7.org/CodeSystem/observation-category",
                "code": "laboratory"
              }
            ]
          }
        ],
        "code": {
          "coding": [
            {
              "code": "25428-4",
              "system": "http://loinc.org",
              "display": "Glucose [Presence] in Urine by Test strip"
            }
          ],
          "text": "Glucose [Presence] in Urine by Test strip"
        },
        "text": {
          "status": "generated",
          "div": "<div xmlns=\"http://www.w3.org/1999/xhtml\"><table class=\"hl7__eu__lab__report\"><tr><th>Test</th><th>14-Mar-2021</th><th>Reference&#xA0;Range</th><th>Unit</th></tr><tr><td>Glucose [Presence] in Urine by Test strip</td></tr></table></div>"
        },
        "status": "final",
        "subject": {
          "reference": "urn:uuid:e38de851-86c6-4ebc-b7c6-c1bbe0e4e743",
          "display": "Iva Kratochvílová"
        },
        "effectiveDateTime": "2021-03-14T16:10:29Z",
        "specimen": {
          "reference": "urn:uuid:3310cf99-ba0a-45dc-a15a-636a7a06b32e"
        }
      }
    },
    {
      "fullUrl": "urn:uuid:a4d38b94-4147-444f-99ad-7000d3565e8c",
      "resource": {
        "resourceType": "Observation",
        "id": "a4d38b94-4147-444f-99ad-7000d3565e8c",
        "meta": {
          "profile": [
            "http://hl7.eu/fhir/laboratory/StructureDefinition/Observation-resultslab-eu-lab"
          ]
        },
        "performer": [
          {
            "display": "The Central European Lab"
          }
        ],
        "category": [
          {
            "coding": [
              {
                "system": "http://terminology.hl7.org/CodeSystem/observation-category",
                "code": "laboratory"
              }
            ]
          }
        ],
        "code": {
          "coding": [
            {
              "code": "20505-4",
              "system": "http://loinc.org",
              "display": "Bilirubin.total [Mass/volume] in Urine by Test strip"
            }
          ],
          "text": "Bilirubin.total [Mass/volume] in Urine by Test strip"
        },
        "valueQuantity": {
          "system": "http://unitsofmeasure.org",
          "value": 1.1,
          "unit": "mg/dL",
          "code": "mg/dL"
        },
        "referenceRange": [
          {
            "low": {
              "value": 0,
              "code": "mg/dL",
              "system": "http://unitsofmeasure.org"
            }
          },
          {
            "high": {
              "value": 1,
              "code": "mg/dL",
              "system": "http://unitsofmeasure.org"
            }
          }
        ],
        "interpretation": [
          {
            "coding": [
              {
                "code": "H",
                "system": "http://terminology.hl7.org/CodeSystem/v3-ObservationInterpretation",
                "display": "High"
              }
            ]
          }
        ],
        "text": {
          "status": "generated",
          "div": "<div xmlns=\"http://www.w3.org/1999/xhtml\"><table class=\"hl7__eu__lab__report\"><tr><th>Test</th><th>14-Mar-2021</th><th>Reference&#xA0;Range</th><th>Unit</th></tr><tr><td>Bilirubin.total [Mass/volume] in Urine by Test strip</td><td>1.1</td><td>0 - 1</td><td>H</td><td>mg/dL</td></tr></table></div>"
        },
        "status": "final",
        "subject": {
          "reference": "urn:uuid:e38de851-86c6-4ebc-b7c6-c1bbe0e4e743",
          "display": "Iva Kratochvílová"
        },
        "effectiveDateTime": "2021-03-14T16:10:29Z",
        "specimen": {
          "reference": "urn:uuid:3310cf99-ba0a-45dc-a15a-636a7a06b32e"
        }
      }
    },
    {
      "fullUrl": "urn:uuid:15e59904-1830-4eda-a6a4-52facbb202bc",
      "resource": {
        "resourceType": "Observation",
        "id": "15e59904-1830-4eda-a6a4-52facbb202bc",
        "meta": {
          "profile": [
            "http://hl7.eu/fhir/laboratory/StructureDefinition/Observation-resultslab-eu-lab"
          ]
        },
        "performer": [
          {
            "display": "The Central European Lab"
          }
        ],
        "category": [
          {
            "coding": [
              {
                "system": "http://terminology.hl7.org/CodeSystem/observation-category",
                "code": "laboratory"
              }
            ]
          }
        ],
        "code": {
          "coding": [
            {
              "code": "5770-3",
              "system": "http://loinc.org",
              "display": "Bilirubin.total [Presence] in Urine by Test strip"
            }
          ],
          "text": "Bilirubin.total [Presence] in Urine by Test strip"
        },
        "text": {
          "status": "generated",
          "div": "<div xmlns=\"http://www.w3.org/1999/xhtml\"><table class=\"hl7__eu__lab__report\"><tr><th>Test</th><th>14-Mar-2021</th><th>Reference&#xA0;Range</th><th>Unit</th></tr><tr><td>Bilirubin.total [Presence] in Urine by Test strip</td></tr></table></div>"
        },
        "status": "final",
        "subject": {
          "reference": "urn:uuid:e38de851-86c6-4ebc-b7c6-c1bbe0e4e743",
          "display": "Iva Kratochvílová"
        },
        "effectiveDateTime": "2021-03-14T16:10:29Z",
        "specimen": {
          "reference": "urn:uuid:3310cf99-ba0a-45dc-a15a-636a7a06b32e"
        }
      }
    },
    {
      "fullUrl": "urn:uuid:b447099d-e6b1-4624-9d36-d744d3dee147",
      "resource": {
        "resourceType": "Observation",
        "id": "b447099d-e6b1-4624-9d36-d744d3dee147",
        "meta": {
          "profile": [
            "http://hl7.eu/fhir/laboratory/StructureDefinition/Observation-resultslab-eu-lab"
          ]
        },
        "performer": [
          {
            "display": "The Central European Lab"
          }
        ],
        "category": [
          {
            "coding": [
              {
                "system": "http://terminology.hl7.org/CodeSystem/observation-category",
                "code": "laboratory"
              }
            ]
          }
        ],
        "code": {
          "coding": [
            {
              "code": "5797-6",
              "system": "http://loinc.org",
              "display": "Ketones [Mass/volume] in Urine by Test strip"
            }
          ],
          "text": "Ketones [Mass/volume] in Urine by Test strip"
        },
        "valueQuantity": {
          "system": "http://unitsofmeasure.org",
          "value": 15.3,
          "unit": "mg/dL",
          "code": "mg/dL"
        },
        "referenceRange": [
          {
            "low": {
              "value": 0,
              "code": "mg/dL",
              "system": "http://unitsofmeasure.org"
            }
          },
          {
            "high": {
              "value": 4,
              "code": "mg/dL",
              "system": "http://unitsofmeasure.org"
            }
          }
        ],
        "interpretation": [
          {
            "coding": [
              {
                "code": "H",
                "system": "http://terminology.hl7.org/CodeSystem/v3-ObservationInterpretation",
                "display": "High"
              }
            ]
          }
        ],
        "text": {
          "status": "generated",
          "div": "<div xmlns=\"http://www.w3.org/1999/xhtml\"><table class=\"hl7__eu__lab__report\"><tr><th>Test</th><th>14-Mar-2021</th><th>Reference&#xA0;Range</th><th>Unit</th></tr><tr><td>Ketones [Mass/volume] in Urine by Test strip</td><td>15.3</td><td>0 - 4</td><td>H</td><td>mg/dL</td></tr></table></div>"
        },
        "status": "final",
        "subject": {
          "reference": "urn:uuid:e38de851-86c6-4ebc-b7c6-c1bbe0e4e743",
          "display": "Iva Kratochvílová"
        },
        "effectiveDateTime": "2021-03-14T16:10:29Z",
        "specimen": {
          "reference": "urn:uuid:3310cf99-ba0a-45dc-a15a-636a7a06b32e"
        }
      }
    },
    {
      "fullUrl": "urn:uuid:d99fb715-50a8-4a3f-8708-cb11abb0a0d2",
      "resource": {
        "resourceType": "Observation",
        "id": "d99fb715-50a8-4a3f-8708-cb11abb0a0d2",
        "meta": {
          "profile": [
            "http://hl7.eu/fhir/laboratory/StructureDefinition/Observation-resultslab-eu-lab"
          ]
        },
        "performer": [
          {
            "display": "The Central European Lab"
          }
        ],
        "category": [
          {
            "coding": [
              {
                "system": "http://terminology.hl7.org/CodeSystem/observation-category",
                "code": "laboratory"
              }
            ]
          }
        ],
        "code": {
          "coding": [
            {
              "code": "2514-8",
              "system": "http://loinc.org",
              "display": "Ketones [Presence] in Urine by Test strip"
            }
          ],
          "text": "Ketones [Presence] in Urine by Test strip"
        },
        "text": {
          "status": "generated",
          "div": "<div xmlns=\"http://www.w3.org/1999/xhtml\"><table class=\"hl7__eu__lab__report\"><tr><th>Test</th><th>14-Mar-2021</th><th>Reference&#xA0;Range</th><th>Unit</th></tr><tr><td>Ketones [Presence] in Urine by Test strip</td></tr></table></div>"
        },
        "status": "final",
        "subject": {
          "reference": "urn:uuid:e38de851-86c6-4ebc-b7c6-c1bbe0e4e743",
          "display": "Iva Kratochvílová"
        },
        "effectiveDateTime": "2021-03-14T16:10:29Z",
        "specimen": {
          "reference": "urn:uuid:3310cf99-ba0a-45dc-a15a-636a7a06b32e"
        }
      }
    },
    {
      "fullUrl": "urn:uuid:a118d54d-f513-4f08-b4c1-0f3f897ddd54",
      "resource": {
        "resourceType": "Observation",
        "id": "a118d54d-f513-4f08-b4c1-0f3f897ddd54",
        "meta": {
          "profile": [
            "http://hl7.eu/fhir/laboratory/StructureDefinition/Observation-resultslab-eu-lab"
          ]
        },
        "performer": [
          {
            "display": "The Central European Lab"
          }
        ],
        "category": [
          {
            "coding": [
              {
                "system": "http://terminology.hl7.org/CodeSystem/observation-category",
                "code": "laboratory"
              }
            ]
          }
        ],
        "code": {
          "coding": [
            {
              "code": "5811-5",
              "system": "http://loinc.org",
              "display": "Specific gravity of Urine by Test strip"
            }
          ],
          "text": "Specific gravity of Urine by Test strip"
        },
        "valueQuantity": {
          "system": "http://unitsofmeasure.org",
          "value": 1,
          "unit": "{nominal}",
          "code": "{nominal}"
        },
        "referenceRange": [
          {
            "low": {
              "value": 1.005,
              "code": "g/mL",
              "system": "http://unitsofmeasure.org"
            }
          },
          {
            "high": {
              "value": 1.03,
              "code": "g/mL",
              "system": "http://unitsofmeasure.org"
            }
          }
        ],
        "interpretation": [
          {
            "coding": [
              {
                "code": "L",
                "system": "http://terminology.hl7.org/CodeSystem/v3-ObservationInterpretation",
                "display": "Low"
              }
            ]
          }
        ],
        "text": {
          "status": "generated",
          "div": "<div xmlns=\"http://www.w3.org/1999/xhtml\"><table class=\"hl7__eu__lab__report\"><tr><th>Test</th><th>14-Mar-2021</th><th>Reference&#xA0;Range</th><th>Unit</th></tr><tr><td>Specific gravity of Urine by Test strip</td><td>1.0</td><td>1.005 - 1.03</td><td>L</td><td>{nominal}</td></tr></table></div>"
        },
        "status": "final",
        "subject": {
          "reference": "urn:uuid:e38de851-86c6-4ebc-b7c6-c1bbe0e4e743",
          "display": "Iva Kratochvílová"
        },
        "effectiveDateTime": "2021-03-14T16:10:29Z",
        "specimen": {
          "reference": "urn:uuid:3310cf99-ba0a-45dc-a15a-636a7a06b32e"
        }
      }
    },
    {
      "fullUrl": "urn:uuid:28e2a45b-1f5f-443a-b5ae-4fd968ef106c",
      "resource": {
        "resourceType": "Observation",
        "id": "28e2a45b-1f5f-443a-b5ae-4fd968ef106c",
        "meta": {
          "profile": [
            "http://hl7.eu/fhir/laboratory/StructureDefinition/Observation-resultslab-eu-lab"
          ]
        },
        "performer": [
          {
            "display": "The Central European Lab"
          }
        ],
        "category": [
          {
            "coding": [
              {
                "system": "http://terminology.hl7.org/CodeSystem/observation-category",
                "code": "laboratory"
              }
            ]
          }
        ],
        "code": {
          "coding": [
            {
              "code": "5803-2",
              "system": "http://loinc.org",
              "display": "pH of Urine by Test strip"
            }
          ],
          "text": "pH of Urine by Test strip"
        },
        "valueQuantity": {
          "system": "http://unitsofmeasure.org",
          "value": 6.8,
          "unit": "pH",
          "code": "pH"
        },
        "referenceRange": [
          {
            "low": {
              "value": 4.5,
              "code": "pH",
              "system": "http://unitsofmeasure.org"
            }
          },
          {
            "high": {
              "value": 7,
              "code": "pH",
              "system": "http://unitsofmeasure.org"
            }
          }
        ],
        "text": {
          "status": "generated",
          "div": "<div xmlns=\"http://www.w3.org/1999/xhtml\"><table class=\"hl7__eu__lab__report\"><tr><th>Test</th><th>14-Mar-2021</th><th>Reference&#xA0;Range</th><th>Unit</th></tr><tr><td>pH of Urine by Test strip</td><td>6.8</td><td>4.5 - 7</td><td></td><td>pH</td></tr></table></div>"
        },
        "status": "final",
        "subject": {
          "reference": "urn:uuid:e38de851-86c6-4ebc-b7c6-c1bbe0e4e743",
          "display": "Iva Kratochvílová"
        },
        "effectiveDateTime": "2021-03-14T16:10:29Z",
        "specimen": {
          "reference": "urn:uuid:3310cf99-ba0a-45dc-a15a-636a7a06b32e"
        }
      }
    },
    {
      "fullUrl": "urn:uuid:ee97afab-1d83-4ec4-a329-49957b58b3c1",
      "resource": {
        "resourceType": "Observation",
        "id": "ee97afab-1d83-4ec4-a329-49957b58b3c1",
        "meta": {
          "profile": [
            "http://hl7.eu/fhir/laboratory/StructureDefinition/Observation-resultslab-eu-lab"
          ]
        },
        "performer": [
          {
            "display": "The Central European Lab"
          }
        ],
        "category": [
          {
            "coding": [
              {
                "system": "http://terminology.hl7.org/CodeSystem/observation-category",
                "code": "laboratory"
              }
            ]
          }
        ],
        "code": {
          "coding": [
            {
              "code": "5804-0",
              "system": "http://loinc.org",
              "display": "Protein [Mass/volume] in Urine by Test strip"
            }
          ],
          "text": "Protein [Mass/volume] in Urine by Test strip"
        },
        "valueQuantity": {
          "system": "http://unitsofmeasure.org",
          "value": 78.4,
          "unit": "mg/dL",
          "code": "mg/dL"
        },
        "referenceRange": [
          {
            "low": {
              "value": 0,
              "code": "mg/dL",
              "system": "http://unitsofmeasure.org"
            }
          },
          {
            "high": {
              "value": 145,
              "code": "mg/dL",
              "system": "http://unitsofmeasure.org"
            }
          }
        ],
        "text": {
          "status": "generated",
          "div": "<div xmlns=\"http://www.w3.org/1999/xhtml\"><table class=\"hl7__eu__lab__report\"><tr><th>Test</th><th>14-Mar-2021</th><th>Reference&#xA0;Range</th><th>Unit</th></tr><tr><td>Protein [Mass/volume] in Urine by Test strip</td><td>78.4</td><td>0 - 145</td><td></td><td>mg/dL</td></tr></table></div>"
        },
        "status": "final",
        "subject": {
          "reference": "urn:uuid:e38de851-86c6-4ebc-b7c6-c1bbe0e4e743",
          "display": "Iva Kratochvílová"
        },
        "effectiveDateTime": "2021-03-14T16:10:29Z",
        "specimen": {
          "reference": "urn:uuid:3310cf99-ba0a-45dc-a15a-636a7a06b32e"
        }
      }
    },
    {
      "fullUrl": "urn:uuid:849a3d61-ac07-4aa2-b5ed-a605483c31f0",
      "resource": {
        "resourceType": "Observation",
        "id": "849a3d61-ac07-4aa2-b5ed-a605483c31f0",
        "meta": {
          "profile": [
            "http://hl7.eu/fhir/laboratory/StructureDefinition/Observation-resultslab-eu-lab"
          ]
        },
        "performer": [
          {
            "display": "The Central European Lab"
          }
        ],
        "category": [
          {
            "coding": [
              {
                "system": "http://terminology.hl7.org/CodeSystem/observation-category",
                "code": "laboratory"
              }
            ]
          }
        ],
        "code": {
          "coding": [
            {
              "code": "20454-5",
              "system": "http://loinc.org",
              "display": "Protein [Presence] in Urine by Test strip"
            }
          ],
          "text": "Protein [Presence] in Urine by Test strip"
        },
        "text": {
          "status": "generated",
          "div": "<div xmlns=\"http://www.w3.org/1999/xhtml\"><table class=\"hl7__eu__lab__report\"><tr><th>Test</th><th>14-Mar-2021</th><th>Reference&#xA0;Range</th><th>Unit</th></tr><tr><td>Protein [Presence] in Urine by Test strip</td></tr></table></div>"
        },
        "status": "final",
        "subject": {
          "reference": "urn:uuid:e38de851-86c6-4ebc-b7c6-c1bbe0e4e743",
          "display": "Iva Kratochvílová"
        },
        "effectiveDateTime": "2021-03-14T16:10:29Z",
        "specimen": {
          "reference": "urn:uuid:3310cf99-ba0a-45dc-a15a-636a7a06b32e"
        }
      }
    },
    {
      "fullUrl": "urn:uuid:243a3633-e6a1-4e73-b879-1caaaa3397c4",
      "resource": {
        "resourceType": "Observation",
        "id": "243a3633-e6a1-4e73-b879-1caaaa3397c4",
        "meta": {
          "profile": [
            "http://hl7.eu/fhir/laboratory/StructureDefinition/Observation-resultslab-eu-lab"
          ]
        },
        "performer": [
          {
            "display": "The Central European Lab"
          }
        ],
        "category": [
          {
            "coding": [
              {
                "system": "http://terminology.hl7.org/CodeSystem/observation-category",
                "code": "laboratory"
              }
            ]
          }
        ],
        "code": {
          "coding": [
            {
              "code": "5802-4",
              "system": "http://loinc.org",
              "display": "Nitrite [Presence] in Urine by Test strip"
            }
          ],
          "text": "Nitrite [Presence] in Urine by Test strip"
        },
        "text": {
          "status": "generated",
          "div": "<div xmlns=\"http://www.w3.org/1999/xhtml\"><table class=\"hl7__eu__lab__report\"><tr><th>Test</th><th>14-Mar-2021</th><th>Reference&#xA0;Range</th><th>Unit</th></tr><tr><td>Nitrite [Presence] in Urine by Test strip</td></tr></table></div>"
        },
        "status": "final",
        "subject": {
          "reference": "urn:uuid:e38de851-86c6-4ebc-b7c6-c1bbe0e4e743",
          "display": "Iva Kratochvílová"
        },
        "effectiveDateTime": "2021-03-14T16:10:29Z",
        "specimen": {
          "reference": "urn:uuid:3310cf99-ba0a-45dc-a15a-636a7a06b32e"
        }
      }
    },
    {
      "fullUrl": "urn:uuid:592fe969-5eea-4175-bbb6-8f0c9526e72e",
      "resource": {
        "resourceType": "Observation",
        "id": "592fe969-5eea-4175-bbb6-8f0c9526e72e",
        "meta": {
          "profile": [
            "http://hl7.eu/fhir/laboratory/StructureDefinition/Observation-resultslab-eu-lab"
          ]
        },
        "performer": [
          {
            "display": "The Central European Lab"
          }
        ],
        "category": [
          {
            "coding": [
              {
                "system": "http://terminology.hl7.org/CodeSystem/observation-category",
                "code": "laboratory"
              }
            ]
          }
        ],
        "code": {
          "coding": [
            {
              "code": "5794-3",
              "system": "http://loinc.org",
              "display": "Hemoglobin [Presence] in Urine by Test strip"
            }
          ],
          "text": "Hemoglobin [Presence] in Urine by Test strip"
        },
        "text": {
          "status": "generated",
          "div": "<div xmlns=\"http://www.w3.org/1999/xhtml\"><table class=\"hl7__eu__lab__report\"><tr><th>Test</th><th>14-Mar-2021</th><th>Reference&#xA0;Range</th><th>Unit</th></tr><tr><td>Hemoglobin [Presence] in Urine by Test strip</td></tr></table></div>"
        },
        "status": "final",
        "subject": {
          "reference": "urn:uuid:e38de851-86c6-4ebc-b7c6-c1bbe0e4e743",
          "display": "Iva Kratochvílová"
        },
        "effectiveDateTime": "2021-03-14T16:10:29Z",
        "specimen": {
          "reference": "urn:uuid:3310cf99-ba0a-45dc-a15a-636a7a06b32e"
        }
      }
    },
    {
      "fullUrl": "urn:uuid:d7236fbb-9a61-4e1f-ac2f-2cb78af054be",
      "resource": {
        "resourceType": "Observation",
        "id": "d7236fbb-9a61-4e1f-ac2f-2cb78af054be",
        "meta": {
          "profile": [
            "http://hl7.eu/fhir/laboratory/StructureDefinition/Observation-resultslab-eu-lab"
          ]
        },
        "performer": [
          {
            "display": "The Central European Lab"
          }
        ],
        "category": [
          {
            "coding": [
              {
                "system": "http://terminology.hl7.org/CodeSystem/observation-category",
                "code": "laboratory"
              }
            ]
          }
        ],
        "code": {
          "coding": [
            {
              "code": "5799-2",
              "system": "http://loinc.org",
              "display": "Leukocyte esterase [Presence] in Urine by Test strip"
            }
          ],
          "text": "Leukocyte esterase [Presence] in Urine by Test strip"
        },
        "text": {
          "status": "generated",
          "div": "<div xmlns=\"http://www.w3.org/1999/xhtml\"><table class=\"hl7__eu__lab__report\"><tr><th>Test</th><th>14-Mar-2021</th><th>Reference&#xA0;Range</th><th>Unit</th></tr><tr><td>Leukocyte esterase [Presence] in Urine by Test strip</td></tr></table></div>"
        },
        "status": "final",
        "subject": {
          "reference": "urn:uuid:e38de851-86c6-4ebc-b7c6-c1bbe0e4e743",
          "display": "Iva Kratochvílová"
        },
        "effectiveDateTime": "2021-03-14T16:10:29Z",
        "specimen": {
          "reference": "urn:uuid:3310cf99-ba0a-45dc-a15a-636a7a06b32e"
        }
      }
    },
    {
      "fullUrl": "urn:uuid:5d36113a-b4e5-44e8-9e16-83da161dcdbd",
      "resource": {
        "resourceType": "Observation",
        "id": "5d36113a-b4e5-44e8-9e16-83da161dcdbd",
        "meta": {
          "profile": [
            "http://hl7.eu/fhir/laboratory/StructureDefinition/Observation-resultslab-eu-lab"
          ]
        },
        "performer": [
          {
            "display": "The Central European Lab"
          }
        ],
        "category": [
          {
            "coding": [
              {
                "system": "http://terminology.hl7.org/CodeSystem/observation-category",
                "code": "laboratory"
              }
            ]
          }
        ],
        "code": {
          "coding": [
            {
              "code": "4548-4",
              "system": "http://loinc.org",
              "display": "Hemoglobin A1c/Hemoglobin.total in Blood"
            }
          ],
          "text": "Hemoglobin A1c/Hemoglobin.total in Blood"
        },
        "valueQuantity": {
          "system": "http://unitsofmeasure.org",
          "value": 2.9,
          "unit": "%",
          "code": "%"
        },
        "referenceRange": [
          {
            "low": {
              "value": 4,
              "code": "%",
              "system": "http://unitsofmeasure.org"
            }
          },
          {
            "high": {
              "value": 6,
              "code": "%",
              "system": "http://unitsofmeasure.org"
            }
          }
        ],
        "interpretation": [
          {
            "coding": [
              {
                "code": "L",
                "system": "http://terminology.hl7.org/CodeSystem/v3-ObservationInterpretation",
                "display": "Low"
              }
            ]
          }
        ],
        "text": {
          "status": "generated",
          "div": "<div xmlns=\"http://www.w3.org/1999/xhtml\"><table class=\"hl7__eu__lab__report\"><tr><th>Test</th><th>14-Mar-2021</th><th>Reference&#xA0;Range</th><th>Unit</th></tr><tr><td>Hemoglobin A1c/Hemoglobin.total in Blood</td><td>2.9</td><td>4 - 6</td><td>L</td><td>%</td></tr></table></div>"
        },
        "status": "final",
        "subject": {
          "reference": "urn:uuid:e38de851-86c6-4ebc-b7c6-c1bbe0e4e743",
          "display": "Iva Kratochvílová"
        },
        "effectiveDateTime": "2021-03-14T16:10:29Z",
        "specimen": {
          "reference": "urn:uuid:3030959d-e2b2-4595-b266-9cb623ea248a"
        }
      }
    },
    {
      "fullUrl": "urn:uuid:9963e1e2-d7f5-468f-84fd-45273474e1b4",
      "resource": {
        "resourceType": "Observation",
        "id": "9963e1e2-d7f5-468f-84fd-45273474e1b4",
        "meta": {
          "profile": [
            "http://hl7.eu/fhir/laboratory/StructureDefinition/Observation-resultslab-eu-lab"
          ]
        },
        "performer": [
          {
            "display": "The Central European Lab"
          }
        ],
        "category": [
          {
            "coding": [
              {
                "system": "http://terminology.hl7.org/CodeSystem/observation-category",
                "code": "laboratory"
              }
            ]
          }
        ],
        "code": {
          "coding": [
            {
              "code": "2339-0",
              "system": "http://loinc.org",
              "display": "Glucose [Mass/volume] in Blood"
            }
          ],
          "text": "Glucose [Mass/volume] in Blood"
        },
        "valueQuantity": {
          "system": "http://unitsofmeasure.org",
          "value": 77.9,
          "unit": "mg/dL",
          "code": "mg/dL"
        },
        "referenceRange": [
          {
            "low": {
              "value": 70,
              "code": "mg/dL",
              "system": "http://unitsofmeasure.org"
            }
          },
          {
            "high": {
              "value": 140,
              "code": "mg/dL",
              "system": "http://unitsofmeasure.org"
            }
          }
        ],
        "text": {
          "status": "generated",
          "div": "<div xmlns=\"http://www.w3.org/1999/xhtml\"><table class=\"hl7__eu__lab__report\"><tr><th>Test</th><th>14-Mar-2021</th><th>Reference&#xA0;Range</th><th>Unit</th></tr><tr><td>Glucose [Mass/volume] in Blood</td><td>77.9</td><td>70 - 140</td><td></td><td>mg/dL</td></tr></table></div>"
        },
        "status": "final",
        "subject": {
          "reference": "urn:uuid:e38de851-86c6-4ebc-b7c6-c1bbe0e4e743",
          "display": "Iva Kratochvílová"
        },
        "effectiveDateTime": "2021-03-14T16:10:29Z",
        "specimen": {
          "reference": "urn:uuid:3030959d-e2b2-4595-b266-9cb623ea248a"
        }
      }
    },
    {
      "fullUrl": "urn:uuid:126496f5-21e9-4403-8ba8-193ad3593cd6",
      "resource": {
        "resourceType": "Observation",
        "id": "126496f5-21e9-4403-8ba8-193ad3593cd6",
        "meta": {
          "profile": [
            "http://hl7.eu/fhir/laboratory/StructureDefinition/Observation-resultslab-eu-lab"
          ]
        },
        "performer": [
          {
            "display": "The Central European Lab"
          }
        ],
        "category": [
          {
            "coding": [
              {
                "system": "http://terminology.hl7.org/CodeSystem/observation-category",
                "code": "laboratory"
              }
            ]
          }
        ],
        "code": {
          "coding": [
            {
              "code": "6299-2",
              "system": "http://loinc.org",
              "display": "Urea nitrogen [Mass/volume] in Blood"
            }
          ],
          "text": "Urea nitrogen [Mass/volume] in Blood"
        },
        "valueQuantity": {
          "system": "http://unitsofmeasure.org",
          "value": 19.5,
          "unit": "mg/dL",
          "code": "mg/dL"
        },
        "referenceRange": [
          {
            "low": {
              "value": 7,
              "code": "mg/dL",
              "system": "http://unitsofmeasure.org"
            }
          },
          {
            "high": {
              "value": 25,
              "code": "mg/dL",
              "system": "http://unitsofmeasure.org"
            }
          }
        ],
        "text": {
          "status": "generated",
          "div": "<div xmlns=\"http://www.w3.org/1999/xhtml\"><table class=\"hl7__eu__lab__report\"><tr><th>Test</th><th>14-Mar-2021</th><th>Reference&#xA0;Range</th><th>Unit</th></tr><tr><td>Urea nitrogen [Mass/volume] in Blood</td><td>19.5</td><td>7 - 25</td><td></td><td>mg/dL</td></tr></table></div>"
        },
        "status": "final",
        "subject": {
          "reference": "urn:uuid:e38de851-86c6-4ebc-b7c6-c1bbe0e4e743",
          "display": "Iva Kratochvílová"
        },
        "effectiveDateTime": "2021-03-14T16:10:29Z",
        "specimen": {
          "reference": "urn:uuid:3030959d-e2b2-4595-b266-9cb623ea248a"
        }
      }
    },
    {
      "fullUrl": "urn:uuid:76f5628d-e70c-44dd-b2f4-64961abcd573",
      "resource": {
        "resourceType": "Observation",
        "id": "76f5628d-e70c-44dd-b2f4-64961abcd573",
        "meta": {
          "profile": [
            "http://hl7.eu/fhir/laboratory/StructureDefinition/Observation-resultslab-eu-lab"
          ]
        },
        "performer": [
          {
            "display": "The Central European Lab"
          }
        ],
        "category": [
          {
            "coding": [
              {
                "system": "http://terminology.hl7.org/CodeSystem/observation-category",
                "code": "laboratory"
              }
            ]
          }
        ],
        "code": {
          "coding": [
            {
              "code": "38483-4",
              "system": "http://loinc.org",
              "display": "Creatinine [Mass/volume] in Blood"
            }
          ],
          "text": "Creatinine [Mass/volume] in Blood"
        },
        "valueQuantity": {
          "system": "http://unitsofmeasure.org",
          "value": 1,
          "unit": "mg/dL",
          "code": "mg/dL"
        },
        "referenceRange": [
          {
            "low": {
              "value": 0.6,
              "code": "mg/dL",
              "system": "http://unitsofmeasure.org"
            }
          },
          {
            "high": {
              "value": 1.1,
              "code": "mg/dL",
              "system": "http://unitsofmeasure.org"
            }
          }
        ],
        "text": {
          "status": "generated",
          "div": "<div xmlns=\"http://www.w3.org/1999/xhtml\"><table class=\"hl7__eu__lab__report\"><tr><th>Test</th><th>14-Mar-2021</th><th>Reference&#xA0;Range</th><th>Unit</th></tr><tr><td>Creatinine [Mass/volume] in Blood</td><td>1.0</td><td>0.6 - 1.1</td><td></td><td>mg/dL</td></tr></table></div>"
        },
        "status": "final",
        "subject": {
          "reference": "urn:uuid:e38de851-86c6-4ebc-b7c6-c1bbe0e4e743",
          "display": "Iva Kratochvílová"
        },
        "effectiveDateTime": "2021-03-14T16:10:29Z",
        "specimen": {
          "reference": "urn:uuid:3030959d-e2b2-4595-b266-9cb623ea248a"
        }
      }
    },
    {
      "fullUrl": "urn:uuid:d433395a-2a15-4e0c-a8d0-491e2b23ad75",
      "resource": {
        "resourceType": "Observation",
        "id": "d433395a-2a15-4e0c-a8d0-491e2b23ad75",
        "meta": {
          "profile": [
            "http://hl7.eu/fhir/laboratory/StructureDefinition/Observation-resultslab-eu-lab"
          ]
        },
        "performer": [
          {
            "display": "The Central European Lab"
          }
        ],
        "category": [
          {
            "coding": [
              {
                "system": "http://terminology.hl7.org/CodeSystem/observation-category",
                "code": "laboratory"
              }
            ]
          }
        ],
        "code": {
          "coding": [
            {
              "code": "49765-1",
              "system": "http://loinc.org",
              "display": "Calcium [Mass/volume] in Blood"
            }
          ],
          "text": "Calcium [Mass/volume] in Blood"
        },
        "valueQuantity": {
          "system": "http://unitsofmeasure.org",
          "value": 10.2,
          "unit": "mg/dL",
          "code": "mg/dL"
        },
        "referenceRange": [
          {
            "low": {
              "value": 8.6,
              "code": "mg/dL",
              "system": "http://unitsofmeasure.org"
            }
          },
          {
            "high": {
              "value": 10.4,
              "code": "mg/dL",
              "system": "http://unitsofmeasure.org"
            }
          }
        ],
        "text": {
          "status": "generated",
          "div": "<div xmlns=\"http://www.w3.org/1999/xhtml\"><table class=\"hl7__eu__lab__report\"><tr><th>Test</th><th>14-Mar-2021</th><th>Reference&#xA0;Range</th><th>Unit</th></tr><tr><td>Calcium [Mass/volume] in Blood</td><td>10.2</td><td>8.6 - 10.4</td><td></td><td>mg/dL</td></tr></table></div>"
        },
        "status": "final",
        "subject": {
          "reference": "urn:uuid:e38de851-86c6-4ebc-b7c6-c1bbe0e4e743",
          "display": "Iva Kratochvílová"
        },
        "effectiveDateTime": "2021-03-14T16:10:29Z",
        "specimen": {
          "reference": "urn:uuid:3030959d-e2b2-4595-b266-9cb623ea248a"
        }
      }
    },
    {
      "fullUrl": "urn:uuid:7f8ff73c-5658-4e43-95b8-270da01aad83",
      "resource": {
        "resourceType": "Observation",
        "id": "7f8ff73c-5658-4e43-95b8-270da01aad83",
        "meta": {
          "profile": [
            "http://hl7.eu/fhir/laboratory/StructureDefinition/Observation-resultslab-eu-lab"
          ]
        },
        "performer": [
          {
            "display": "The Central European Lab"
          }
        ],
        "category": [
          {
            "coding": [
              {
                "system": "http://terminology.hl7.org/CodeSystem/observation-category",
                "code": "laboratory"
              }
            ]
          }
        ],
        "code": {
          "coding": [
            {
              "code": "2947-0",
              "system": "http://loinc.org",
              "display": "Sodium [Moles/volume] in Blood"
            }
          ],
          "text": "Sodium [Moles/volume] in Blood"
        },
        "valueQuantity": {
          "system": "http://unitsofmeasure.org",
          "value": 138.4,
          "unit": "mmol/L",
          "code": "mmol/L"
        },
        "referenceRange": [
          {
            "low": {
              "value": 135,
              "code": "mmol/L",
              "system": "http://unitsofmeasure.org"
            }
          },
          {
            "high": {
              "value": 145,
              "code": "mmol/L",
              "system": "http://unitsofmeasure.org"
            }
          }
        ],
        "text": {
          "status": "generated",
          "div": "<div xmlns=\"http://www.w3.org/1999/xhtml\"><table class=\"hl7__eu__lab__report\"><tr><th>Test</th><th>14-Mar-2021</th><th>Reference&#xA0;Range</th><th>Unit</th></tr><tr><td>Sodium [Moles/volume] in Blood</td><td>138.4</td><td>135 - 145</td><td></td><td>mmol/L</td></tr></table></div>"
        },
        "status": "final",
        "subject": {
          "reference": "urn:uuid:e38de851-86c6-4ebc-b7c6-c1bbe0e4e743",
          "display": "Iva Kratochvílová"
        },
        "effectiveDateTime": "2021-03-14T16:10:29Z",
        "specimen": {
          "reference": "urn:uuid:3030959d-e2b2-4595-b266-9cb623ea248a"
        }
      }
    },
    {
      "fullUrl": "urn:uuid:9c63ed1b-818c-4b7b-b53a-4d176f733e15",
      "resource": {
        "resourceType": "Observation",
        "id": "9c63ed1b-818c-4b7b-b53a-4d176f733e15",
        "meta": {
          "profile": [
            "http://hl7.eu/fhir/laboratory/StructureDefinition/Observation-resultslab-eu-lab"
          ]
        },
        "performer": [
          {
            "display": "The Central European Lab"
          }
        ],
        "category": [
          {
            "coding": [
              {
                "system": "http://terminology.hl7.org/CodeSystem/observation-category",
                "code": "laboratory"
              }
            ]
          }
        ],
        "code": {
          "coding": [
            {
              "code": "6298-4",
              "system": "http://loinc.org",
              "display": "Potassium [Moles/volume] in Blood"
            }
          ],
          "text": "Potassium [Moles/volume] in Blood"
        },
        "valueQuantity": {
          "system": "http://unitsofmeasure.org",
          "value": 4.1,
          "unit": "mmol/L",
          "code": "mmol/L"
        },
        "referenceRange": [
          {
            "low": {
              "value": 3.5,
              "code": "mmol/L",
              "system": "http://unitsofmeasure.org"
            }
          },
          {
            "high": {
              "value": 5.1,
              "code": "mmol/L",
              "system": "http://unitsofmeasure.org"
            }
          }
        ],
        "text": {
          "status": "generated",
          "div": "<div xmlns=\"http://www.w3.org/1999/xhtml\"><table class=\"hl7__eu__lab__report\"><tr><th>Test</th><th>14-Mar-2021</th><th>Reference&#xA0;Range</th><th>Unit</th></tr><tr><td>Potassium [Moles/volume] in Blood</td><td>4.1</td><td>3.5 - 5.1</td><td></td><td>mmol/L</td></tr></table></div>"
        },
        "status": "final",
        "subject": {
          "reference": "urn:uuid:e38de851-86c6-4ebc-b7c6-c1bbe0e4e743",
          "display": "Iva Kratochvílová"
        },
        "effectiveDateTime": "2021-03-14T16:10:29Z",
        "specimen": {
          "reference": "urn:uuid:3030959d-e2b2-4595-b266-9cb623ea248a"
        }
      }
    },
    {
      "fullUrl": "urn:uuid:cfb202b3-f190-4811-a880-0454d87671da",
      "resource": {
        "resourceType": "Observation",
        "id": "cfb202b3-f190-4811-a880-0454d87671da",
        "meta": {
          "profile": [
            "http://hl7.eu/fhir/laboratory/StructureDefinition/Observation-resultslab-eu-lab"
          ]
        },
        "performer": [
          {
            "display": "The Central European Lab"
          }
        ],
        "category": [
          {
            "coding": [
              {
                "system": "http://terminology.hl7.org/CodeSystem/observation-category",
                "code": "laboratory"
              }
            ]
          }
        ],
        "code": {
          "coding": [
            {
              "code": "2069-3",
              "system": "http://loinc.org",
              "display": "Chloride [Moles/volume] in Blood"
            }
          ],
          "text": "Chloride [Moles/volume] in Blood"
        },
        "valueQuantity": {
          "system": "http://unitsofmeasure.org",
          "value": 106.3,
          "unit": "mmol/L",
          "code": "mmol/L"
        },
        "referenceRange": [
          {
            "low": {
              "value": 98,
              "code": "mmol/L",
              "system": "http://unitsofmeasure.org"
            }
          },
          {
            "high": {
              "value": 110,
              "code": "mmol/L",
              "system": "http://unitsofmeasure.org"
            }
          }
        ],
        "text": {
          "status": "generated",
          "div": "<div xmlns=\"http://www.w3.org/1999/xhtml\"><table class=\"hl7__eu__lab__report\"><tr><th>Test</th><th>14-Mar-2021</th><th>Reference&#xA0;Range</th><th>Unit</th></tr><tr><td>Chloride [Moles/volume] in Blood</td><td>106.3</td><td>98 - 110</td><td></td><td>mmol/L</td></tr></table></div>"
        },
        "status": "final",
        "subject": {
          "reference": "urn:uuid:e38de851-86c6-4ebc-b7c6-c1bbe0e4e743",
          "display": "Iva Kratochvílová"
        },
        "effectiveDateTime": "2021-03-14T16:10:29Z",
        "specimen": {
          "reference": "urn:uuid:3030959d-e2b2-4595-b266-9cb623ea248a"
        }
      }
    },
    {
      "fullUrl": "urn:uuid:dc05683a-c06c-4265-9cfe-781605362bdc",
      "resource": {
        "resourceType": "Observation",
        "id": "dc05683a-c06c-4265-9cfe-781605362bdc",
        "meta": {
          "profile": [
            "http://hl7.eu/fhir/laboratory/StructureDefinition/Observation-resultslab-eu-lab"
          ]
        },
        "performer": [
          {
            "display": "The Central European Lab"
          }
        ],
        "category": [
          {
            "coding": [
              {
                "system": "http://terminology.hl7.org/CodeSystem/observation-category",
                "code": "laboratory"
              }
            ]
          }
        ],
        "code": {
          "coding": [
            {
              "code": "20565-8",
              "system": "http://loinc.org",
              "display": "Carbon dioxide, total [Moles/volume] in Blood"
            }
          ],
          "text": "Carbon dioxide, total [Moles/volume] in Blood"
        },
        "valueQuantity": {
          "system": "http://unitsofmeasure.org",
          "value": 27.1,
          "unit": "mmol/L",
          "code": "mmol/L"
        },
        "referenceRange": [
          {
            "low": {
              "value": 22,
              "code": "mmol/L",
              "system": "http://unitsofmeasure.org"
            }
          },
          {
            "high": {
              "value": 29,
              "code": "mmol/L",
              "system": "http://unitsofmeasure.org"
            }
          }
        ],
        "text": {
          "status": "generated",
          "div": "<div xmlns=\"http://www.w3.org/1999/xhtml\"><table class=\"hl7__eu__lab__report\"><tr><th>Test</th><th>14-Mar-2021</th><th>Reference&#xA0;Range</th><th>Unit</th></tr><tr><td>Carbon dioxide, total [Moles/volume] in Blood</td><td>27.1</td><td>22 - 29</td><td></td><td>mmol/L</td></tr></table></div>"
        },
        "status": "final",
        "subject": {
          "reference": "urn:uuid:e38de851-86c6-4ebc-b7c6-c1bbe0e4e743",
          "display": "Iva Kratochvílová"
        },
        "effectiveDateTime": "2021-03-14T16:10:29Z",
        "specimen": {
          "reference": "urn:uuid:3030959d-e2b2-4595-b266-9cb623ea248a"
        }
      }
    },
    {
      "fullUrl": "urn:uuid:1dca8b57-1a5b-4ef9-ae7e-ac93488849aa",
      "resource": {
        "resourceType": "Device",
        "id": "1dca8b57-1a5b-4ef9-ae7e-ac93488849aa",
        "deviceName": [
          {
            "name": "SYNDERAI Synthetic Generator",
            "type": "manufacturer-name"
          }
        ],
        "version": [
          {
            "value": "5.0"
          }
        ],
        "text": {
          "status": "generated",
          "div": "<div xmlns=\"http://www.w3.org/1999/xhtml\">SYNDERAI Synthetic Generator v5.0</div>"
        },
        "status": "active\"",
        "distinctIdentifier": "synderai-generator-50",
        "manufacturer": "SYNDERAI Project"
      }
    },
    {
      "fullUrl": "urn:uuid:7b6a7a2b-2752-4327-9b3f-c90ef9670453",
      "resource": {
        "resourceType": "Provenance",
        "id": "7b6a7a2b-2752-4327-9b3f-c90ef9670453",
        "target": [
          {
            "reference": "Patient/e38de851-86c6-4ebc-b7c6-c1bbe0e4e743"
          },
          {
            "reference": "Bundle/3399c886-aa16-4aa9-bef1-d9da24f44b9f"
          },
          {
            "reference": "Composition/24b73398-7554-4cb3-abb6-3ebd89086fbc"
          },
          {
            "reference": "PractitionerRole/026e6529-de84-4d48-b0d6-603ef040ded6"
          },
          {
            "reference": "Practitioner/f4e64274-bbe4-44e9-9a68-5c51c88891be"
          },
          {
            "reference": "PractitionerRole/fd620345-28c1-4177-bfa4-4fe95602d030"
          },
          {
            "reference": "Organization/f4560a59-036c-4184-afb9-95553d00be52"
          }
        ],
        "activity": {
          "text": "Synthetic Example Data Generation"
        },
        "policy": [
          "https://synderai.net/synderai-synthetic-data-policy"
        ],
        "agent": [
          {
            "type": {
              "text": "author"
            },
            "who": {
              "reference": "Device/1dca8b57-1a5b-4ef9-ae7e-ac93488849aa"
            }
          }
        ],
        "reason": [
          {
            "text": "Interoperability Testing and Training (non-clinical use)"
          }
        ],
        "text": {
          "status": "generated",
          "div": "<div xmlns=\"http://www.w3.org/1999/xhtml\">Provenance for SYNDERAI Synthetic Example Data Resource</div>"
        },
        "recorded": "2021-03-14T17:10:29Z"
      }
    },
    {
      "fullUrl": "urn:uuid:026e6529-de84-4d48-b0d6-603ef040ded6",
      "resource": {
        "resourceType": "PractitionerRole",
        "id": "026e6529-de84-4d48-b0d6-603ef040ded6",
        "meta": {
          "profile": [
            "http://hl7.eu/fhir/base/StructureDefinition/practitionerRole-eu"
          ]
        },
        "text": {
          "status": "generated",
          "div": "<div xmlns=\"http://www.w3.org/1999/xhtml\">Laboratory Role Id: 026e6529-de84-4d48-b0d6-603ef040ded6</div>"
        },
        "practitioner": {
          "reference": "urn:uuid:f4e64274-bbe4-44e9-9a68-5c51c88891be"
        }
      }
    },
    {
      "fullUrl": "urn:uuid:f4e64274-bbe4-44e9-9a68-5c51c88891be",
      "resource": {
        "resourceType": "Practitioner",
        "id": "f4e64274-bbe4-44e9-9a68-5c51c88891be",
        "meta": {
          "profile": [
            "http://hl7.eu/fhir/base/StructureDefinition/practitioner-eu"
          ]
        },
        "identifier": [
          {
            "assigner": {
              "display": "HL7 Europe"
            },
            "system": "urn:oid:2.16.840.1.113883.2.51.999",
            "value": "17aa065b-6cc4-4733-8370-1aca560e19bc"
          }
        ],
        "name": [
          {
            "prefix": [
              "dr"
            ],
            "given": [
              "Ex"
            ],
            "family": "Ample"
          }
        ],
        "address": [
          {
            "line": [
              "Laboratoire Central Européenne",
              "Boulevard du Jardin Botanique 32"
            ],
            "postalCode": "1000",
            "city": "Brussels",
            "country": "Belgium"
          }
        ],
        "text": {
          "status": "generated",
          "div": "<div xmlns=\"http://www.w3.org/1999/xhtml\">Laboratory: Laboratoire Central Européenne, 1000 Brussels, Belgium</div>"
        }
      }
    }
  ],
  "type": "document",
  "timestamp": "2021-03-14T17:10:29Z"
}
