{
  "resourceType": "Bundle",
  "id": "b702222b-d2dc-41f8-ac1c-2b74d32ad5d6",
  "meta": {
    "profile": [
      "http://hl7.eu/fhir/laboratory/StructureDefinition/Bundle-eu-lab"
    ]
  },
  "identifier": {
    "assigner": {
      "display": "HL7 Europe"
    },
    "system": "urn:oid:2.16.840.1.113883.2.51.999",
    "value": "40c7f983-02c0-45b9-bda7-909210ff1549"
  },
  "entry": [
    {
      "fullUrl": "urn:uuid:45e1c446-e73c-4d05-a24a-d429c57bb055",
      "resource": {
        "resourceType": "Composition",
        "id": "45e1c446-e73c-4d05-a24a-d429c57bb055",
        "meta": {
          "profile": [
            "http://hl7.eu/fhir/laboratory/StructureDefinition/Composition-eu-lab"
          ]
        },
        "identifier": {
          "assigner": {
            "display": "HL7 Europe"
          },
          "system": "urn:oid:2.16.840.1.113883.2.51.999",
          "value": "d8e8c392-fd2f-40aa-9d09-6c8f7fe340c7"
        },
        "author": [
          {
            "reference": "urn:uuid:627014c5-352b-4e2f-9d8c-3be422651e4b"
          }
        ],
        "category": [
          {
            "coding": [
              {
                "code": "26436-6",
                "system": "http://loinc.org",
                "display": "Laboratory studies (set)"
              }
            ]
          }
        ],
        "type": {
          "coding": [
            {
              "code": "11502-2",
              "system": "http://loinc.org",
              "display": "Laboratory report"
            }
          ],
          "text": "Laboratory Report"
        },
        "section": [
          {
            "code": {
              "coding": [
                {
                  "code": "26436-6",
                  "system": "http://loinc.org",
                  "display": "Laboratory studies (set)"
                }
              ],
              "text": "Laboratory studies"
            },
            "section": [
              {
                "code": {
                  "coding": [
                    {
                      "code": "$18719-5",
                      "system": "http://loinc.org",
                      "display": "Chemistry studies (set)"
                    }
                  ],
                  "text": "Chemistry"
                },
                "entry": [
                  {
                    "reference": "urn:uuid:245d0221-54c6-4974-8abf-1d9c61d7f737"
                  },
                  {
                    "reference": "urn:uuid:9cf12b03-cc8f-4241-bf22-23e6b53beb57"
                  },
                  {
                    "reference": "urn:uuid:716ca4c5-fe87-407a-ae65-ef1d2c9fe0ad"
                  },
                  {
                    "reference": "urn:uuid:947b3b80-c754-4bd0-986c-3e73b44528ce"
                  },
                  {
                    "reference": "urn:uuid:5e045452-6b49-435b-8ce7-61450e67bc86"
                  },
                  {
                    "reference": "urn:uuid:d195d581-e9bc-4485-a0ae-07d67b1dc68b"
                  },
                  {
                    "reference": "urn:uuid:7289bccd-79fa-47d3-b33a-10d5db72b88b"
                  },
                  {
                    "reference": "urn:uuid:2f5b73fc-0c82-4b5e-a337-be84d137f5f7"
                  },
                  {
                    "reference": "urn:uuid:ff2a5279-9588-4446-bf4a-2b645aa51243"
                  }
                ],
                "text": {
                  "status": "generated",
                  "div": "<div xmlns=\"http://www.w3.org/1999/xhtml\"><h3>Chemistry</h3><table class=\"hl7__eu__lab__report\"><thead><tr><th>Test</th><th>01-DEC-2023</th><th>Reference&#xA0;Range</th><th>Unit</th></tr></thead><tbody><tr><td>Hemoglobin A1c/Hemoglobin.total in Blood</td><td><strong>6.0 H</strong></td><td>4.8 - 5.7</td><td>%</td></tr><tr><td>Glucose [Mass/volume] in Blood</td><td>98.0</td><td>70 - 140</td><td>mg/dL</td></tr><tr><td>Urea nitrogen [Mass/volume] in Blood</td><td>11.8</td><td>7 - 20</td><td>mg/dL</td></tr><tr><td>Creatinine [Mass/volume] in Blood</td><td>0.9</td><td>0.6 - 1.3</td><td>mg/dL</td></tr><tr><td>Calcium [Mass/volume] in Blood</td><td>9.0</td><td>8.5 - 10.5</td><td>mg/dL</td></tr><tr><td>Sodium [Moles/volume] in Blood</td><td>140.6</td><td>135 - 145</td><td>mmol/L</td></tr><tr><td>Potassium [Moles/volume] in Blood</td><td>4.1</td><td>3.5 - 5.1</td><td>mmol/L</td></tr><tr><td>Chloride [Moles/volume] in Blood</td><td>107.8</td><td>98 - 108</td><td>mmol/L</td></tr><tr><td>Carbon dioxide, total [Moles/volume] in Blood</td><td><strong>21.5 L</strong></td><td>22 - 32</td><td>mmol/L</td></tr></tbody></table></div>"
                },
                "title": "Chemistry"
              }
            ],
            "title": "Laboratory Report"
          },
          {
            "text": {
              "status": "generated",
              "div": "<div xmlns=\"http://www.w3.org/1999/xhtml\"><h3>Annotation</h3><table class=\"hl7__eu__lab__report\"><tr><th>Conclusion and Recommendations based on this report and previous findings known to us</th></tr><tr><td>All parameters are within normal limits except for a mildly elevated HbA1c, indicating suboptimal long-term glycemic control, and a slightly decreased total CO₂, which may suggest mild metabolic acidosis or compensation. Renal function and electrolytes are normal. Recommend clinical correlation and consideration of diabetes management optimization.</td></tr></table></div>"
            },
            "code": {
              "coding": [
                {
                  "system": "http://loinc.org",
                  "code": "48767-8",
                  "display": "Annotation comment"
                }
              ]
            },
            "title": "Annotation comment"
          }
        ],
        "status": "final",
        "subject": {
          "reference": "urn:uuid:068feb01-d1c6-48c3-b9f5-4c632a7d7b66",
          "display": "Leonhard Köhler"
        },
        "date": "2023-12-01T03:48:23Z",
        "title": "Laboratory Report",
        "confidentiality": "N"
      }
    },
    {
      "fullUrl": "urn:uuid:be277d66-e124-4326-af19-3f2ee279a387",
      "resource": {
        "resourceType": "DiagnosticReport",
        "id": "be277d66-e124-4326-af19-3f2ee279a387",
        "meta": {
          "profile": [
            "http://hl7.eu/fhir/laboratory/StructureDefinition/DiagnosticReport-eu-lab"
          ]
        },
        "identifier": [
          {
            "assigner": {
              "display": "HL7 Europe"
            },
            "system": "urn:oid:2.16.840.1.113883.2.51.999",
            "value": "868c2137-c451-41ad-a3d3-6f97029641fa"
          }
        ],
        "extension": [
          {
            "url": "http://hl7.org/fhir/5.0/StructureDefinition/extension-DiagnosticReport.composition",
            "valueReference": {
              "reference": "urn:uuid:d8e8c392-fd2f-40aa-9d09-6c8f7fe340c7"
            }
          }
        ],
        "category": [
          {
            "coding": [
              {
                "code": "26436-6",
                "system": "http://loinc.org",
                "display": "Laboratory studies (set)"
              }
            ]
          }
        ],
        "specimen": [
          {
            "reference": "urn:uuid:a50f4566-0124-496a-b77d-e206d255720f"
          }
        ],
        "result": [
          {
            "reference": "urn:uuid:245d0221-54c6-4974-8abf-1d9c61d7f737"
          },
          {
            "reference": "urn:uuid:9cf12b03-cc8f-4241-bf22-23e6b53beb57"
          },
          {
            "reference": "urn:uuid:716ca4c5-fe87-407a-ae65-ef1d2c9fe0ad"
          },
          {
            "reference": "urn:uuid:947b3b80-c754-4bd0-986c-3e73b44528ce"
          },
          {
            "reference": "urn:uuid:5e045452-6b49-435b-8ce7-61450e67bc86"
          },
          {
            "reference": "urn:uuid:d195d581-e9bc-4485-a0ae-07d67b1dc68b"
          },
          {
            "reference": "urn:uuid:7289bccd-79fa-47d3-b33a-10d5db72b88b"
          },
          {
            "reference": "urn:uuid:2f5b73fc-0c82-4b5e-a337-be84d137f5f7"
          },
          {
            "reference": "urn:uuid:ff2a5279-9588-4446-bf4a-2b645aa51243"
          }
        ],
        "status": "registered",
        "code": {
          "coding": [
            {
              "code": "11502-2",
              "system": "http://loinc.org",
              "display": "Laboratory report"
            }
          ]
        },
        "subject": {
          "reference": "urn:uuid:068feb01-d1c6-48c3-b9f5-4c632a7d7b66",
          "display": "Leonhard Köhler"
        }
      }
    },
    {
      "fullUrl": "urn:uuid:068feb01-d1c6-48c3-b9f5-4c632a7d7b66",
      "resource": {
        "resourceType": "Patient",
        "id": "068feb01-d1c6-48c3-b9f5-4c632a7d7b66",
        "meta": {
          "security": [
            {
              "system": "http://terminology.hl7.org/CodeSystem/v3-ActReason",
              "code": "HTEST"
            },
            {
              "system": "http://terminology.hl7.org/CodeSystem/v3-ActReason",
              "code": "TRAIN"
            }
          ],
          "tag": [
            {
              "system": "https://synderai.net/fhir/CodeSystem/tags",
              "code": "synthetic",
              "display": "SYNDERAI Synthetic data"
            }
          ],
          "profile": [
            "http://hl7.eu/fhir/base/StructureDefinition/patient-eu-core"
          ]
        },
        "identifier": [
          {
            "type": {
              "coding": [
                {
                  "code": "PT",
                  "system": "http://terminology.hl7.org/CodeSystem/v2-0203"
                }
              ]
            },
            "system": "http://ec.europa.eu/identifier/eci",
            "value": "5321-442678-4"
          },
          {
            "type": {
              "coding": [
                {
                  "code": "MR",
                  "system": "http://terminology.hl7.org/CodeSystem/v2-0203"
                }
              ]
            },
            "system": "http://local.setting.eu/identifier",
            "value": "ffa9f0d8-c016-d46c-e666-000f53715b47"
          }
        ],
        "name": [
          {
            "family": "Köhler"
          },
          {
            "given": [
              "Leonhard"
            ]
          },
          {
            "text": "Leonhard Köhler"
          }
        ],
        "address": [
          {
            "line": [
              "Henckweg 97/34"
            ],
            "use": "home",
            "type": "physical",
            "postalCode": "87629",
            "city": "Füssen",
            "country": "Germany"
          }
        ],
        "telecom": [
          {
            "system": "phone",
            "value": "00028839855"
          }
        ],
        "extension": [
          {
            "url": "http://hl7.org/fhir/StructureDefinition/patient-nationality",
            "valueCodeableConcept": {
              "coding": [
                {
                  "code": "DE",
                  "system": "http://hl7.org/fhir/ValueSet/country"
                }
              ]
            }
          }
        ],
        "text": {
          "status": "generated",
          "div": "<div xmlns=\"http://www.w3.org/1999/xhtml\"><table class=\"hl7__ips\"><tr><td>Leonhard Köhler</td><td>male</td><td>19-Dec-1949</td></tr></table></div>"
        },
        "gender": "male",
        "birthDate": "1949-12-19"
      }
    },
    {
      "fullUrl": "urn:uuid:b033d048-3e4a-48e4-b477-8eaf2c225d62",
      "resource": {
        "resourceType": "ServiceRequest",
        "id": "b033d048-3e4a-48e4-b477-8eaf2c225d62",
        "meta": {
          "profile": [
            "http://hl7.eu/fhir/laboratory/StructureDefinition/ServiceRequest-eu-lab"
          ]
        },
        "identifier": [
          {
            "system": "http://example.org",
            "value": "2e6a4b23-1e8b-45a5-b1c2-775f902c854f"
          }
        ],
        "specimen": [
          {
            "reference": "urn:uuid:a50f4566-0124-496a-b77d-e206d255720f"
          }
        ],
        "reasonCode": [
          {
            "coding": [
              {
                "code": "55822004",
                "system": "http://snomed.info/sct",
                "display": "Hyperlipidemia"
              }
            ]
          },
          {
            "coding": [
              {
                "code": "414545008",
                "system": "http://snomed.info/sct",
                "display": "Ischemic heart disease"
              }
            ]
          },
          {
            "coding": [
              {
                "code": "59621000",
                "system": "http://snomed.info/sct",
                "display": "Essential hypertension"
              }
            ]
          },
          {
            "coding": [
              {
                "code": "239873007",
                "system": "http://snomed.info/sct",
                "display": "Osteoarthritis of knee"
              }
            ]
          },
          {
            "coding": [
              {
                "code": "271737000",
                "system": "http://snomed.info/sct",
                "display": "Anemia"
              }
            ]
          },
          {
            "coding": [
              {
                "code": "15777000",
                "system": "http://snomed.info/sct",
                "display": "Prediabetes"
              }
            ]
          }
        ],
        "status": "active",
        "intent": "order",
        "code": {
          "coding": [
            {
              "code": "108252007",
              "system": "http://snomed.info/sct",
              "display": "Laboratory procedure"
            }
          ]
        },
        "subject": {
          "reference": "urn:uuid:068feb01-d1c6-48c3-b9f5-4c632a7d7b66",
          "display": "Leonhard Köhler"
        },
        "requester": {
          "reference": "urn:uuid:aec0a313-e607-40ff-bfed-7a0f96cbe495"
        }
      }
    },
    {
      "fullUrl": "urn:uuid:aec0a313-e607-40ff-bfed-7a0f96cbe495",
      "resource": {
        "resourceType": "PractitionerRole",
        "id": "aec0a313-e607-40ff-bfed-7a0f96cbe495",
        "meta": {
          "profile": [
            "http://hl7.eu/fhir/base/StructureDefinition/practitionerRole-eu"
          ]
        },
        "text": {
          "status": "generated",
          "div": "<div xmlns=\"http://www.w3.org/1999/xhtml\">Provider Role Id: aec0a313-e607-40ff-bfed-7a0f96cbe495</div>"
        },
        "organization": {
          "reference": "urn:uuid:65d6b60d-253e-43ee-ac51-eb2c44f7ea50"
        }
      }
    },
    {
      "fullUrl": "urn:uuid:65d6b60d-253e-43ee-ac51-eb2c44f7ea50",
      "resource": {
        "resourceType": "Organization",
        "id": "65d6b60d-253e-43ee-ac51-eb2c44f7ea50",
        "meta": {
          "profile": [
            "http://hl7.eu/fhir/base/StructureDefinition/organization-eu"
          ]
        },
        "identifier": [
          {
            "assigner": {
              "display": "HL7 Europe"
            },
            "system": "urn:oid:2.16.840.1.113883.2.51.999",
            "value": "ba470605-a634-4d5e-935f-833f88975f3f"
          }
        ],
        "address": [
          {
            "line": [
              "Feistlestraße 2"
            ],
            "city": "Füssen",
            "postalCode": "87629",
            "country": "Germany"
          }
        ],
        "text": {
          "status": "generated",
          "div": "<div xmlns=\"http://www.w3.org/1999/xhtml\">Provider Organization: hier ist kein Ärztehaus</div>"
        },
        "name": "hier ist kein Ärztehaus"
      }
    },
    {
      "fullUrl": "urn:uuid:a50f4566-0124-496a-b77d-e206d255720f",
      "resource": {
        "resourceType": "Specimen",
        "id": "a50f4566-0124-496a-b77d-e206d255720f",
        "meta": {
          "profile": [
            "http://hl7.eu/fhir/laboratory/StructureDefinition/Specimen-eu-lab"
          ]
        },
        "collection": {
          "collectedDateTime": "2023-12-01"
        },
        "text": {
          "status": "generated",
          "div": "<div xmlns=\"http://www.w3.org/1999/xhtml\"><table class=\"hl7__eu__lab__report\"><tr><th>Specimen</th><th>Collection Date</th></tr><tr><td>Whole blood specimen (specimen)</td><td><span class=\"nb\">01-Dec-2023</span></td></tr></table></div>"
        },
        "type": {
          "coding": [
            {
              "code": "258580003",
              "system": "http://snomed.info/sct",
              "display": "Whole blood specimen (specimen)"
            }
          ]
        }
      }
    },
    {
      "fullUrl": "urn:uuid:245d0221-54c6-4974-8abf-1d9c61d7f737",
      "resource": {
        "resourceType": "Observation",
        "id": "245d0221-54c6-4974-8abf-1d9c61d7f737",
        "meta": {
          "profile": [
            "http://hl7.eu/fhir/laboratory/StructureDefinition/Observation-resultslab-eu-lab"
          ]
        },
        "performer": [
          {
            "display": "The Central European Lab"
          }
        ],
        "category": [
          {
            "coding": [
              {
                "system": "http://terminology.hl7.org/CodeSystem/observation-category",
                "code": "laboratory"
              }
            ]
          }
        ],
        "code": {
          "coding": [
            {
              "code": "4548-4",
              "system": "http://loinc.org",
              "display": "Hemoglobin A1c/Hemoglobin.total in Blood"
            }
          ],
          "text": "Hemoglobin A1c/Hemoglobin.total in Blood"
        },
        "valueQuantity": {
          "system": "http://unitsofmeasure.org",
          "value": 6,
          "unit": "%",
          "code": "%"
        },
        "referenceRange": [
          {
            "low": {
              "value": 4.8,
              "code": "%",
              "system": "http://unitsofmeasure.org"
            }
          },
          {
            "high": {
              "value": 5.7,
              "code": "%",
              "system": "http://unitsofmeasure.org"
            }
          }
        ],
        "interpretation": [
          {
            "coding": [
              {
                "code": "H",
                "system": "http://terminology.hl7.org/CodeSystem/v3-ObservationInterpretation",
                "display": "High"
              }
            ]
          }
        ],
        "text": {
          "status": "generated",
          "div": "<div xmlns=\"http://www.w3.org/1999/xhtml\"><table class=\"hl7__eu__lab__report\"><tr><th>Test</th><th>01-Dec-2023</th><th>Reference&#xA0;Range</th><th>Unit</th></tr><tr><td>Hemoglobin A1c/Hemoglobin.total in Blood</td><td>6.0</td><td>4.8 - 5.7</td><td>H</td><td>%</td></tr></table></div>"
        },
        "status": "final",
        "subject": {
          "reference": "urn:uuid:068feb01-d1c6-48c3-b9f5-4c632a7d7b66",
          "display": "Leonhard Köhler"
        },
        "effectiveDateTime": "2023-12-01T02:48:23Z",
        "specimen": {
          "reference": "urn:uuid:a50f4566-0124-496a-b77d-e206d255720f"
        }
      }
    },
    {
      "fullUrl": "urn:uuid:9cf12b03-cc8f-4241-bf22-23e6b53beb57",
      "resource": {
        "resourceType": "Observation",
        "id": "9cf12b03-cc8f-4241-bf22-23e6b53beb57",
        "meta": {
          "profile": [
            "http://hl7.eu/fhir/laboratory/StructureDefinition/Observation-resultslab-eu-lab"
          ]
        },
        "performer": [
          {
            "display": "The Central European Lab"
          }
        ],
        "category": [
          {
            "coding": [
              {
                "system": "http://terminology.hl7.org/CodeSystem/observation-category",
                "code": "laboratory"
              }
            ]
          }
        ],
        "code": {
          "coding": [
            {
              "code": "2339-0",
              "system": "http://loinc.org",
              "display": "Glucose [Mass/volume] in Blood"
            }
          ],
          "text": "Glucose [Mass/volume] in Blood"
        },
        "valueQuantity": {
          "system": "http://unitsofmeasure.org",
          "value": 98,
          "unit": "mg/dL",
          "code": "mg/dL"
        },
        "referenceRange": [
          {
            "low": {
              "value": 70,
              "code": "mg/dL",
              "system": "http://unitsofmeasure.org"
            }
          },
          {
            "high": {
              "value": 140,
              "code": "mg/dL",
              "system": "http://unitsofmeasure.org"
            }
          }
        ],
        "text": {
          "status": "generated",
          "div": "<div xmlns=\"http://www.w3.org/1999/xhtml\"><table class=\"hl7__eu__lab__report\"><tr><th>Test</th><th>01-Dec-2023</th><th>Reference&#xA0;Range</th><th>Unit</th></tr><tr><td>Glucose [Mass/volume] in Blood</td><td>98.0</td><td>70 - 140</td><td></td><td>mg/dL</td></tr></table></div>"
        },
        "status": "final",
        "subject": {
          "reference": "urn:uuid:068feb01-d1c6-48c3-b9f5-4c632a7d7b66",
          "display": "Leonhard Köhler"
        },
        "effectiveDateTime": "2023-12-01T02:48:23Z",
        "specimen": {
          "reference": "urn:uuid:a50f4566-0124-496a-b77d-e206d255720f"
        }
      }
    },
    {
      "fullUrl": "urn:uuid:716ca4c5-fe87-407a-ae65-ef1d2c9fe0ad",
      "resource": {
        "resourceType": "Observation",
        "id": "716ca4c5-fe87-407a-ae65-ef1d2c9fe0ad",
        "meta": {
          "profile": [
            "http://hl7.eu/fhir/laboratory/StructureDefinition/Observation-resultslab-eu-lab"
          ]
        },
        "performer": [
          {
            "display": "The Central European Lab"
          }
        ],
        "category": [
          {
            "coding": [
              {
                "system": "http://terminology.hl7.org/CodeSystem/observation-category",
                "code": "laboratory"
              }
            ]
          }
        ],
        "code": {
          "coding": [
            {
              "code": "6299-2",
              "system": "http://loinc.org",
              "display": "Urea nitrogen [Mass/volume] in Blood"
            }
          ],
          "text": "Urea nitrogen [Mass/volume] in Blood"
        },
        "valueQuantity": {
          "system": "http://unitsofmeasure.org",
          "value": 11.8,
          "unit": "mg/dL",
          "code": "mg/dL"
        },
        "referenceRange": [
          {
            "low": {
              "value": 7,
              "code": "mg/dL",
              "system": "http://unitsofmeasure.org"
            }
          },
          {
            "high": {
              "value": 20,
              "code": "mg/dL",
              "system": "http://unitsofmeasure.org"
            }
          }
        ],
        "text": {
          "status": "generated",
          "div": "<div xmlns=\"http://www.w3.org/1999/xhtml\"><table class=\"hl7__eu__lab__report\"><tr><th>Test</th><th>01-Dec-2023</th><th>Reference&#xA0;Range</th><th>Unit</th></tr><tr><td>Urea nitrogen [Mass/volume] in Blood</td><td>11.8</td><td>7 - 20</td><td></td><td>mg/dL</td></tr></table></div>"
        },
        "status": "final",
        "subject": {
          "reference": "urn:uuid:068feb01-d1c6-48c3-b9f5-4c632a7d7b66",
          "display": "Leonhard Köhler"
        },
        "effectiveDateTime": "2023-12-01T02:48:23Z",
        "specimen": {
          "reference": "urn:uuid:a50f4566-0124-496a-b77d-e206d255720f"
        }
      }
    },
    {
      "fullUrl": "urn:uuid:947b3b80-c754-4bd0-986c-3e73b44528ce",
      "resource": {
        "resourceType": "Observation",
        "id": "947b3b80-c754-4bd0-986c-3e73b44528ce",
        "meta": {
          "profile": [
            "http://hl7.eu/fhir/laboratory/StructureDefinition/Observation-resultslab-eu-lab"
          ]
        },
        "performer": [
          {
            "display": "The Central European Lab"
          }
        ],
        "category": [
          {
            "coding": [
              {
                "system": "http://terminology.hl7.org/CodeSystem/observation-category",
                "code": "laboratory"
              }
            ]
          }
        ],
        "code": {
          "coding": [
            {
              "code": "38483-4",
              "system": "http://loinc.org",
              "display": "Creatinine [Mass/volume] in Blood"
            }
          ],
          "text": "Creatinine [Mass/volume] in Blood"
        },
        "valueQuantity": {
          "system": "http://unitsofmeasure.org",
          "value": 0.9,
          "unit": "mg/dL",
          "code": "mg/dL"
        },
        "referenceRange": [
          {
            "low": {
              "value": 0.6,
              "code": "mg/dL",
              "system": "http://unitsofmeasure.org"
            }
          },
          {
            "high": {
              "value": 1.3,
              "code": "mg/dL",
              "system": "http://unitsofmeasure.org"
            }
          }
        ],
        "text": {
          "status": "generated",
          "div": "<div xmlns=\"http://www.w3.org/1999/xhtml\"><table class=\"hl7__eu__lab__report\"><tr><th>Test</th><th>01-Dec-2023</th><th>Reference&#xA0;Range</th><th>Unit</th></tr><tr><td>Creatinine [Mass/volume] in Blood</td><td>0.9</td><td>0.6 - 1.3</td><td></td><td>mg/dL</td></tr></table></div>"
        },
        "status": "final",
        "subject": {
          "reference": "urn:uuid:068feb01-d1c6-48c3-b9f5-4c632a7d7b66",
          "display": "Leonhard Köhler"
        },
        "effectiveDateTime": "2023-12-01T02:48:23Z",
        "specimen": {
          "reference": "urn:uuid:a50f4566-0124-496a-b77d-e206d255720f"
        }
      }
    },
    {
      "fullUrl": "urn:uuid:5e045452-6b49-435b-8ce7-61450e67bc86",
      "resource": {
        "resourceType": "Observation",
        "id": "5e045452-6b49-435b-8ce7-61450e67bc86",
        "meta": {
          "profile": [
            "http://hl7.eu/fhir/laboratory/StructureDefinition/Observation-resultslab-eu-lab"
          ]
        },
        "performer": [
          {
            "display": "The Central European Lab"
          }
        ],
        "category": [
          {
            "coding": [
              {
                "system": "http://terminology.hl7.org/CodeSystem/observation-category",
                "code": "laboratory"
              }
            ]
          }
        ],
        "code": {
          "coding": [
            {
              "code": "49765-1",
              "system": "http://loinc.org",
              "display": "Calcium [Mass/volume] in Blood"
            }
          ],
          "text": "Calcium [Mass/volume] in Blood"
        },
        "valueQuantity": {
          "system": "http://unitsofmeasure.org",
          "value": 9,
          "unit": "mg/dL",
          "code": "mg/dL"
        },
        "referenceRange": [
          {
            "low": {
              "value": 8.5,
              "code": "mg/dL",
              "system": "http://unitsofmeasure.org"
            }
          },
          {
            "high": {
              "value": 10.5,
              "code": "mg/dL",
              "system": "http://unitsofmeasure.org"
            }
          }
        ],
        "text": {
          "status": "generated",
          "div": "<div xmlns=\"http://www.w3.org/1999/xhtml\"><table class=\"hl7__eu__lab__report\"><tr><th>Test</th><th>01-Dec-2023</th><th>Reference&#xA0;Range</th><th>Unit</th></tr><tr><td>Calcium [Mass/volume] in Blood</td><td>9.0</td><td>8.5 - 10.5</td><td></td><td>mg/dL</td></tr></table></div>"
        },
        "status": "final",
        "subject": {
          "reference": "urn:uuid:068feb01-d1c6-48c3-b9f5-4c632a7d7b66",
          "display": "Leonhard Köhler"
        },
        "effectiveDateTime": "2023-12-01T02:48:23Z",
        "specimen": {
          "reference": "urn:uuid:a50f4566-0124-496a-b77d-e206d255720f"
        }
      }
    },
    {
      "fullUrl": "urn:uuid:d195d581-e9bc-4485-a0ae-07d67b1dc68b",
      "resource": {
        "resourceType": "Observation",
        "id": "d195d581-e9bc-4485-a0ae-07d67b1dc68b",
        "meta": {
          "profile": [
            "http://hl7.eu/fhir/laboratory/StructureDefinition/Observation-resultslab-eu-lab"
          ]
        },
        "performer": [
          {
            "display": "The Central European Lab"
          }
        ],
        "category": [
          {
            "coding": [
              {
                "system": "http://terminology.hl7.org/CodeSystem/observation-category",
                "code": "laboratory"
              }
            ]
          }
        ],
        "code": {
          "coding": [
            {
              "code": "2947-0",
              "system": "http://loinc.org",
              "display": "Sodium [Moles/volume] in Blood"
            }
          ],
          "text": "Sodium [Moles/volume] in Blood"
        },
        "valueQuantity": {
          "system": "http://unitsofmeasure.org",
          "value": 140.6,
          "unit": "mmol/L",
          "code": "mmol/L"
        },
        "referenceRange": [
          {
            "low": {
              "value": 135,
              "code": "mmol/L",
              "system": "http://unitsofmeasure.org"
            }
          },
          {
            "high": {
              "value": 145,
              "code": "mmol/L",
              "system": "http://unitsofmeasure.org"
            }
          }
        ],
        "text": {
          "status": "generated",
          "div": "<div xmlns=\"http://www.w3.org/1999/xhtml\"><table class=\"hl7__eu__lab__report\"><tr><th>Test</th><th>01-Dec-2023</th><th>Reference&#xA0;Range</th><th>Unit</th></tr><tr><td>Sodium [Moles/volume] in Blood</td><td>140.6</td><td>135 - 145</td><td></td><td>mmol/L</td></tr></table></div>"
        },
        "status": "final",
        "subject": {
          "reference": "urn:uuid:068feb01-d1c6-48c3-b9f5-4c632a7d7b66",
          "display": "Leonhard Köhler"
        },
        "effectiveDateTime": "2023-12-01T02:48:23Z",
        "specimen": {
          "reference": "urn:uuid:a50f4566-0124-496a-b77d-e206d255720f"
        }
      }
    },
    {
      "fullUrl": "urn:uuid:7289bccd-79fa-47d3-b33a-10d5db72b88b",
      "resource": {
        "resourceType": "Observation",
        "id": "7289bccd-79fa-47d3-b33a-10d5db72b88b",
        "meta": {
          "profile": [
            "http://hl7.eu/fhir/laboratory/StructureDefinition/Observation-resultslab-eu-lab"
          ]
        },
        "performer": [
          {
            "display": "The Central European Lab"
          }
        ],
        "category": [
          {
            "coding": [
              {
                "system": "http://terminology.hl7.org/CodeSystem/observation-category",
                "code": "laboratory"
              }
            ]
          }
        ],
        "code": {
          "coding": [
            {
              "code": "6298-4",
              "system": "http://loinc.org",
              "display": "Potassium [Moles/volume] in Blood"
            }
          ],
          "text": "Potassium [Moles/volume] in Blood"
        },
        "valueQuantity": {
          "system": "http://unitsofmeasure.org",
          "value": 4.1,
          "unit": "mmol/L",
          "code": "mmol/L"
        },
        "referenceRange": [
          {
            "low": {
              "value": 3.5,
              "code": "mmol/L",
              "system": "http://unitsofmeasure.org"
            }
          },
          {
            "high": {
              "value": 5.1,
              "code": "mmol/L",
              "system": "http://unitsofmeasure.org"
            }
          }
        ],
        "text": {
          "status": "generated",
          "div": "<div xmlns=\"http://www.w3.org/1999/xhtml\"><table class=\"hl7__eu__lab__report\"><tr><th>Test</th><th>01-Dec-2023</th><th>Reference&#xA0;Range</th><th>Unit</th></tr><tr><td>Potassium [Moles/volume] in Blood</td><td>4.1</td><td>3.5 - 5.1</td><td></td><td>mmol/L</td></tr></table></div>"
        },
        "status": "final",
        "subject": {
          "reference": "urn:uuid:068feb01-d1c6-48c3-b9f5-4c632a7d7b66",
          "display": "Leonhard Köhler"
        },
        "effectiveDateTime": "2023-12-01T02:48:23Z",
        "specimen": {
          "reference": "urn:uuid:a50f4566-0124-496a-b77d-e206d255720f"
        }
      }
    },
    {
      "fullUrl": "urn:uuid:2f5b73fc-0c82-4b5e-a337-be84d137f5f7",
      "resource": {
        "resourceType": "Observation",
        "id": "2f5b73fc-0c82-4b5e-a337-be84d137f5f7",
        "meta": {
          "profile": [
            "http://hl7.eu/fhir/laboratory/StructureDefinition/Observation-resultslab-eu-lab"
          ]
        },
        "performer": [
          {
            "display": "The Central European Lab"
          }
        ],
        "category": [
          {
            "coding": [
              {
                "system": "http://terminology.hl7.org/CodeSystem/observation-category",
                "code": "laboratory"
              }
            ]
          }
        ],
        "code": {
          "coding": [
            {
              "code": "2069-3",
              "system": "http://loinc.org",
              "display": "Chloride [Moles/volume] in Blood"
            }
          ],
          "text": "Chloride [Moles/volume] in Blood"
        },
        "valueQuantity": {
          "system": "http://unitsofmeasure.org",
          "value": 107.8,
          "unit": "mmol/L",
          "code": "mmol/L"
        },
        "referenceRange": [
          {
            "low": {
              "value": 98,
              "code": "mmol/L",
              "system": "http://unitsofmeasure.org"
            }
          },
          {
            "high": {
              "value": 108,
              "code": "mmol/L",
              "system": "http://unitsofmeasure.org"
            }
          }
        ],
        "text": {
          "status": "generated",
          "div": "<div xmlns=\"http://www.w3.org/1999/xhtml\"><table class=\"hl7__eu__lab__report\"><tr><th>Test</th><th>01-Dec-2023</th><th>Reference&#xA0;Range</th><th>Unit</th></tr><tr><td>Chloride [Moles/volume] in Blood</td><td>107.8</td><td>98 - 108</td><td></td><td>mmol/L</td></tr></table></div>"
        },
        "status": "final",
        "subject": {
          "reference": "urn:uuid:068feb01-d1c6-48c3-b9f5-4c632a7d7b66",
          "display": "Leonhard Köhler"
        },
        "effectiveDateTime": "2023-12-01T02:48:23Z",
        "specimen": {
          "reference": "urn:uuid:a50f4566-0124-496a-b77d-e206d255720f"
        }
      }
    },
    {
      "fullUrl": "urn:uuid:ff2a5279-9588-4446-bf4a-2b645aa51243",
      "resource": {
        "resourceType": "Observation",
        "id": "ff2a5279-9588-4446-bf4a-2b645aa51243",
        "meta": {
          "profile": [
            "http://hl7.eu/fhir/laboratory/StructureDefinition/Observation-resultslab-eu-lab"
          ]
        },
        "performer": [
          {
            "display": "The Central European Lab"
          }
        ],
        "category": [
          {
            "coding": [
              {
                "system": "http://terminology.hl7.org/CodeSystem/observation-category",
                "code": "laboratory"
              }
            ]
          }
        ],
        "code": {
          "coding": [
            {
              "code": "20565-8",
              "system": "http://loinc.org",
              "display": "Carbon dioxide, total [Moles/volume] in Blood"
            }
          ],
          "text": "Carbon dioxide, total [Moles/volume] in Blood"
        },
        "valueQuantity": {
          "system": "http://unitsofmeasure.org",
          "value": 21.5,
          "unit": "mmol/L",
          "code": "mmol/L"
        },
        "referenceRange": [
          {
            "low": {
              "value": 22,
              "code": "mmol/L",
              "system": "http://unitsofmeasure.org"
            }
          },
          {
            "high": {
              "value": 32,
              "code": "mmol/L",
              "system": "http://unitsofmeasure.org"
            }
          }
        ],
        "interpretation": [
          {
            "coding": [
              {
                "code": "L",
                "system": "http://terminology.hl7.org/CodeSystem/v3-ObservationInterpretation",
                "display": "Low"
              }
            ]
          }
        ],
        "text": {
          "status": "generated",
          "div": "<div xmlns=\"http://www.w3.org/1999/xhtml\"><table class=\"hl7__eu__lab__report\"><tr><th>Test</th><th>01-Dec-2023</th><th>Reference&#xA0;Range</th><th>Unit</th></tr><tr><td>Carbon dioxide, total [Moles/volume] in Blood</td><td>21.5</td><td>22 - 32</td><td>L</td><td>mmol/L</td></tr></table></div>"
        },
        "status": "final",
        "subject": {
          "reference": "urn:uuid:068feb01-d1c6-48c3-b9f5-4c632a7d7b66",
          "display": "Leonhard Köhler"
        },
        "effectiveDateTime": "2023-12-01T02:48:23Z",
        "specimen": {
          "reference": "urn:uuid:a50f4566-0124-496a-b77d-e206d255720f"
        }
      }
    },
    {
      "fullUrl": "urn:uuid:42cc5408-fc57-4ac3-9316-fe4641b6a819",
      "resource": {
        "resourceType": "Device",
        "id": "42cc5408-fc57-4ac3-9316-fe4641b6a819",
        "deviceName": [
          {
            "name": "SYNDERAI Synthetic Generator",
            "type": "manufacturer-name"
          }
        ],
        "version": [
          {
            "value": "5.0"
          }
        ],
        "text": {
          "status": "generated",
          "div": "<div xmlns=\"http://www.w3.org/1999/xhtml\">SYNDERAI Synthetic Generator v5.0</div>"
        },
        "status": "active\"",
        "distinctIdentifier": "synderai-generator-50",
        "manufacturer": "SYNDERAI Project"
      }
    },
    {
      "fullUrl": "urn:uuid:b16242c1-f4ee-479b-8fbe-3368c88eff4c",
      "resource": {
        "resourceType": "Provenance",
        "id": "b16242c1-f4ee-479b-8fbe-3368c88eff4c",
        "target": [
          {
            "reference": "Patient/068feb01-d1c6-48c3-b9f5-4c632a7d7b66"
          },
          {
            "reference": "Bundle/b702222b-d2dc-41f8-ac1c-2b74d32ad5d6"
          },
          {
            "reference": "Composition/45e1c446-e73c-4d05-a24a-d429c57bb055"
          },
          {
            "reference": "PractitionerRole/627014c5-352b-4e2f-9d8c-3be422651e4b"
          },
          {
            "reference": "Practitioner/02fab500-8c46-495f-a7d5-91ba25033917"
          },
          {
            "reference": "PractitionerRole/aec0a313-e607-40ff-bfed-7a0f96cbe495"
          },
          {
            "reference": "Organization/65d6b60d-253e-43ee-ac51-eb2c44f7ea50"
          }
        ],
        "activity": {
          "text": "Synthetic Example Data Generation"
        },
        "policy": [
          "https://synderai.net/synderai-synthetic-data-policy"
        ],
        "agent": [
          {
            "type": {
              "text": "author"
            },
            "who": {
              "reference": "Device/42cc5408-fc57-4ac3-9316-fe4641b6a819"
            }
          }
        ],
        "reason": [
          {
            "text": "Interoperability Testing and Training (non-clinical use)"
          }
        ],
        "text": {
          "status": "generated",
          "div": "<div xmlns=\"http://www.w3.org/1999/xhtml\">Provenance for SYNDERAI Synthetic Example Data Resource</div>"
        },
        "recorded": "2023-12-01T03:48:23Z"
      }
    },
    {
      "fullUrl": "urn:uuid:627014c5-352b-4e2f-9d8c-3be422651e4b",
      "resource": {
        "resourceType": "PractitionerRole",
        "id": "627014c5-352b-4e2f-9d8c-3be422651e4b",
        "meta": {
          "profile": [
            "http://hl7.eu/fhir/base/StructureDefinition/practitionerRole-eu"
          ]
        },
        "text": {
          "status": "generated",
          "div": "<div xmlns=\"http://www.w3.org/1999/xhtml\">Laboratory Role Id: 627014c5-352b-4e2f-9d8c-3be422651e4b</div>"
        },
        "practitioner": {
          "reference": "urn:uuid:02fab500-8c46-495f-a7d5-91ba25033917"
        }
      }
    },
    {
      "fullUrl": "urn:uuid:02fab500-8c46-495f-a7d5-91ba25033917",
      "resource": {
        "resourceType": "Practitioner",
        "id": "02fab500-8c46-495f-a7d5-91ba25033917",
        "meta": {
          "profile": [
            "http://hl7.eu/fhir/base/StructureDefinition/practitioner-eu"
          ]
        },
        "identifier": [
          {
            "assigner": {
              "display": "HL7 Europe"
            },
            "system": "urn:oid:2.16.840.1.113883.2.51.999",
            "value": "630841d1-70d8-4f73-889d-30cfa6369b15"
          }
        ],
        "name": [
          {
            "prefix": [
              "dr"
            ],
            "given": [
              "Ex"
            ],
            "family": "Ample"
          }
        ],
        "address": [
          {
            "line": [
              "Laboratoire Central Européenne",
              "Boulevard du Jardin Botanique 32"
            ],
            "postalCode": "1000",
            "city": "Brussels",
            "country": "Belgium"
          }
        ],
        "text": {
          "status": "generated",
          "div": "<div xmlns=\"http://www.w3.org/1999/xhtml\">Laboratory: Laboratoire Central Européenne, 1000 Brussels, Belgium</div>"
        }
      }
    }
  ],
  "type": "document",
  "timestamp": "2023-12-01T03:48:23Z"
}
