{
  "resourceType": "Bundle",
  "id": "37cebd30-69c3-4705-8cd0-2803df226219",
  "meta": {
    "profile": [
      "http://hl7.eu/fhir/laboratory/StructureDefinition/Bundle-eu-lab"
    ]
  },
  "identifier": {
    "assigner": {
      "display": "HL7 Europe"
    },
    "system": "urn:oid:2.16.840.1.113883.2.51.999",
    "value": "e5d059a1-1138-458a-9b19-0592ef6272e7"
  },
  "entry": [
    {
      "fullUrl": "urn:uuid:b31d3afe-364d-446e-a3e7-20dbe63c46ec",
      "resource": {
        "resourceType": "Composition",
        "id": "b31d3afe-364d-446e-a3e7-20dbe63c46ec",
        "meta": {
          "profile": [
            "http://hl7.eu/fhir/laboratory/StructureDefinition/Composition-eu-lab"
          ]
        },
        "identifier": {
          "assigner": {
            "display": "HL7 Europe"
          },
          "system": "urn:oid:2.16.840.1.113883.2.51.999",
          "value": "fa203504-1622-4c30-91e9-842a41c6604e"
        },
        "author": [
          {
            "reference": "urn:uuid:17410945-56df-4776-96f8-b53d959d1629"
          }
        ],
        "category": [
          {
            "coding": [
              {
                "code": "26436-6",
                "system": "http://loinc.org",
                "display": "Laboratory studies (set)"
              }
            ]
          }
        ],
        "type": {
          "coding": [
            {
              "code": "11502-2",
              "system": "http://loinc.org",
              "display": "Laboratory report"
            }
          ],
          "text": "Laboratory Report"
        },
        "section": [
          {
            "code": {
              "coding": [
                {
                  "code": "26436-6",
                  "system": "http://loinc.org",
                  "display": "Laboratory studies (set)"
                }
              ],
              "text": "Laboratory studies"
            },
            "section": [
              {
                "code": {
                  "coding": [
                    {
                      "code": "$18719-5",
                      "system": "http://loinc.org",
                      "display": "Chemistry studies (set)"
                    }
                  ],
                  "text": "Chemistry"
                },
                "entry": [
                  {
                    "reference": "urn:uuid:6bde1e77-0f23-4bc3-9e7e-ebd83515f36d"
                  },
                  {
                    "reference": "urn:uuid:6ceb54cb-852e-4527-bcb7-0a41de002762"
                  },
                  {
                    "reference": "urn:uuid:fc24a637-e2cd-426f-9e41-c81c89b7e068"
                  },
                  {
                    "reference": "urn:uuid:b9bdcbf7-8d4f-494d-878f-089ed337b1c8"
                  },
                  {
                    "reference": "urn:uuid:3e347bad-6471-4751-aa8d-64f62183668e"
                  },
                  {
                    "reference": "urn:uuid:9a85a5be-7bc9-482e-a514-177c3190218c"
                  },
                  {
                    "reference": "urn:uuid:13b04206-5581-4212-afd7-35bca432687d"
                  },
                  {
                    "reference": "urn:uuid:1073a227-5578-4340-8702-a59df5a7dc96"
                  },
                  {
                    "reference": "urn:uuid:79de696e-c47d-4e03-98ec-e5da65fa7179"
                  },
                  {
                    "reference": "urn:uuid:3ad67b13-cc17-45e3-88e9-fe3bfaf152c9"
                  },
                  {
                    "reference": "urn:uuid:be826e6e-e1bb-48cd-9c20-e3c6a24d5db4"
                  },
                  {
                    "reference": "urn:uuid:cd2cb96d-55f6-4d03-abe6-16ce7efa5015"
                  },
                  {
                    "reference": "urn:uuid:ab5b0ea9-a936-458d-a882-3ca96e5d8148"
                  },
                  {
                    "reference": "urn:uuid:e872a2fe-e599-4634-97e1-602ca8e2609e"
                  },
                  {
                    "reference": "urn:uuid:8e04df60-1d7e-4fad-8811-2f9bc32eb359"
                  },
                  {
                    "reference": "urn:uuid:f85060c2-2389-4f1b-9a9b-f145ba741f08"
                  },
                  {
                    "reference": "urn:uuid:d0149b29-9e1e-400d-9d11-ca3ce912a7cf"
                  },
                  {
                    "reference": "urn:uuid:2902f4b5-d335-4a0f-b684-bfe38f9bbf38"
                  }
                ],
                "text": {
                  "status": "generated",
                  "div": "<div xmlns=\"http://www.w3.org/1999/xhtml\"><h3>Chemistry</h3><table class=\"hl7__eu__lab__report\"><thead><tr><th>Test</th><th>02-DEC-2016</th><th>Reference&#xA0;Range</th><th>Unit</th></tr></thead><tbody><tr><td>Glucose [Mass/volume] in Serum or Plasma</td><td>76.2</td><td>70 - 140</td><td>mg/dL</td></tr><tr><td>Urea nitrogen [Mass/volume] in Serum or Plasma</td><td>17.2</td><td>7 - 20</td><td>mg/dL</td></tr><tr><td>Creatinine [Mass/volume] in Serum or Plasma</td><td><strong>2.0 H</strong></td><td>0.9 - 1.3</td><td>mg/dL</td></tr><tr><td>Calcium [Mass/volume] in Serum or Plasma</td><td>10.1</td><td>8.5 - 10.5</td><td>mg/dL</td></tr><tr><td>Sodium [Moles/volume] in Serum or Plasma</td><td>138.5</td><td>135 - 145</td><td>mmol/L</td></tr><tr><td>Potassium [Moles/volume] in Serum or Plasma</td><td>3.9</td><td>3.5 - 5.3</td><td>mmol/L</td></tr><tr><td>Chloride [Moles/volume] in Serum or Plasma</td><td><strong>107.6 H</strong></td><td>98 - 107</td><td>mmol/L</td></tr><tr><td>Carbon dioxide, total [Moles/volume] in Serum or Plasma</td><td>23.5</td><td>22 - 33</td><td>mmol/L</td></tr><tr><td>Ketones [Presence] in Urine by Test strip</td><td>Urine ketone test = +</td><td></td><td></td></tr><tr><td>Hemoglobin A1c/Hemoglobin.total in Blood</td><td><strong>2.9 L</strong></td><td>4.3 - 6</td><td>%</td></tr><tr><td>Glucose [Mass/volume] in Blood</td><td>76.2</td><td>70 - 140</td><td>mg/dL</td></tr><tr><td>Urea nitrogen [Mass/volume] in Blood</td><td>17.2</td><td>7 - 20</td><td>mg/dL</td></tr><tr><td>Creatinine [Mass/volume] in Blood</td><td><strong>1.4 H</strong></td><td>0.9 - 1.3</td><td>mg/dL</td></tr><tr><td>Calcium [Mass/volume] in Blood</td><td>10.1</td><td>8.5 - 10.5</td><td>mg/dL</td></tr><tr><td>Sodium [Moles/volume] in Blood</td><td>138.5</td><td>135 - 145</td><td>mmol/L</td></tr><tr><td>Potassium [Moles/volume] in Blood</td><td>3.9</td><td>3.5 - 5.1</td><td>mmol/L</td></tr><tr><td>Chloride [Moles/volume] in Blood</td><td>107.6</td><td>98 - 108</td><td>mmol/L</td></tr><tr><td>Carbon dioxide, total [Moles/volume] in Blood</td><td>23.5</td><td>22 - 29</td><td>mmol/L</td></tr></tbody></table></div>"
                },
                "title": "Chemistry"
              },
              {
                "code": {
                  "coding": [
                    {
                      "code": "$18729-4",
                      "system": "http://loinc.org",
                      "display": "Urinalysis studies (set)"
                    }
                  ],
                  "text": "Urinalysis"
                },
                "entry": [
                  {
                    "reference": "urn:uuid:6992851c-4fa3-4740-964c-8b196dddb778"
                  },
                  {
                    "reference": "urn:uuid:e9a06ffc-2a3f-4929-954e-0f962ba3b405"
                  },
                  {
                    "reference": "urn:uuid:66ac64f2-8355-446d-963c-6a8ea27fccfb"
                  },
                  {
                    "reference": "urn:uuid:cd0c34ee-cccf-40d9-bdcd-752a58d610f3"
                  },
                  {
                    "reference": "urn:uuid:d1ea3738-3578-4d3f-accc-06a0ecc369a2"
                  },
                  {
                    "reference": "urn:uuid:475a0468-8bd0-4286-8022-559fc437ad0e"
                  },
                  {
                    "reference": "urn:uuid:711e1302-b7a1-49a7-b3a5-95c0c9686bd6"
                  },
                  {
                    "reference": "urn:uuid:7e9da4c7-91a0-49cc-9869-78960945f947"
                  },
                  {
                    "reference": "urn:uuid:84885499-dc20-40d0-8126-b79bdef4ec42"
                  },
                  {
                    "reference": "urn:uuid:7d765e7f-eab0-46b0-9c4e-709cac40b68d"
                  },
                  {
                    "reference": "urn:uuid:5a3023ba-99f8-496e-bc07-1d5b3643147c"
                  },
                  {
                    "reference": "urn:uuid:fbe4f481-5416-4357-991a-42371a283618"
                  }
                ],
                "text": {
                  "status": "generated",
                  "div": "<div xmlns=\"http://www.w3.org/1999/xhtml\"><h3>Urinalysis</h3><table class=\"hl7__eu__lab__report\"><thead><tr><th>Test</th><th>02-DEC-2016</th><th>Reference&#xA0;Range</th><th>Unit</th></tr></thead><tbody><tr><td>Glucose [Mass/volume] in Urine by Test strip</td><td><strong>1.8 H</strong></td><td>0 - 0.8</td><td>mg/dL</td></tr><tr><td>Glucose [Presence] in Urine by Test strip</td><td>++</td><td></td><td></td></tr><tr><td>Bilirubin.total [Mass/volume] in Urine by Test strip</td><td>1.4</td><td>0 - 1.9</td><td>mg/dL</td></tr><tr><td>Bilirubin.total [Presence] in Urine by Test strip</td><td>Finding of bilirubin in urine</td><td></td><td></td></tr><tr><td>Ketones [Mass/volume] in Urine by Test strip</td><td><strong>17.7 H</strong></td><td>0 - 3</td><td>mg/dL</td></tr><tr><td>Specific gravity of Urine by Test strip</td><td><strong>1.0 L</strong></td><td>1.01 - 1.03</td><td>{nominal}</td></tr><tr><td>pH of Urine by Test strip</td><td>5.9</td><td>4.5 - 7.5</td><td>pH</td></tr><tr><td>Protein [Mass/volume] in Urine by Test strip</td><td><strong>168.6 H</strong></td><td>0 - 149</td><td>mg/dL</td></tr><tr><td>Protein [Presence] in Urine by Test strip</td><td>Urine protein test = ++</td><td></td><td></td></tr><tr><td>Nitrite [Presence] in Urine by Test strip</td><td>Urine nitrite negative</td><td></td><td></td></tr><tr><td>Hemoglobin [Presence] in Urine by Test strip</td><td>Urine blood test = negative</td><td></td><td></td></tr><tr><td>Leukocyte esterase [Presence] in Urine by Test strip</td><td>Urine leukocyte test negative</td><td></td><td></td></tr></tbody></table></div>"
                },
                "title": "Urinalysis"
              },
              {
                "code": {
                  "coding": [
                    {
                      "code": "$LP7846-1",
                      "system": "http://loinc.org",
                      "display": "Specimen information"
                    }
                  ],
                  "text": "Specimen information"
                },
                "entry": [
                  {
                    "reference": "urn:uuid:30bc7ebc-55ae-4038-aa8e-74e8afeb34c2"
                  },
                  {
                    "reference": "urn:uuid:ce9ca83d-9c12-4d6d-844b-13bd6d04b3e3"
                  },
                  {
                    "reference": "urn:uuid:296e16db-5dfb-4bb9-9906-dab917dcb73e"
                  },
                  {
                    "reference": "urn:uuid:e9e62d06-a8c6-4dfd-86c9-d26485142fcb"
                  }
                ],
                "text": {
                  "status": "generated",
                  "div": "<div xmlns=\"http://www.w3.org/1999/xhtml\"><h3>Specimen information</h3><table class=\"hl7__eu__lab__report\"><thead><tr><th>Test</th><th>02-DEC-2016</th><th>Specimen</th><th></th></tr></thead><tbody><tr><td>Appearance of Urine</td><td>Cloudy urine</td><td>Urine</td><td></td></tr><tr><td>Odor of Urine</td><td>Urine smell ammoniacal</td><td>Urine</td><td></td></tr><tr><td>Clarity of Urine</td><td>Translucent</td><td>Urine</td><td></td></tr><tr><td>Color of Urine</td><td>Brown color</td><td>Urine</td><td></td></tr></tbody></table></div>"
                },
                "title": "Specimen information"
              }
            ],
            "title": "Laboratory Report"
          },
          {
            "text": {
              "status": "generated",
              "div": "<div xmlns=\"http://www.w3.org/1999/xhtml\"><h3>Annotation</h3><table class=\"hl7__eu__lab__report\"><tr><th>Conclusion and Recommendations based on this report and previous findings known to us</th></tr><tr><td>The patient shows mildly elevated creatinine, suggesting possible renal impairment. Urinalysis reveals proteinuria, glycosuria, ketonuria, low specific gravity, and abnormal urine appearance, indicating possible renal dysfunction and/or poorly controlled diabetes, despite low HbA1c (which may be unreliable in elderly or anemic patients). No evidence of urinary infection. Recommend further evaluation of renal function, diabetes status, and possible causes for abnormal urine findings.</td></tr></table></div>"
            },
            "code": {
              "coding": [
                {
                  "system": "http://loinc.org",
                  "code": "48767-8",
                  "display": "Annotation comment"
                }
              ]
            },
            "title": "Annotation comment"
          }
        ],
        "status": "final",
        "subject": {
          "reference": "urn:uuid:72082f17-427f-469d-9951-af7a78512de6",
          "display": "Victor Lagarde"
        },
        "date": "2016-12-02T05:48:18Z",
        "title": "Laboratory Report",
        "confidentiality": "N"
      }
    },
    {
      "fullUrl": "urn:uuid:e7694c45-4f29-414f-8fd3-f1ae58849661",
      "resource": {
        "resourceType": "DiagnosticReport",
        "id": "e7694c45-4f29-414f-8fd3-f1ae58849661",
        "meta": {
          "profile": [
            "http://hl7.eu/fhir/laboratory/StructureDefinition/DiagnosticReport-eu-lab"
          ]
        },
        "identifier": [
          {
            "assigner": {
              "display": "HL7 Europe"
            },
            "system": "urn:oid:2.16.840.1.113883.2.51.999",
            "value": "a01ace92-f632-417b-a109-7938c7f03d3d"
          }
        ],
        "extension": [
          {
            "url": "http://hl7.org/fhir/5.0/StructureDefinition/extension-DiagnosticReport.composition",
            "valueReference": {
              "reference": "urn:uuid:fa203504-1622-4c30-91e9-842a41c6604e"
            }
          }
        ],
        "category": [
          {
            "coding": [
              {
                "code": "26436-6",
                "system": "http://loinc.org",
                "display": "Laboratory studies (set)"
              }
            ]
          }
        ],
        "specimen": [
          {
            "reference": "urn:uuid:e8e8dccb-e4da-402b-b80c-75a8e3a1bfda"
          },
          {
            "reference": "urn:uuid:3820790a-a2b9-4f49-9e8c-997e9210effe"
          },
          {
            "reference": "urn:uuid:bb5f2bf6-a024-48b5-afd6-f0b2df391589"
          }
        ],
        "result": [
          {
            "reference": "urn:uuid:6bde1e77-0f23-4bc3-9e7e-ebd83515f36d"
          },
          {
            "reference": "urn:uuid:6ceb54cb-852e-4527-bcb7-0a41de002762"
          },
          {
            "reference": "urn:uuid:fc24a637-e2cd-426f-9e41-c81c89b7e068"
          },
          {
            "reference": "urn:uuid:b9bdcbf7-8d4f-494d-878f-089ed337b1c8"
          },
          {
            "reference": "urn:uuid:3e347bad-6471-4751-aa8d-64f62183668e"
          },
          {
            "reference": "urn:uuid:9a85a5be-7bc9-482e-a514-177c3190218c"
          },
          {
            "reference": "urn:uuid:13b04206-5581-4212-afd7-35bca432687d"
          },
          {
            "reference": "urn:uuid:1073a227-5578-4340-8702-a59df5a7dc96"
          },
          {
            "reference": "urn:uuid:30bc7ebc-55ae-4038-aa8e-74e8afeb34c2"
          },
          {
            "reference": "urn:uuid:ce9ca83d-9c12-4d6d-844b-13bd6d04b3e3"
          },
          {
            "reference": "urn:uuid:296e16db-5dfb-4bb9-9906-dab917dcb73e"
          },
          {
            "reference": "urn:uuid:e9e62d06-a8c6-4dfd-86c9-d26485142fcb"
          },
          {
            "reference": "urn:uuid:6992851c-4fa3-4740-964c-8b196dddb778"
          },
          {
            "reference": "urn:uuid:e9a06ffc-2a3f-4929-954e-0f962ba3b405"
          },
          {
            "reference": "urn:uuid:66ac64f2-8355-446d-963c-6a8ea27fccfb"
          },
          {
            "reference": "urn:uuid:cd0c34ee-cccf-40d9-bdcd-752a58d610f3"
          },
          {
            "reference": "urn:uuid:d1ea3738-3578-4d3f-accc-06a0ecc369a2"
          },
          {
            "reference": "urn:uuid:79de696e-c47d-4e03-98ec-e5da65fa7179"
          },
          {
            "reference": "urn:uuid:475a0468-8bd0-4286-8022-559fc437ad0e"
          },
          {
            "reference": "urn:uuid:711e1302-b7a1-49a7-b3a5-95c0c9686bd6"
          },
          {
            "reference": "urn:uuid:7e9da4c7-91a0-49cc-9869-78960945f947"
          },
          {
            "reference": "urn:uuid:84885499-dc20-40d0-8126-b79bdef4ec42"
          },
          {
            "reference": "urn:uuid:7d765e7f-eab0-46b0-9c4e-709cac40b68d"
          },
          {
            "reference": "urn:uuid:5a3023ba-99f8-496e-bc07-1d5b3643147c"
          },
          {
            "reference": "urn:uuid:fbe4f481-5416-4357-991a-42371a283618"
          },
          {
            "reference": "urn:uuid:3ad67b13-cc17-45e3-88e9-fe3bfaf152c9"
          },
          {
            "reference": "urn:uuid:be826e6e-e1bb-48cd-9c20-e3c6a24d5db4"
          },
          {
            "reference": "urn:uuid:cd2cb96d-55f6-4d03-abe6-16ce7efa5015"
          },
          {
            "reference": "urn:uuid:ab5b0ea9-a936-458d-a882-3ca96e5d8148"
          },
          {
            "reference": "urn:uuid:e872a2fe-e599-4634-97e1-602ca8e2609e"
          },
          {
            "reference": "urn:uuid:8e04df60-1d7e-4fad-8811-2f9bc32eb359"
          },
          {
            "reference": "urn:uuid:f85060c2-2389-4f1b-9a9b-f145ba741f08"
          },
          {
            "reference": "urn:uuid:d0149b29-9e1e-400d-9d11-ca3ce912a7cf"
          },
          {
            "reference": "urn:uuid:2902f4b5-d335-4a0f-b684-bfe38f9bbf38"
          }
        ],
        "status": "registered",
        "code": {
          "coding": [
            {
              "code": "11502-2",
              "system": "http://loinc.org",
              "display": "Laboratory report"
            }
          ]
        },
        "subject": {
          "reference": "urn:uuid:72082f17-427f-469d-9951-af7a78512de6",
          "display": "Victor Lagarde"
        }
      }
    },
    {
      "fullUrl": "urn:uuid:72082f17-427f-469d-9951-af7a78512de6",
      "resource": {
        "resourceType": "Patient",
        "id": "72082f17-427f-469d-9951-af7a78512de6",
        "meta": {
          "security": [
            {
              "system": "http://terminology.hl7.org/CodeSystem/v3-ActReason",
              "code": "HTEST"
            },
            {
              "system": "http://terminology.hl7.org/CodeSystem/v3-ActReason",
              "code": "TRAIN"
            }
          ],
          "tag": [
            {
              "system": "https://synderai.net/fhir/CodeSystem/tags",
              "code": "synthetic",
              "display": "SYNDERAI Synthetic data"
            }
          ],
          "profile": [
            "http://hl7.eu/fhir/base/StructureDefinition/patient-eu-core"
          ]
        },
        "identifier": [
          {
            "type": {
              "coding": [
                {
                  "code": "PT",
                  "system": "http://terminology.hl7.org/CodeSystem/v2-0203"
                }
              ]
            },
            "system": "http://ec.europa.eu/identifier/eci",
            "value": "9925-001801-9"
          },
          {
            "type": {
              "coding": [
                {
                  "code": "MR",
                  "system": "http://terminology.hl7.org/CodeSystem/v2-0203"
                }
              ]
            },
            "system": "http://local.setting.eu/identifier",
            "value": "22c2dfd0-ac57-8833-2532-848f180896a4"
          }
        ],
        "name": [
          {
            "family": "Lagarde"
          },
          {
            "given": [
              "Victor"
            ]
          },
          {
            "text": "Victor Lagarde"
          }
        ],
        "address": [
          {
            "line": [
              "avenue Robert"
            ],
            "use": "home",
            "type": "physical",
            "postalCode": "80300",
            "city": "Albert",
            "country": "France"
          }
        ],
        "telecom": [
          {
            "system": "phone",
            "value": "0177941801"
          }
        ],
        "extension": [
          {
            "url": "http://hl7.org/fhir/StructureDefinition/patient-nationality",
            "valueCodeableConcept": {
              "coding": [
                {
                  "code": "FR",
                  "system": "http://hl7.org/fhir/ValueSet/country"
                }
              ]
            }
          }
        ],
        "text": {
          "status": "generated",
          "div": "<div xmlns=\"http://www.w3.org/1999/xhtml\"><table class=\"hl7__ips\"><tr><td>Victor Lagarde</td><td>male</td><td>31-Aug-1939</td></tr></table></div>"
        },
        "gender": "male",
        "birthDate": "1939-08-31"
      }
    },
    {
      "fullUrl": "urn:uuid:a6ef6ef9-187c-4c3d-acc8-5363c6c86b5b",
      "resource": {
        "resourceType": "ServiceRequest",
        "id": "a6ef6ef9-187c-4c3d-acc8-5363c6c86b5b",
        "meta": {
          "profile": [
            "http://hl7.eu/fhir/laboratory/StructureDefinition/ServiceRequest-eu-lab"
          ]
        },
        "identifier": [
          {
            "system": "http://example.org",
            "value": "d1511c90-2b97-418c-b0ba-fc802c547836"
          }
        ],
        "specimen": [
          {
            "reference": "urn:uuid:e8e8dccb-e4da-402b-b80c-75a8e3a1bfda"
          },
          {
            "reference": "urn:uuid:3820790a-a2b9-4f49-9e8c-997e9210effe"
          },
          {
            "reference": "urn:uuid:bb5f2bf6-a024-48b5-afd6-f0b2df391589"
          }
        ],
        "reasonCode": [
          {
            "coding": [
              {
                "code": "433144002",
                "system": "http://snomed.info/sct",
                "display": "Chronic kidney disease stage 3"
              }
            ]
          },
          {
            "coding": [
              {
                "code": "157141000119108",
                "system": "http://snomed.info/sct",
                "display": "Proteinuria due to type 2 diabetes mellitus"
              }
            ]
          },
          {
            "coding": [
              {
                "code": "431856006",
                "system": "http://snomed.info/sct",
                "display": "Chronic kidney disease stage 2"
              }
            ]
          },
          {
            "coding": [
              {
                "code": "90781000119102",
                "system": "http://snomed.info/sct",
                "display": "Microalbuminuria due to type 2 diabetes mellitus"
              }
            ]
          },
          {
            "coding": [
              {
                "code": "127013003",
                "system": "http://snomed.info/sct",
                "display": "Disorder of kidney due to diabetes mellitus"
              }
            ]
          },
          {
            "coding": [
              {
                "code": "431855005",
                "system": "http://snomed.info/sct",
                "display": "Chronic kidney disease stage 1"
              }
            ]
          },
          {
            "coding": [
              {
                "code": "55822004",
                "system": "http://snomed.info/sct",
                "display": "Hyperlipidemia"
              }
            ]
          },
          {
            "coding": [
              {
                "code": "59621000",
                "system": "http://snomed.info/sct",
                "display": "Essential hypertension"
              }
            ]
          },
          {
            "coding": [
              {
                "code": "237602007",
                "system": "http://snomed.info/sct",
                "display": "Metabolic syndrome X"
              }
            ]
          },
          {
            "coding": [
              {
                "code": "414545008",
                "system": "http://snomed.info/sct",
                "display": "Ischemic heart disease"
              }
            ]
          },
          {
            "coding": [
              {
                "code": "40055000",
                "system": "http://snomed.info/sct",
                "display": "Chronic sinusitis"
              }
            ]
          },
          {
            "coding": [
              {
                "code": "15777000",
                "system": "http://snomed.info/sct",
                "display": "Prediabetes"
              }
            ]
          },
          {
            "coding": [
              {
                "code": "271737000",
                "system": "http://snomed.info/sct",
                "display": "Anemia"
              }
            ]
          }
        ],
        "status": "active",
        "intent": "order",
        "code": {
          "coding": [
            {
              "code": "108252007",
              "system": "http://snomed.info/sct",
              "display": "Laboratory procedure"
            }
          ]
        },
        "subject": {
          "reference": "urn:uuid:72082f17-427f-469d-9951-af7a78512de6",
          "display": "Victor Lagarde"
        },
        "requester": {
          "reference": "urn:uuid:4a4c3cca-af0c-4262-b289-f008e268639c"
        }
      }
    },
    {
      "fullUrl": "urn:uuid:4a4c3cca-af0c-4262-b289-f008e268639c",
      "resource": {
        "resourceType": "PractitionerRole",
        "id": "4a4c3cca-af0c-4262-b289-f008e268639c",
        "meta": {
          "profile": [
            "http://hl7.eu/fhir/base/StructureDefinition/practitionerRole-eu"
          ]
        },
        "text": {
          "status": "generated",
          "div": "<div xmlns=\"http://www.w3.org/1999/xhtml\">Provider Role Id: 4a4c3cca-af0c-4262-b289-f008e268639c</div>"
        },
        "organization": {
          "reference": "urn:uuid:407e76db-979e-4fd5-aeb5-b3a11273cf88"
        }
      }
    },
    {
      "fullUrl": "urn:uuid:407e76db-979e-4fd5-aeb5-b3a11273cf88",
      "resource": {
        "resourceType": "Organization",
        "id": "407e76db-979e-4fd5-aeb5-b3a11273cf88",
        "meta": {
          "profile": [
            "http://hl7.eu/fhir/base/StructureDefinition/organization-eu"
          ]
        },
        "identifier": [
          {
            "assigner": {
              "display": "HL7 Europe"
            },
            "system": "urn:oid:2.16.840.1.113883.2.51.999",
            "value": "cc385dec-3f26-421e-aa2c-cc5df18aa490"
          }
        ],
        "address": [
          {
            "city": "Auxerre",
            "postalCode": "89000",
            "country": "France"
          }
        ],
        "text": {
          "status": "generated",
          "div": "<div xmlns=\"http://www.w3.org/1999/xhtml\">Provider Organization: Thiriot Didier (Cardiologie)</div>"
        },
        "name": "Thiriot Didier (Cardiologie)"
      }
    },
    {
      "fullUrl": "urn:uuid:e8e8dccb-e4da-402b-b80c-75a8e3a1bfda",
      "resource": {
        "resourceType": "Specimen",
        "id": "e8e8dccb-e4da-402b-b80c-75a8e3a1bfda",
        "meta": {
          "profile": [
            "http://hl7.eu/fhir/laboratory/StructureDefinition/Specimen-eu-lab"
          ]
        },
        "collection": {
          "collectedDateTime": "2016-12-02"
        },
        "text": {
          "status": "generated",
          "div": "<div xmlns=\"http://www.w3.org/1999/xhtml\"><table class=\"hl7__eu__lab__report\"><tr><th>Specimen</th><th>Collection Date</th></tr><tr><td>Acellular blood (serum or plasma) specimen</td><td><span class=\"nb\">02-Dec-2016</span></td></tr></table></div>"
        },
        "type": {
          "coding": [
            {
              "code": "122592007",
              "system": "http://snomed.info/sct",
              "display": "Acellular blood (serum or plasma) specimen"
            }
          ]
        }
      }
    },
    {
      "fullUrl": "urn:uuid:3820790a-a2b9-4f49-9e8c-997e9210effe",
      "resource": {
        "resourceType": "Specimen",
        "id": "3820790a-a2b9-4f49-9e8c-997e9210effe",
        "meta": {
          "profile": [
            "http://hl7.eu/fhir/laboratory/StructureDefinition/Specimen-eu-lab"
          ]
        },
        "collection": {
          "collectedDateTime": "2016-12-02"
        },
        "text": {
          "status": "generated",
          "div": "<div xmlns=\"http://www.w3.org/1999/xhtml\"><table class=\"hl7__eu__lab__report\"><tr><th>Specimen</th><th>Collection Date</th></tr><tr><td>Urine specimen</td><td><span class=\"nb\">02-Dec-2016</span></td></tr></table></div>"
        },
        "type": {
          "coding": [
            {
              "code": "122575003",
              "system": "http://snomed.info/sct",
              "display": "Urine specimen"
            }
          ]
        }
      }
    },
    {
      "fullUrl": "urn:uuid:bb5f2bf6-a024-48b5-afd6-f0b2df391589",
      "resource": {
        "resourceType": "Specimen",
        "id": "bb5f2bf6-a024-48b5-afd6-f0b2df391589",
        "meta": {
          "profile": [
            "http://hl7.eu/fhir/laboratory/StructureDefinition/Specimen-eu-lab"
          ]
        },
        "collection": {
          "collectedDateTime": "2016-12-02"
        },
        "text": {
          "status": "generated",
          "div": "<div xmlns=\"http://www.w3.org/1999/xhtml\"><table class=\"hl7__eu__lab__report\"><tr><th>Specimen</th><th>Collection Date</th></tr><tr><td>Whole blood specimen (specimen)</td><td><span class=\"nb\">02-Dec-2016</span></td></tr></table></div>"
        },
        "type": {
          "coding": [
            {
              "code": "258580003",
              "system": "http://snomed.info/sct",
              "display": "Whole blood specimen (specimen)"
            }
          ]
        }
      }
    },
    {
      "fullUrl": "urn:uuid:6bde1e77-0f23-4bc3-9e7e-ebd83515f36d",
      "resource": {
        "resourceType": "Observation",
        "id": "6bde1e77-0f23-4bc3-9e7e-ebd83515f36d",
        "meta": {
          "profile": [
            "http://hl7.eu/fhir/laboratory/StructureDefinition/Observation-resultslab-eu-lab"
          ]
        },
        "performer": [
          {
            "display": "The Central European Lab"
          }
        ],
        "category": [
          {
            "coding": [
              {
                "system": "http://terminology.hl7.org/CodeSystem/observation-category",
                "code": "laboratory"
              }
            ]
          }
        ],
        "code": {
          "coding": [
            {
              "code": "2345-7",
              "system": "http://loinc.org",
              "display": "Glucose [Mass/volume] in Serum or Plasma"
            }
          ],
          "text": "Glucose [Mass/volume] in Serum or Plasma"
        },
        "valueQuantity": {
          "system": "http://unitsofmeasure.org",
          "value": 76.2,
          "unit": "mg/dL",
          "code": "mg/dL"
        },
        "referenceRange": [
          {
            "low": {
              "value": 70,
              "code": "mg/dL",
              "system": "http://unitsofmeasure.org"
            }
          },
          {
            "high": {
              "value": 140,
              "code": "mg/dL",
              "system": "http://unitsofmeasure.org"
            }
          }
        ],
        "text": {
          "status": "generated",
          "div": "<div xmlns=\"http://www.w3.org/1999/xhtml\"><table class=\"hl7__eu__lab__report\"><tr><th>Test</th><th>02-Dec-2016</th><th>Reference&#xA0;Range</th><th>Unit</th></tr><tr><td>Glucose [Mass/volume] in Serum or Plasma</td><td>76.2</td><td>70 - 140</td><td></td><td>mg/dL</td></tr></table></div>"
        },
        "status": "final",
        "subject": {
          "reference": "urn:uuid:72082f17-427f-469d-9951-af7a78512de6",
          "display": "Victor Lagarde"
        },
        "effectiveDateTime": "2016-12-02T04:48:18Z",
        "specimen": {
          "reference": "urn:uuid:e8e8dccb-e4da-402b-b80c-75a8e3a1bfda"
        }
      }
    },
    {
      "fullUrl": "urn:uuid:6ceb54cb-852e-4527-bcb7-0a41de002762",
      "resource": {
        "resourceType": "Observation",
        "id": "6ceb54cb-852e-4527-bcb7-0a41de002762",
        "meta": {
          "profile": [
            "http://hl7.eu/fhir/laboratory/StructureDefinition/Observation-resultslab-eu-lab"
          ]
        },
        "performer": [
          {
            "display": "The Central European Lab"
          }
        ],
        "category": [
          {
            "coding": [
              {
                "system": "http://terminology.hl7.org/CodeSystem/observation-category",
                "code": "laboratory"
              }
            ]
          }
        ],
        "code": {
          "coding": [
            {
              "code": "3094-0",
              "system": "http://loinc.org",
              "display": "Urea nitrogen [Mass/volume] in Serum or Plasma"
            }
          ],
          "text": "Urea nitrogen [Mass/volume] in Serum or Plasma"
        },
        "valueQuantity": {
          "system": "http://unitsofmeasure.org",
          "value": 17.2,
          "unit": "mg/dL",
          "code": "mg/dL"
        },
        "referenceRange": [
          {
            "low": {
              "value": 7,
              "code": "mg/dL",
              "system": "http://unitsofmeasure.org"
            }
          },
          {
            "high": {
              "value": 20,
              "code": "mg/dL",
              "system": "http://unitsofmeasure.org"
            }
          }
        ],
        "text": {
          "status": "generated",
          "div": "<div xmlns=\"http://www.w3.org/1999/xhtml\"><table class=\"hl7__eu__lab__report\"><tr><th>Test</th><th>02-Dec-2016</th><th>Reference&#xA0;Range</th><th>Unit</th></tr><tr><td>Urea nitrogen [Mass/volume] in Serum or Plasma</td><td>17.2</td><td>7 - 20</td><td></td><td>mg/dL</td></tr></table></div>"
        },
        "status": "final",
        "subject": {
          "reference": "urn:uuid:72082f17-427f-469d-9951-af7a78512de6",
          "display": "Victor Lagarde"
        },
        "effectiveDateTime": "2016-12-02T04:48:18Z",
        "specimen": {
          "reference": "urn:uuid:e8e8dccb-e4da-402b-b80c-75a8e3a1bfda"
        }
      }
    },
    {
      "fullUrl": "urn:uuid:fc24a637-e2cd-426f-9e41-c81c89b7e068",
      "resource": {
        "resourceType": "Observation",
        "id": "fc24a637-e2cd-426f-9e41-c81c89b7e068",
        "meta": {
          "profile": [
            "http://hl7.eu/fhir/laboratory/StructureDefinition/Observation-resultslab-eu-lab"
          ]
        },
        "performer": [
          {
            "display": "The Central European Lab"
          }
        ],
        "category": [
          {
            "coding": [
              {
                "system": "http://terminology.hl7.org/CodeSystem/observation-category",
                "code": "laboratory"
              }
            ]
          }
        ],
        "code": {
          "coding": [
            {
              "code": "2160-0",
              "system": "http://loinc.org",
              "display": "Creatinine [Mass/volume] in Serum or Plasma"
            }
          ],
          "text": "Creatinine [Mass/volume] in Serum or Plasma"
        },
        "valueQuantity": {
          "system": "http://unitsofmeasure.org",
          "value": 2,
          "unit": "mg/dL",
          "code": "mg/dL"
        },
        "referenceRange": [
          {
            "low": {
              "value": 0.9,
              "code": "mg/dL",
              "system": "http://unitsofmeasure.org"
            }
          },
          {
            "high": {
              "value": 1.3,
              "code": "mg/dL",
              "system": "http://unitsofmeasure.org"
            }
          }
        ],
        "interpretation": [
          {
            "coding": [
              {
                "code": "H",
                "system": "http://terminology.hl7.org/CodeSystem/v3-ObservationInterpretation",
                "display": "High"
              }
            ]
          }
        ],
        "text": {
          "status": "generated",
          "div": "<div xmlns=\"http://www.w3.org/1999/xhtml\"><table class=\"hl7__eu__lab__report\"><tr><th>Test</th><th>02-Dec-2016</th><th>Reference&#xA0;Range</th><th>Unit</th></tr><tr><td>Creatinine [Mass/volume] in Serum or Plasma</td><td>2.0</td><td>0.9 - 1.3</td><td>H</td><td>mg/dL</td></tr></table></div>"
        },
        "status": "final",
        "subject": {
          "reference": "urn:uuid:72082f17-427f-469d-9951-af7a78512de6",
          "display": "Victor Lagarde"
        },
        "effectiveDateTime": "2016-12-02T04:48:18Z",
        "specimen": {
          "reference": "urn:uuid:e8e8dccb-e4da-402b-b80c-75a8e3a1bfda"
        }
      }
    },
    {
      "fullUrl": "urn:uuid:b9bdcbf7-8d4f-494d-878f-089ed337b1c8",
      "resource": {
        "resourceType": "Observation",
        "id": "b9bdcbf7-8d4f-494d-878f-089ed337b1c8",
        "meta": {
          "profile": [
            "http://hl7.eu/fhir/laboratory/StructureDefinition/Observation-resultslab-eu-lab"
          ]
        },
        "performer": [
          {
            "display": "The Central European Lab"
          }
        ],
        "category": [
          {
            "coding": [
              {
                "system": "http://terminology.hl7.org/CodeSystem/observation-category",
                "code": "laboratory"
              }
            ]
          }
        ],
        "code": {
          "coding": [
            {
              "code": "17861-6",
              "system": "http://loinc.org",
              "display": "Calcium [Mass/volume] in Serum or Plasma"
            }
          ],
          "text": "Calcium [Mass/volume] in Serum or Plasma"
        },
        "valueQuantity": {
          "system": "http://unitsofmeasure.org",
          "value": 10.1,
          "unit": "mg/dL",
          "code": "mg/dL"
        },
        "referenceRange": [
          {
            "low": {
              "value": 8.5,
              "code": "mg/dL",
              "system": "http://unitsofmeasure.org"
            }
          },
          {
            "high": {
              "value": 10.5,
              "code": "mg/dL",
              "system": "http://unitsofmeasure.org"
            }
          }
        ],
        "text": {
          "status": "generated",
          "div": "<div xmlns=\"http://www.w3.org/1999/xhtml\"><table class=\"hl7__eu__lab__report\"><tr><th>Test</th><th>02-Dec-2016</th><th>Reference&#xA0;Range</th><th>Unit</th></tr><tr><td>Calcium [Mass/volume] in Serum or Plasma</td><td>10.1</td><td>8.5 - 10.5</td><td></td><td>mg/dL</td></tr></table></div>"
        },
        "status": "final",
        "subject": {
          "reference": "urn:uuid:72082f17-427f-469d-9951-af7a78512de6",
          "display": "Victor Lagarde"
        },
        "effectiveDateTime": "2016-12-02T04:48:18Z",
        "specimen": {
          "reference": "urn:uuid:e8e8dccb-e4da-402b-b80c-75a8e3a1bfda"
        }
      }
    },
    {
      "fullUrl": "urn:uuid:3e347bad-6471-4751-aa8d-64f62183668e",
      "resource": {
        "resourceType": "Observation",
        "id": "3e347bad-6471-4751-aa8d-64f62183668e",
        "meta": {
          "profile": [
            "http://hl7.eu/fhir/laboratory/StructureDefinition/Observation-resultslab-eu-lab"
          ]
        },
        "performer": [
          {
            "display": "The Central European Lab"
          }
        ],
        "category": [
          {
            "coding": [
              {
                "system": "http://terminology.hl7.org/CodeSystem/observation-category",
                "code": "laboratory"
              }
            ]
          }
        ],
        "code": {
          "coding": [
            {
              "code": "2951-2",
              "system": "http://loinc.org",
              "display": "Sodium [Moles/volume] in Serum or Plasma"
            }
          ],
          "text": "Sodium [Moles/volume] in Serum or Plasma"
        },
        "valueQuantity": {
          "system": "http://unitsofmeasure.org",
          "value": 138.5,
          "unit": "mmol/L",
          "code": "mmol/L"
        },
        "referenceRange": [
          {
            "low": {
              "value": 135,
              "code": "mmol/L",
              "system": "http://unitsofmeasure.org"
            }
          },
          {
            "high": {
              "value": 145,
              "code": "mmol/L",
              "system": "http://unitsofmeasure.org"
            }
          }
        ],
        "text": {
          "status": "generated",
          "div": "<div xmlns=\"http://www.w3.org/1999/xhtml\"><table class=\"hl7__eu__lab__report\"><tr><th>Test</th><th>02-Dec-2016</th><th>Reference&#xA0;Range</th><th>Unit</th></tr><tr><td>Sodium [Moles/volume] in Serum or Plasma</td><td>138.5</td><td>135 - 145</td><td></td><td>mmol/L</td></tr></table></div>"
        },
        "status": "final",
        "subject": {
          "reference": "urn:uuid:72082f17-427f-469d-9951-af7a78512de6",
          "display": "Victor Lagarde"
        },
        "effectiveDateTime": "2016-12-02T04:48:18Z",
        "specimen": {
          "reference": "urn:uuid:e8e8dccb-e4da-402b-b80c-75a8e3a1bfda"
        }
      }
    },
    {
      "fullUrl": "urn:uuid:9a85a5be-7bc9-482e-a514-177c3190218c",
      "resource": {
        "resourceType": "Observation",
        "id": "9a85a5be-7bc9-482e-a514-177c3190218c",
        "meta": {
          "profile": [
            "http://hl7.eu/fhir/laboratory/StructureDefinition/Observation-resultslab-eu-lab"
          ]
        },
        "performer": [
          {
            "display": "The Central European Lab"
          }
        ],
        "category": [
          {
            "coding": [
              {
                "system": "http://terminology.hl7.org/CodeSystem/observation-category",
                "code": "laboratory"
              }
            ]
          }
        ],
        "code": {
          "coding": [
            {
              "code": "2823-3",
              "system": "http://loinc.org",
              "display": "Potassium [Moles/volume] in Serum or Plasma"
            }
          ],
          "text": "Potassium [Moles/volume] in Serum or Plasma"
        },
        "valueQuantity": {
          "system": "http://unitsofmeasure.org",
          "value": 3.9,
          "unit": "mmol/L",
          "code": "mmol/L"
        },
        "referenceRange": [
          {
            "low": {
              "value": 3.5,
              "code": "mmol/L",
              "system": "http://unitsofmeasure.org"
            }
          },
          {
            "high": {
              "value": 5.3,
              "code": "mmol/L",
              "system": "http://unitsofmeasure.org"
            }
          }
        ],
        "text": {
          "status": "generated",
          "div": "<div xmlns=\"http://www.w3.org/1999/xhtml\"><table class=\"hl7__eu__lab__report\"><tr><th>Test</th><th>02-Dec-2016</th><th>Reference&#xA0;Range</th><th>Unit</th></tr><tr><td>Potassium [Moles/volume] in Serum or Plasma</td><td>3.9</td><td>3.5 - 5.3</td><td></td><td>mmol/L</td></tr></table></div>"
        },
        "status": "final",
        "subject": {
          "reference": "urn:uuid:72082f17-427f-469d-9951-af7a78512de6",
          "display": "Victor Lagarde"
        },
        "effectiveDateTime": "2016-12-02T04:48:18Z",
        "specimen": {
          "reference": "urn:uuid:e8e8dccb-e4da-402b-b80c-75a8e3a1bfda"
        }
      }
    },
    {
      "fullUrl": "urn:uuid:13b04206-5581-4212-afd7-35bca432687d",
      "resource": {
        "resourceType": "Observation",
        "id": "13b04206-5581-4212-afd7-35bca432687d",
        "meta": {
          "profile": [
            "http://hl7.eu/fhir/laboratory/StructureDefinition/Observation-resultslab-eu-lab"
          ]
        },
        "performer": [
          {
            "display": "The Central European Lab"
          }
        ],
        "category": [
          {
            "coding": [
              {
                "system": "http://terminology.hl7.org/CodeSystem/observation-category",
                "code": "laboratory"
              }
            ]
          }
        ],
        "code": {
          "coding": [
            {
              "code": "2075-0",
              "system": "http://loinc.org",
              "display": "Chloride [Moles/volume] in Serum or Plasma"
            }
          ],
          "text": "Chloride [Moles/volume] in Serum or Plasma"
        },
        "valueQuantity": {
          "system": "http://unitsofmeasure.org",
          "value": 107.6,
          "unit": "mmol/L",
          "code": "mmol/L"
        },
        "referenceRange": [
          {
            "low": {
              "value": 98,
              "code": "mmol/L",
              "system": "http://unitsofmeasure.org"
            }
          },
          {
            "high": {
              "value": 107,
              "code": "mmol/L",
              "system": "http://unitsofmeasure.org"
            }
          }
        ],
        "interpretation": [
          {
            "coding": [
              {
                "code": "H",
                "system": "http://terminology.hl7.org/CodeSystem/v3-ObservationInterpretation",
                "display": "High"
              }
            ]
          }
        ],
        "text": {
          "status": "generated",
          "div": "<div xmlns=\"http://www.w3.org/1999/xhtml\"><table class=\"hl7__eu__lab__report\"><tr><th>Test</th><th>02-Dec-2016</th><th>Reference&#xA0;Range</th><th>Unit</th></tr><tr><td>Chloride [Moles/volume] in Serum or Plasma</td><td>107.6</td><td>98 - 107</td><td>H</td><td>mmol/L</td></tr></table></div>"
        },
        "status": "final",
        "subject": {
          "reference": "urn:uuid:72082f17-427f-469d-9951-af7a78512de6",
          "display": "Victor Lagarde"
        },
        "effectiveDateTime": "2016-12-02T04:48:18Z",
        "specimen": {
          "reference": "urn:uuid:e8e8dccb-e4da-402b-b80c-75a8e3a1bfda"
        }
      }
    },
    {
      "fullUrl": "urn:uuid:1073a227-5578-4340-8702-a59df5a7dc96",
      "resource": {
        "resourceType": "Observation",
        "id": "1073a227-5578-4340-8702-a59df5a7dc96",
        "meta": {
          "profile": [
            "http://hl7.eu/fhir/laboratory/StructureDefinition/Observation-resultslab-eu-lab"
          ]
        },
        "performer": [
          {
            "display": "The Central European Lab"
          }
        ],
        "category": [
          {
            "coding": [
              {
                "system": "http://terminology.hl7.org/CodeSystem/observation-category",
                "code": "laboratory"
              }
            ]
          }
        ],
        "code": {
          "coding": [
            {
              "code": "2028-9",
              "system": "http://loinc.org",
              "display": "Carbon dioxide, total [Moles/volume] in Serum or Plasma"
            }
          ],
          "text": "Carbon dioxide, total [Moles/volume] in Serum or Plasma"
        },
        "valueQuantity": {
          "system": "http://unitsofmeasure.org",
          "value": 23.5,
          "unit": "mmol/L",
          "code": "mmol/L"
        },
        "referenceRange": [
          {
            "low": {
              "value": 22,
              "code": "mmol/L",
              "system": "http://unitsofmeasure.org"
            }
          },
          {
            "high": {
              "value": 33,
              "code": "mmol/L",
              "system": "http://unitsofmeasure.org"
            }
          }
        ],
        "text": {
          "status": "generated",
          "div": "<div xmlns=\"http://www.w3.org/1999/xhtml\"><table class=\"hl7__eu__lab__report\"><tr><th>Test</th><th>02-Dec-2016</th><th>Reference&#xA0;Range</th><th>Unit</th></tr><tr><td>Carbon dioxide, total [Moles/volume] in Serum or Plasma</td><td>23.5</td><td>22 - 33</td><td></td><td>mmol/L</td></tr></table></div>"
        },
        "status": "final",
        "subject": {
          "reference": "urn:uuid:72082f17-427f-469d-9951-af7a78512de6",
          "display": "Victor Lagarde"
        },
        "effectiveDateTime": "2016-12-02T04:48:18Z",
        "specimen": {
          "reference": "urn:uuid:e8e8dccb-e4da-402b-b80c-75a8e3a1bfda"
        }
      }
    },
    {
      "fullUrl": "urn:uuid:30bc7ebc-55ae-4038-aa8e-74e8afeb34c2",
      "resource": {
        "resourceType": "Observation",
        "id": "30bc7ebc-55ae-4038-aa8e-74e8afeb34c2",
        "meta": {
          "profile": [
            "http://hl7.eu/fhir/laboratory/StructureDefinition/Observation-resultslab-eu-lab"
          ]
        },
        "performer": [
          {
            "display": "The Central European Lab"
          }
        ],
        "category": [
          {
            "coding": [
              {
                "system": "http://terminology.hl7.org/CodeSystem/observation-category",
                "code": "laboratory"
              }
            ]
          }
        ],
        "code": {
          "coding": [
            {
              "code": "5767-9",
              "system": "http://loinc.org",
              "display": "Appearance of Urine"
            }
          ],
          "text": "Appearance of Urine"
        },
        "text": {
          "status": "generated",
          "div": "<div xmlns=\"http://www.w3.org/1999/xhtml\"><table class=\"hl7__eu__lab__report\"><tr><th>Test</th><th>02-Dec-2016</th><th>Reference&#xA0;Range</th><th>Unit</th></tr><tr><td>Appearance of Urine</td></tr></table></div>"
        },
        "status": "final",
        "subject": {
          "reference": "urn:uuid:72082f17-427f-469d-9951-af7a78512de6",
          "display": "Victor Lagarde"
        },
        "effectiveDateTime": "2016-12-02T04:48:18Z",
        "specimen": {
          "reference": "urn:uuid:3820790a-a2b9-4f49-9e8c-997e9210effe"
        }
      }
    },
    {
      "fullUrl": "urn:uuid:ce9ca83d-9c12-4d6d-844b-13bd6d04b3e3",
      "resource": {
        "resourceType": "Observation",
        "id": "ce9ca83d-9c12-4d6d-844b-13bd6d04b3e3",
        "meta": {
          "profile": [
            "http://hl7.eu/fhir/laboratory/StructureDefinition/Observation-resultslab-eu-lab"
          ]
        },
        "performer": [
          {
            "display": "The Central European Lab"
          }
        ],
        "category": [
          {
            "coding": [
              {
                "system": "http://terminology.hl7.org/CodeSystem/observation-category",
                "code": "laboratory"
              }
            ]
          }
        ],
        "code": {
          "coding": [
            {
              "code": "34533-0",
              "system": "http://loinc.org",
              "display": "Odor of Urine"
            }
          ],
          "text": "Odor of Urine"
        },
        "text": {
          "status": "generated",
          "div": "<div xmlns=\"http://www.w3.org/1999/xhtml\"><table class=\"hl7__eu__lab__report\"><tr><th>Test</th><th>02-Dec-2016</th><th>Reference&#xA0;Range</th><th>Unit</th></tr><tr><td>Odor of Urine</td></tr></table></div>"
        },
        "status": "final",
        "subject": {
          "reference": "urn:uuid:72082f17-427f-469d-9951-af7a78512de6",
          "display": "Victor Lagarde"
        },
        "effectiveDateTime": "2016-12-02T04:48:18Z",
        "specimen": {
          "reference": "urn:uuid:3820790a-a2b9-4f49-9e8c-997e9210effe"
        }
      }
    },
    {
      "fullUrl": "urn:uuid:296e16db-5dfb-4bb9-9906-dab917dcb73e",
      "resource": {
        "resourceType": "Observation",
        "id": "296e16db-5dfb-4bb9-9906-dab917dcb73e",
        "meta": {
          "profile": [
            "http://hl7.eu/fhir/laboratory/StructureDefinition/Observation-resultslab-eu-lab"
          ]
        },
        "performer": [
          {
            "display": "The Central European Lab"
          }
        ],
        "category": [
          {
            "coding": [
              {
                "system": "http://terminology.hl7.org/CodeSystem/observation-category",
                "code": "laboratory"
              }
            ]
          }
        ],
        "code": {
          "coding": [
            {
              "code": "32167-9",
              "system": "http://loinc.org",
              "display": "Clarity of Urine"
            }
          ],
          "text": "Clarity of Urine"
        },
        "text": {
          "status": "generated",
          "div": "<div xmlns=\"http://www.w3.org/1999/xhtml\"><table class=\"hl7__eu__lab__report\"><tr><th>Test</th><th>02-Dec-2016</th><th>Reference&#xA0;Range</th><th>Unit</th></tr><tr><td>Clarity of Urine</td></tr></table></div>"
        },
        "status": "final",
        "subject": {
          "reference": "urn:uuid:72082f17-427f-469d-9951-af7a78512de6",
          "display": "Victor Lagarde"
        },
        "effectiveDateTime": "2016-12-02T04:48:18Z",
        "specimen": {
          "reference": "urn:uuid:3820790a-a2b9-4f49-9e8c-997e9210effe"
        }
      }
    },
    {
      "fullUrl": "urn:uuid:e9e62d06-a8c6-4dfd-86c9-d26485142fcb",
      "resource": {
        "resourceType": "Observation",
        "id": "e9e62d06-a8c6-4dfd-86c9-d26485142fcb",
        "meta": {
          "profile": [
            "http://hl7.eu/fhir/laboratory/StructureDefinition/Observation-resultslab-eu-lab"
          ]
        },
        "performer": [
          {
            "display": "The Central European Lab"
          }
        ],
        "category": [
          {
            "coding": [
              {
                "system": "http://terminology.hl7.org/CodeSystem/observation-category",
                "code": "laboratory"
              }
            ]
          }
        ],
        "code": {
          "coding": [
            {
              "code": "5778-6",
              "system": "http://loinc.org",
              "display": "Color of Urine"
            }
          ],
          "text": "Color of Urine"
        },
        "text": {
          "status": "generated",
          "div": "<div xmlns=\"http://www.w3.org/1999/xhtml\"><table class=\"hl7__eu__lab__report\"><tr><th>Test</th><th>02-Dec-2016</th><th>Reference&#xA0;Range</th><th>Unit</th></tr><tr><td>Color of Urine</td></tr></table></div>"
        },
        "status": "final",
        "subject": {
          "reference": "urn:uuid:72082f17-427f-469d-9951-af7a78512de6",
          "display": "Victor Lagarde"
        },
        "effectiveDateTime": "2016-12-02T04:48:18Z",
        "specimen": {
          "reference": "urn:uuid:3820790a-a2b9-4f49-9e8c-997e9210effe"
        }
      }
    },
    {
      "fullUrl": "urn:uuid:6992851c-4fa3-4740-964c-8b196dddb778",
      "resource": {
        "resourceType": "Observation",
        "id": "6992851c-4fa3-4740-964c-8b196dddb778",
        "meta": {
          "profile": [
            "http://hl7.eu/fhir/laboratory/StructureDefinition/Observation-resultslab-eu-lab"
          ]
        },
        "performer": [
          {
            "display": "The Central European Lab"
          }
        ],
        "category": [
          {
            "coding": [
              {
                "system": "http://terminology.hl7.org/CodeSystem/observation-category",
                "code": "laboratory"
              }
            ]
          }
        ],
        "code": {
          "coding": [
            {
              "code": "5792-7",
              "system": "http://loinc.org",
              "display": "Glucose [Mass/volume] in Urine by Test strip"
            }
          ],
          "text": "Glucose [Mass/volume] in Urine by Test strip"
        },
        "valueQuantity": {
          "system": "http://unitsofmeasure.org",
          "value": 1.8,
          "unit": "mg/dL",
          "code": "mg/dL"
        },
        "referenceRange": [
          {
            "low": {
              "value": 0,
              "code": "mg/dL",
              "system": "http://unitsofmeasure.org"
            }
          },
          {
            "high": {
              "value": 0.8,
              "code": "mg/dL",
              "system": "http://unitsofmeasure.org"
            }
          }
        ],
        "interpretation": [
          {
            "coding": [
              {
                "code": "H",
                "system": "http://terminology.hl7.org/CodeSystem/v3-ObservationInterpretation",
                "display": "High"
              }
            ]
          }
        ],
        "text": {
          "status": "generated",
          "div": "<div xmlns=\"http://www.w3.org/1999/xhtml\"><table class=\"hl7__eu__lab__report\"><tr><th>Test</th><th>02-Dec-2016</th><th>Reference&#xA0;Range</th><th>Unit</th></tr><tr><td>Glucose [Mass/volume] in Urine by Test strip</td><td>1.8</td><td>0 - 0.8</td><td>H</td><td>mg/dL</td></tr></table></div>"
        },
        "status": "final",
        "subject": {
          "reference": "urn:uuid:72082f17-427f-469d-9951-af7a78512de6",
          "display": "Victor Lagarde"
        },
        "effectiveDateTime": "2016-12-02T04:48:18Z",
        "specimen": {
          "reference": "urn:uuid:3820790a-a2b9-4f49-9e8c-997e9210effe"
        }
      }
    },
    {
      "fullUrl": "urn:uuid:e9a06ffc-2a3f-4929-954e-0f962ba3b405",
      "resource": {
        "resourceType": "Observation",
        "id": "e9a06ffc-2a3f-4929-954e-0f962ba3b405",
        "meta": {
          "profile": [
            "http://hl7.eu/fhir/laboratory/StructureDefinition/Observation-resultslab-eu-lab"
          ]
        },
        "performer": [
          {
            "display": "The Central European Lab"
          }
        ],
        "category": [
          {
            "coding": [
              {
                "system": "http://terminology.hl7.org/CodeSystem/observation-category",
                "code": "laboratory"
              }
            ]
          }
        ],
        "code": {
          "coding": [
            {
              "code": "25428-4",
              "system": "http://loinc.org",
              "display": "Glucose [Presence] in Urine by Test strip"
            }
          ],
          "text": "Glucose [Presence] in Urine by Test strip"
        },
        "text": {
          "status": "generated",
          "div": "<div xmlns=\"http://www.w3.org/1999/xhtml\"><table class=\"hl7__eu__lab__report\"><tr><th>Test</th><th>02-Dec-2016</th><th>Reference&#xA0;Range</th><th>Unit</th></tr><tr><td>Glucose [Presence] in Urine by Test strip</td></tr></table></div>"
        },
        "status": "final",
        "subject": {
          "reference": "urn:uuid:72082f17-427f-469d-9951-af7a78512de6",
          "display": "Victor Lagarde"
        },
        "effectiveDateTime": "2016-12-02T04:48:18Z",
        "specimen": {
          "reference": "urn:uuid:3820790a-a2b9-4f49-9e8c-997e9210effe"
        }
      }
    },
    {
      "fullUrl": "urn:uuid:66ac64f2-8355-446d-963c-6a8ea27fccfb",
      "resource": {
        "resourceType": "Observation",
        "id": "66ac64f2-8355-446d-963c-6a8ea27fccfb",
        "meta": {
          "profile": [
            "http://hl7.eu/fhir/laboratory/StructureDefinition/Observation-resultslab-eu-lab"
          ]
        },
        "performer": [
          {
            "display": "The Central European Lab"
          }
        ],
        "category": [
          {
            "coding": [
              {
                "system": "http://terminology.hl7.org/CodeSystem/observation-category",
                "code": "laboratory"
              }
            ]
          }
        ],
        "code": {
          "coding": [
            {
              "code": "20505-4",
              "system": "http://loinc.org",
              "display": "Bilirubin.total [Mass/volume] in Urine by Test strip"
            }
          ],
          "text": "Bilirubin.total [Mass/volume] in Urine by Test strip"
        },
        "valueQuantity": {
          "system": "http://unitsofmeasure.org",
          "value": 1.4,
          "unit": "mg/dL",
          "code": "mg/dL"
        },
        "referenceRange": [
          {
            "low": {
              "value": 0,
              "code": "mg/dL",
              "system": "http://unitsofmeasure.org"
            }
          },
          {
            "high": {
              "value": 1.9,
              "code": "mg/dL",
              "system": "http://unitsofmeasure.org"
            }
          }
        ],
        "text": {
          "status": "generated",
          "div": "<div xmlns=\"http://www.w3.org/1999/xhtml\"><table class=\"hl7__eu__lab__report\"><tr><th>Test</th><th>02-Dec-2016</th><th>Reference&#xA0;Range</th><th>Unit</th></tr><tr><td>Bilirubin.total [Mass/volume] in Urine by Test strip</td><td>1.4</td><td>0 - 1.9</td><td></td><td>mg/dL</td></tr></table></div>"
        },
        "status": "final",
        "subject": {
          "reference": "urn:uuid:72082f17-427f-469d-9951-af7a78512de6",
          "display": "Victor Lagarde"
        },
        "effectiveDateTime": "2016-12-02T04:48:18Z",
        "specimen": {
          "reference": "urn:uuid:3820790a-a2b9-4f49-9e8c-997e9210effe"
        }
      }
    },
    {
      "fullUrl": "urn:uuid:cd0c34ee-cccf-40d9-bdcd-752a58d610f3",
      "resource": {
        "resourceType": "Observation",
        "id": "cd0c34ee-cccf-40d9-bdcd-752a58d610f3",
        "meta": {
          "profile": [
            "http://hl7.eu/fhir/laboratory/StructureDefinition/Observation-resultslab-eu-lab"
          ]
        },
        "performer": [
          {
            "display": "The Central European Lab"
          }
        ],
        "category": [
          {
            "coding": [
              {
                "system": "http://terminology.hl7.org/CodeSystem/observation-category",
                "code": "laboratory"
              }
            ]
          }
        ],
        "code": {
          "coding": [
            {
              "code": "5770-3",
              "system": "http://loinc.org",
              "display": "Bilirubin.total [Presence] in Urine by Test strip"
            }
          ],
          "text": "Bilirubin.total [Presence] in Urine by Test strip"
        },
        "text": {
          "status": "generated",
          "div": "<div xmlns=\"http://www.w3.org/1999/xhtml\"><table class=\"hl7__eu__lab__report\"><tr><th>Test</th><th>02-Dec-2016</th><th>Reference&#xA0;Range</th><th>Unit</th></tr><tr><td>Bilirubin.total [Presence] in Urine by Test strip</td></tr></table></div>"
        },
        "status": "final",
        "subject": {
          "reference": "urn:uuid:72082f17-427f-469d-9951-af7a78512de6",
          "display": "Victor Lagarde"
        },
        "effectiveDateTime": "2016-12-02T04:48:18Z",
        "specimen": {
          "reference": "urn:uuid:3820790a-a2b9-4f49-9e8c-997e9210effe"
        }
      }
    },
    {
      "fullUrl": "urn:uuid:d1ea3738-3578-4d3f-accc-06a0ecc369a2",
      "resource": {
        "resourceType": "Observation",
        "id": "d1ea3738-3578-4d3f-accc-06a0ecc369a2",
        "meta": {
          "profile": [
            "http://hl7.eu/fhir/laboratory/StructureDefinition/Observation-resultslab-eu-lab"
          ]
        },
        "performer": [
          {
            "display": "The Central European Lab"
          }
        ],
        "category": [
          {
            "coding": [
              {
                "system": "http://terminology.hl7.org/CodeSystem/observation-category",
                "code": "laboratory"
              }
            ]
          }
        ],
        "code": {
          "coding": [
            {
              "code": "5797-6",
              "system": "http://loinc.org",
              "display": "Ketones [Mass/volume] in Urine by Test strip"
            }
          ],
          "text": "Ketones [Mass/volume] in Urine by Test strip"
        },
        "valueQuantity": {
          "system": "http://unitsofmeasure.org",
          "value": 17.7,
          "unit": "mg/dL",
          "code": "mg/dL"
        },
        "referenceRange": [
          {
            "low": {
              "value": 0,
              "code": "mg/dL",
              "system": "http://unitsofmeasure.org"
            }
          },
          {
            "high": {
              "value": 3,
              "code": "mg/dL",
              "system": "http://unitsofmeasure.org"
            }
          }
        ],
        "interpretation": [
          {
            "coding": [
              {
                "code": "H",
                "system": "http://terminology.hl7.org/CodeSystem/v3-ObservationInterpretation",
                "display": "High"
              }
            ]
          }
        ],
        "text": {
          "status": "generated",
          "div": "<div xmlns=\"http://www.w3.org/1999/xhtml\"><table class=\"hl7__eu__lab__report\"><tr><th>Test</th><th>02-Dec-2016</th><th>Reference&#xA0;Range</th><th>Unit</th></tr><tr><td>Ketones [Mass/volume] in Urine by Test strip</td><td>17.7</td><td>0 - 3</td><td>H</td><td>mg/dL</td></tr></table></div>"
        },
        "status": "final",
        "subject": {
          "reference": "urn:uuid:72082f17-427f-469d-9951-af7a78512de6",
          "display": "Victor Lagarde"
        },
        "effectiveDateTime": "2016-12-02T04:48:18Z",
        "specimen": {
          "reference": "urn:uuid:3820790a-a2b9-4f49-9e8c-997e9210effe"
        }
      }
    },
    {
      "fullUrl": "urn:uuid:79de696e-c47d-4e03-98ec-e5da65fa7179",
      "resource": {
        "resourceType": "Observation",
        "id": "79de696e-c47d-4e03-98ec-e5da65fa7179",
        "meta": {
          "profile": [
            "http://hl7.eu/fhir/laboratory/StructureDefinition/Observation-resultslab-eu-lab"
          ]
        },
        "performer": [
          {
            "display": "The Central European Lab"
          }
        ],
        "category": [
          {
            "coding": [
              {
                "system": "http://terminology.hl7.org/CodeSystem/observation-category",
                "code": "laboratory"
              }
            ]
          }
        ],
        "code": {
          "coding": [
            {
              "code": "2514-8",
              "system": "http://loinc.org",
              "display": "Ketones [Presence] in Urine by Test strip"
            }
          ],
          "text": "Ketones [Presence] in Urine by Test strip"
        },
        "text": {
          "status": "generated",
          "div": "<div xmlns=\"http://www.w3.org/1999/xhtml\"><table class=\"hl7__eu__lab__report\"><tr><th>Test</th><th>02-Dec-2016</th><th>Reference&#xA0;Range</th><th>Unit</th></tr><tr><td>Ketones [Presence] in Urine by Test strip</td></tr></table></div>"
        },
        "status": "final",
        "subject": {
          "reference": "urn:uuid:72082f17-427f-469d-9951-af7a78512de6",
          "display": "Victor Lagarde"
        },
        "effectiveDateTime": "2016-12-02T04:48:18Z",
        "specimen": {
          "reference": "urn:uuid:3820790a-a2b9-4f49-9e8c-997e9210effe"
        }
      }
    },
    {
      "fullUrl": "urn:uuid:475a0468-8bd0-4286-8022-559fc437ad0e",
      "resource": {
        "resourceType": "Observation",
        "id": "475a0468-8bd0-4286-8022-559fc437ad0e",
        "meta": {
          "profile": [
            "http://hl7.eu/fhir/laboratory/StructureDefinition/Observation-resultslab-eu-lab"
          ]
        },
        "performer": [
          {
            "display": "The Central European Lab"
          }
        ],
        "category": [
          {
            "coding": [
              {
                "system": "http://terminology.hl7.org/CodeSystem/observation-category",
                "code": "laboratory"
              }
            ]
          }
        ],
        "code": {
          "coding": [
            {
              "code": "5811-5",
              "system": "http://loinc.org",
              "display": "Specific gravity of Urine by Test strip"
            }
          ],
          "text": "Specific gravity of Urine by Test strip"
        },
        "valueQuantity": {
          "system": "http://unitsofmeasure.org",
          "value": 1,
          "unit": "{nominal}",
          "code": "{nominal}"
        },
        "referenceRange": [
          {
            "low": {
              "value": 1.01,
              "code": "g/mL",
              "system": "http://unitsofmeasure.org"
            }
          },
          {
            "high": {
              "value": 1.03,
              "code": "g/mL",
              "system": "http://unitsofmeasure.org"
            }
          }
        ],
        "interpretation": [
          {
            "coding": [
              {
                "code": "L",
                "system": "http://terminology.hl7.org/CodeSystem/v3-ObservationInterpretation",
                "display": "Low"
              }
            ]
          }
        ],
        "text": {
          "status": "generated",
          "div": "<div xmlns=\"http://www.w3.org/1999/xhtml\"><table class=\"hl7__eu__lab__report\"><tr><th>Test</th><th>02-Dec-2016</th><th>Reference&#xA0;Range</th><th>Unit</th></tr><tr><td>Specific gravity of Urine by Test strip</td><td>1.0</td><td>1.01 - 1.03</td><td>L</td><td>{nominal}</td></tr></table></div>"
        },
        "status": "final",
        "subject": {
          "reference": "urn:uuid:72082f17-427f-469d-9951-af7a78512de6",
          "display": "Victor Lagarde"
        },
        "effectiveDateTime": "2016-12-02T04:48:18Z",
        "specimen": {
          "reference": "urn:uuid:3820790a-a2b9-4f49-9e8c-997e9210effe"
        }
      }
    },
    {
      "fullUrl": "urn:uuid:711e1302-b7a1-49a7-b3a5-95c0c9686bd6",
      "resource": {
        "resourceType": "Observation",
        "id": "711e1302-b7a1-49a7-b3a5-95c0c9686bd6",
        "meta": {
          "profile": [
            "http://hl7.eu/fhir/laboratory/StructureDefinition/Observation-resultslab-eu-lab"
          ]
        },
        "performer": [
          {
            "display": "The Central European Lab"
          }
        ],
        "category": [
          {
            "coding": [
              {
                "system": "http://terminology.hl7.org/CodeSystem/observation-category",
                "code": "laboratory"
              }
            ]
          }
        ],
        "code": {
          "coding": [
            {
              "code": "5803-2",
              "system": "http://loinc.org",
              "display": "pH of Urine by Test strip"
            }
          ],
          "text": "pH of Urine by Test strip"
        },
        "valueQuantity": {
          "system": "http://unitsofmeasure.org",
          "value": 5.9,
          "unit": "pH",
          "code": "pH"
        },
        "referenceRange": [
          {
            "low": {
              "value": 4.5,
              "code": "pH",
              "system": "http://unitsofmeasure.org"
            }
          },
          {
            "high": {
              "value": 7.5,
              "code": "pH",
              "system": "http://unitsofmeasure.org"
            }
          }
        ],
        "text": {
          "status": "generated",
          "div": "<div xmlns=\"http://www.w3.org/1999/xhtml\"><table class=\"hl7__eu__lab__report\"><tr><th>Test</th><th>02-Dec-2016</th><th>Reference&#xA0;Range</th><th>Unit</th></tr><tr><td>pH of Urine by Test strip</td><td>5.9</td><td>4.5 - 7.5</td><td></td><td>pH</td></tr></table></div>"
        },
        "status": "final",
        "subject": {
          "reference": "urn:uuid:72082f17-427f-469d-9951-af7a78512de6",
          "display": "Victor Lagarde"
        },
        "effectiveDateTime": "2016-12-02T04:48:18Z",
        "specimen": {
          "reference": "urn:uuid:3820790a-a2b9-4f49-9e8c-997e9210effe"
        }
      }
    },
    {
      "fullUrl": "urn:uuid:7e9da4c7-91a0-49cc-9869-78960945f947",
      "resource": {
        "resourceType": "Observation",
        "id": "7e9da4c7-91a0-49cc-9869-78960945f947",
        "meta": {
          "profile": [
            "http://hl7.eu/fhir/laboratory/StructureDefinition/Observation-resultslab-eu-lab"
          ]
        },
        "performer": [
          {
            "display": "The Central European Lab"
          }
        ],
        "category": [
          {
            "coding": [
              {
                "system": "http://terminology.hl7.org/CodeSystem/observation-category",
                "code": "laboratory"
              }
            ]
          }
        ],
        "code": {
          "coding": [
            {
              "code": "5804-0",
              "system": "http://loinc.org",
              "display": "Protein [Mass/volume] in Urine by Test strip"
            }
          ],
          "text": "Protein [Mass/volume] in Urine by Test strip"
        },
        "valueQuantity": {
          "system": "http://unitsofmeasure.org",
          "value": 168.6,
          "unit": "mg/dL",
          "code": "mg/dL"
        },
        "referenceRange": [
          {
            "low": {
              "value": 0,
              "code": "mg/dL",
              "system": "http://unitsofmeasure.org"
            }
          },
          {
            "high": {
              "value": 149,
              "code": "mg/dL",
              "system": "http://unitsofmeasure.org"
            }
          }
        ],
        "interpretation": [
          {
            "coding": [
              {
                "code": "H",
                "system": "http://terminology.hl7.org/CodeSystem/v3-ObservationInterpretation",
                "display": "High"
              }
            ]
          }
        ],
        "text": {
          "status": "generated",
          "div": "<div xmlns=\"http://www.w3.org/1999/xhtml\"><table class=\"hl7__eu__lab__report\"><tr><th>Test</th><th>02-Dec-2016</th><th>Reference&#xA0;Range</th><th>Unit</th></tr><tr><td>Protein [Mass/volume] in Urine by Test strip</td><td>168.6</td><td>0 - 149</td><td>H</td><td>mg/dL</td></tr></table></div>"
        },
        "status": "final",
        "subject": {
          "reference": "urn:uuid:72082f17-427f-469d-9951-af7a78512de6",
          "display": "Victor Lagarde"
        },
        "effectiveDateTime": "2016-12-02T04:48:18Z",
        "specimen": {
          "reference": "urn:uuid:3820790a-a2b9-4f49-9e8c-997e9210effe"
        }
      }
    },
    {
      "fullUrl": "urn:uuid:84885499-dc20-40d0-8126-b79bdef4ec42",
      "resource": {
        "resourceType": "Observation",
        "id": "84885499-dc20-40d0-8126-b79bdef4ec42",
        "meta": {
          "profile": [
            "http://hl7.eu/fhir/laboratory/StructureDefinition/Observation-resultslab-eu-lab"
          ]
        },
        "performer": [
          {
            "display": "The Central European Lab"
          }
        ],
        "category": [
          {
            "coding": [
              {
                "system": "http://terminology.hl7.org/CodeSystem/observation-category",
                "code": "laboratory"
              }
            ]
          }
        ],
        "code": {
          "coding": [
            {
              "code": "20454-5",
              "system": "http://loinc.org",
              "display": "Protein [Presence] in Urine by Test strip"
            }
          ],
          "text": "Protein [Presence] in Urine by Test strip"
        },
        "text": {
          "status": "generated",
          "div": "<div xmlns=\"http://www.w3.org/1999/xhtml\"><table class=\"hl7__eu__lab__report\"><tr><th>Test</th><th>02-Dec-2016</th><th>Reference&#xA0;Range</th><th>Unit</th></tr><tr><td>Protein [Presence] in Urine by Test strip</td></tr></table></div>"
        },
        "status": "final",
        "subject": {
          "reference": "urn:uuid:72082f17-427f-469d-9951-af7a78512de6",
          "display": "Victor Lagarde"
        },
        "effectiveDateTime": "2016-12-02T04:48:18Z",
        "specimen": {
          "reference": "urn:uuid:3820790a-a2b9-4f49-9e8c-997e9210effe"
        }
      }
    },
    {
      "fullUrl": "urn:uuid:7d765e7f-eab0-46b0-9c4e-709cac40b68d",
      "resource": {
        "resourceType": "Observation",
        "id": "7d765e7f-eab0-46b0-9c4e-709cac40b68d",
        "meta": {
          "profile": [
            "http://hl7.eu/fhir/laboratory/StructureDefinition/Observation-resultslab-eu-lab"
          ]
        },
        "performer": [
          {
            "display": "The Central European Lab"
          }
        ],
        "category": [
          {
            "coding": [
              {
                "system": "http://terminology.hl7.org/CodeSystem/observation-category",
                "code": "laboratory"
              }
            ]
          }
        ],
        "code": {
          "coding": [
            {
              "code": "5802-4",
              "system": "http://loinc.org",
              "display": "Nitrite [Presence] in Urine by Test strip"
            }
          ],
          "text": "Nitrite [Presence] in Urine by Test strip"
        },
        "text": {
          "status": "generated",
          "div": "<div xmlns=\"http://www.w3.org/1999/xhtml\"><table class=\"hl7__eu__lab__report\"><tr><th>Test</th><th>02-Dec-2016</th><th>Reference&#xA0;Range</th><th>Unit</th></tr><tr><td>Nitrite [Presence] in Urine by Test strip</td></tr></table></div>"
        },
        "status": "final",
        "subject": {
          "reference": "urn:uuid:72082f17-427f-469d-9951-af7a78512de6",
          "display": "Victor Lagarde"
        },
        "effectiveDateTime": "2016-12-02T04:48:18Z",
        "specimen": {
          "reference": "urn:uuid:3820790a-a2b9-4f49-9e8c-997e9210effe"
        }
      }
    },
    {
      "fullUrl": "urn:uuid:5a3023ba-99f8-496e-bc07-1d5b3643147c",
      "resource": {
        "resourceType": "Observation",
        "id": "5a3023ba-99f8-496e-bc07-1d5b3643147c",
        "meta": {
          "profile": [
            "http://hl7.eu/fhir/laboratory/StructureDefinition/Observation-resultslab-eu-lab"
          ]
        },
        "performer": [
          {
            "display": "The Central European Lab"
          }
        ],
        "category": [
          {
            "coding": [
              {
                "system": "http://terminology.hl7.org/CodeSystem/observation-category",
                "code": "laboratory"
              }
            ]
          }
        ],
        "code": {
          "coding": [
            {
              "code": "5794-3",
              "system": "http://loinc.org",
              "display": "Hemoglobin [Presence] in Urine by Test strip"
            }
          ],
          "text": "Hemoglobin [Presence] in Urine by Test strip"
        },
        "text": {
          "status": "generated",
          "div": "<div xmlns=\"http://www.w3.org/1999/xhtml\"><table class=\"hl7__eu__lab__report\"><tr><th>Test</th><th>02-Dec-2016</th><th>Reference&#xA0;Range</th><th>Unit</th></tr><tr><td>Hemoglobin [Presence] in Urine by Test strip</td></tr></table></div>"
        },
        "status": "final",
        "subject": {
          "reference": "urn:uuid:72082f17-427f-469d-9951-af7a78512de6",
          "display": "Victor Lagarde"
        },
        "effectiveDateTime": "2016-12-02T04:48:18Z",
        "specimen": {
          "reference": "urn:uuid:3820790a-a2b9-4f49-9e8c-997e9210effe"
        }
      }
    },
    {
      "fullUrl": "urn:uuid:fbe4f481-5416-4357-991a-42371a283618",
      "resource": {
        "resourceType": "Observation",
        "id": "fbe4f481-5416-4357-991a-42371a283618",
        "meta": {
          "profile": [
            "http://hl7.eu/fhir/laboratory/StructureDefinition/Observation-resultslab-eu-lab"
          ]
        },
        "performer": [
          {
            "display": "The Central European Lab"
          }
        ],
        "category": [
          {
            "coding": [
              {
                "system": "http://terminology.hl7.org/CodeSystem/observation-category",
                "code": "laboratory"
              }
            ]
          }
        ],
        "code": {
          "coding": [
            {
              "code": "5799-2",
              "system": "http://loinc.org",
              "display": "Leukocyte esterase [Presence] in Urine by Test strip"
            }
          ],
          "text": "Leukocyte esterase [Presence] in Urine by Test strip"
        },
        "text": {
          "status": "generated",
          "div": "<div xmlns=\"http://www.w3.org/1999/xhtml\"><table class=\"hl7__eu__lab__report\"><tr><th>Test</th><th>02-Dec-2016</th><th>Reference&#xA0;Range</th><th>Unit</th></tr><tr><td>Leukocyte esterase [Presence] in Urine by Test strip</td></tr></table></div>"
        },
        "status": "final",
        "subject": {
          "reference": "urn:uuid:72082f17-427f-469d-9951-af7a78512de6",
          "display": "Victor Lagarde"
        },
        "effectiveDateTime": "2016-12-02T04:48:18Z",
        "specimen": {
          "reference": "urn:uuid:3820790a-a2b9-4f49-9e8c-997e9210effe"
        }
      }
    },
    {
      "fullUrl": "urn:uuid:3ad67b13-cc17-45e3-88e9-fe3bfaf152c9",
      "resource": {
        "resourceType": "Observation",
        "id": "3ad67b13-cc17-45e3-88e9-fe3bfaf152c9",
        "meta": {
          "profile": [
            "http://hl7.eu/fhir/laboratory/StructureDefinition/Observation-resultslab-eu-lab"
          ]
        },
        "performer": [
          {
            "display": "The Central European Lab"
          }
        ],
        "category": [
          {
            "coding": [
              {
                "system": "http://terminology.hl7.org/CodeSystem/observation-category",
                "code": "laboratory"
              }
            ]
          }
        ],
        "code": {
          "coding": [
            {
              "code": "4548-4",
              "system": "http://loinc.org",
              "display": "Hemoglobin A1c/Hemoglobin.total in Blood"
            }
          ],
          "text": "Hemoglobin A1c/Hemoglobin.total in Blood"
        },
        "valueQuantity": {
          "system": "http://unitsofmeasure.org",
          "value": 2.9,
          "unit": "%",
          "code": "%"
        },
        "referenceRange": [
          {
            "low": {
              "value": 4.3,
              "code": "%",
              "system": "http://unitsofmeasure.org"
            }
          },
          {
            "high": {
              "value": 6,
              "code": "%",
              "system": "http://unitsofmeasure.org"
            }
          }
        ],
        "interpretation": [
          {
            "coding": [
              {
                "code": "L",
                "system": "http://terminology.hl7.org/CodeSystem/v3-ObservationInterpretation",
                "display": "Low"
              }
            ]
          }
        ],
        "text": {
          "status": "generated",
          "div": "<div xmlns=\"http://www.w3.org/1999/xhtml\"><table class=\"hl7__eu__lab__report\"><tr><th>Test</th><th>02-Dec-2016</th><th>Reference&#xA0;Range</th><th>Unit</th></tr><tr><td>Hemoglobin A1c/Hemoglobin.total in Blood</td><td>2.9</td><td>4.3 - 6</td><td>L</td><td>%</td></tr></table></div>"
        },
        "status": "final",
        "subject": {
          "reference": "urn:uuid:72082f17-427f-469d-9951-af7a78512de6",
          "display": "Victor Lagarde"
        },
        "effectiveDateTime": "2016-12-02T04:48:18Z",
        "specimen": {
          "reference": "urn:uuid:bb5f2bf6-a024-48b5-afd6-f0b2df391589"
        }
      }
    },
    {
      "fullUrl": "urn:uuid:be826e6e-e1bb-48cd-9c20-e3c6a24d5db4",
      "resource": {
        "resourceType": "Observation",
        "id": "be826e6e-e1bb-48cd-9c20-e3c6a24d5db4",
        "meta": {
          "profile": [
            "http://hl7.eu/fhir/laboratory/StructureDefinition/Observation-resultslab-eu-lab"
          ]
        },
        "performer": [
          {
            "display": "The Central European Lab"
          }
        ],
        "category": [
          {
            "coding": [
              {
                "system": "http://terminology.hl7.org/CodeSystem/observation-category",
                "code": "laboratory"
              }
            ]
          }
        ],
        "code": {
          "coding": [
            {
              "code": "2339-0",
              "system": "http://loinc.org",
              "display": "Glucose [Mass/volume] in Blood"
            }
          ],
          "text": "Glucose [Mass/volume] in Blood"
        },
        "valueQuantity": {
          "system": "http://unitsofmeasure.org",
          "value": 76.2,
          "unit": "mg/dL",
          "code": "mg/dL"
        },
        "referenceRange": [
          {
            "low": {
              "value": 70,
              "code": "mg/dL",
              "system": "http://unitsofmeasure.org"
            }
          },
          {
            "high": {
              "value": 140,
              "code": "mg/dL",
              "system": "http://unitsofmeasure.org"
            }
          }
        ],
        "text": {
          "status": "generated",
          "div": "<div xmlns=\"http://www.w3.org/1999/xhtml\"><table class=\"hl7__eu__lab__report\"><tr><th>Test</th><th>02-Dec-2016</th><th>Reference&#xA0;Range</th><th>Unit</th></tr><tr><td>Glucose [Mass/volume] in Blood</td><td>76.2</td><td>70 - 140</td><td></td><td>mg/dL</td></tr></table></div>"
        },
        "status": "final",
        "subject": {
          "reference": "urn:uuid:72082f17-427f-469d-9951-af7a78512de6",
          "display": "Victor Lagarde"
        },
        "effectiveDateTime": "2016-12-02T04:48:18Z",
        "specimen": {
          "reference": "urn:uuid:bb5f2bf6-a024-48b5-afd6-f0b2df391589"
        }
      }
    },
    {
      "fullUrl": "urn:uuid:cd2cb96d-55f6-4d03-abe6-16ce7efa5015",
      "resource": {
        "resourceType": "Observation",
        "id": "cd2cb96d-55f6-4d03-abe6-16ce7efa5015",
        "meta": {
          "profile": [
            "http://hl7.eu/fhir/laboratory/StructureDefinition/Observation-resultslab-eu-lab"
          ]
        },
        "performer": [
          {
            "display": "The Central European Lab"
          }
        ],
        "category": [
          {
            "coding": [
              {
                "system": "http://terminology.hl7.org/CodeSystem/observation-category",
                "code": "laboratory"
              }
            ]
          }
        ],
        "code": {
          "coding": [
            {
              "code": "6299-2",
              "system": "http://loinc.org",
              "display": "Urea nitrogen [Mass/volume] in Blood"
            }
          ],
          "text": "Urea nitrogen [Mass/volume] in Blood"
        },
        "valueQuantity": {
          "system": "http://unitsofmeasure.org",
          "value": 17.2,
          "unit": "mg/dL",
          "code": "mg/dL"
        },
        "referenceRange": [
          {
            "low": {
              "value": 7,
              "code": "mg/dL",
              "system": "http://unitsofmeasure.org"
            }
          },
          {
            "high": {
              "value": 20,
              "code": "mg/dL",
              "system": "http://unitsofmeasure.org"
            }
          }
        ],
        "text": {
          "status": "generated",
          "div": "<div xmlns=\"http://www.w3.org/1999/xhtml\"><table class=\"hl7__eu__lab__report\"><tr><th>Test</th><th>02-Dec-2016</th><th>Reference&#xA0;Range</th><th>Unit</th></tr><tr><td>Urea nitrogen [Mass/volume] in Blood</td><td>17.2</td><td>7 - 20</td><td></td><td>mg/dL</td></tr></table></div>"
        },
        "status": "final",
        "subject": {
          "reference": "urn:uuid:72082f17-427f-469d-9951-af7a78512de6",
          "display": "Victor Lagarde"
        },
        "effectiveDateTime": "2016-12-02T04:48:18Z",
        "specimen": {
          "reference": "urn:uuid:bb5f2bf6-a024-48b5-afd6-f0b2df391589"
        }
      }
    },
    {
      "fullUrl": "urn:uuid:ab5b0ea9-a936-458d-a882-3ca96e5d8148",
      "resource": {
        "resourceType": "Observation",
        "id": "ab5b0ea9-a936-458d-a882-3ca96e5d8148",
        "meta": {
          "profile": [
            "http://hl7.eu/fhir/laboratory/StructureDefinition/Observation-resultslab-eu-lab"
          ]
        },
        "performer": [
          {
            "display": "The Central European Lab"
          }
        ],
        "category": [
          {
            "coding": [
              {
                "system": "http://terminology.hl7.org/CodeSystem/observation-category",
                "code": "laboratory"
              }
            ]
          }
        ],
        "code": {
          "coding": [
            {
              "code": "38483-4",
              "system": "http://loinc.org",
              "display": "Creatinine [Mass/volume] in Blood"
            }
          ],
          "text": "Creatinine [Mass/volume] in Blood"
        },
        "valueQuantity": {
          "system": "http://unitsofmeasure.org",
          "value": 1.4,
          "unit": "mg/dL",
          "code": "mg/dL"
        },
        "referenceRange": [
          {
            "low": {
              "value": 0.9,
              "code": "mg/dL",
              "system": "http://unitsofmeasure.org"
            }
          },
          {
            "high": {
              "value": 1.3,
              "code": "mg/dL",
              "system": "http://unitsofmeasure.org"
            }
          }
        ],
        "interpretation": [
          {
            "coding": [
              {
                "code": "H",
                "system": "http://terminology.hl7.org/CodeSystem/v3-ObservationInterpretation",
                "display": "High"
              }
            ]
          }
        ],
        "text": {
          "status": "generated",
          "div": "<div xmlns=\"http://www.w3.org/1999/xhtml\"><table class=\"hl7__eu__lab__report\"><tr><th>Test</th><th>02-Dec-2016</th><th>Reference&#xA0;Range</th><th>Unit</th></tr><tr><td>Creatinine [Mass/volume] in Blood</td><td>1.4</td><td>0.9 - 1.3</td><td>H</td><td>mg/dL</td></tr></table></div>"
        },
        "status": "final",
        "subject": {
          "reference": "urn:uuid:72082f17-427f-469d-9951-af7a78512de6",
          "display": "Victor Lagarde"
        },
        "effectiveDateTime": "2016-12-02T04:48:18Z",
        "specimen": {
          "reference": "urn:uuid:bb5f2bf6-a024-48b5-afd6-f0b2df391589"
        }
      }
    },
    {
      "fullUrl": "urn:uuid:e872a2fe-e599-4634-97e1-602ca8e2609e",
      "resource": {
        "resourceType": "Observation",
        "id": "e872a2fe-e599-4634-97e1-602ca8e2609e",
        "meta": {
          "profile": [
            "http://hl7.eu/fhir/laboratory/StructureDefinition/Observation-resultslab-eu-lab"
          ]
        },
        "performer": [
          {
            "display": "The Central European Lab"
          }
        ],
        "category": [
          {
            "coding": [
              {
                "system": "http://terminology.hl7.org/CodeSystem/observation-category",
                "code": "laboratory"
              }
            ]
          }
        ],
        "code": {
          "coding": [
            {
              "code": "49765-1",
              "system": "http://loinc.org",
              "display": "Calcium [Mass/volume] in Blood"
            }
          ],
          "text": "Calcium [Mass/volume] in Blood"
        },
        "valueQuantity": {
          "system": "http://unitsofmeasure.org",
          "value": 10.1,
          "unit": "mg/dL",
          "code": "mg/dL"
        },
        "referenceRange": [
          {
            "low": {
              "value": 8.5,
              "code": "mg/dL",
              "system": "http://unitsofmeasure.org"
            }
          },
          {
            "high": {
              "value": 10.5,
              "code": "mg/dL",
              "system": "http://unitsofmeasure.org"
            }
          }
        ],
        "text": {
          "status": "generated",
          "div": "<div xmlns=\"http://www.w3.org/1999/xhtml\"><table class=\"hl7__eu__lab__report\"><tr><th>Test</th><th>02-Dec-2016</th><th>Reference&#xA0;Range</th><th>Unit</th></tr><tr><td>Calcium [Mass/volume] in Blood</td><td>10.1</td><td>8.5 - 10.5</td><td></td><td>mg/dL</td></tr></table></div>"
        },
        "status": "final",
        "subject": {
          "reference": "urn:uuid:72082f17-427f-469d-9951-af7a78512de6",
          "display": "Victor Lagarde"
        },
        "effectiveDateTime": "2016-12-02T04:48:18Z",
        "specimen": {
          "reference": "urn:uuid:bb5f2bf6-a024-48b5-afd6-f0b2df391589"
        }
      }
    },
    {
      "fullUrl": "urn:uuid:8e04df60-1d7e-4fad-8811-2f9bc32eb359",
      "resource": {
        "resourceType": "Observation",
        "id": "8e04df60-1d7e-4fad-8811-2f9bc32eb359",
        "meta": {
          "profile": [
            "http://hl7.eu/fhir/laboratory/StructureDefinition/Observation-resultslab-eu-lab"
          ]
        },
        "performer": [
          {
            "display": "The Central European Lab"
          }
        ],
        "category": [
          {
            "coding": [
              {
                "system": "http://terminology.hl7.org/CodeSystem/observation-category",
                "code": "laboratory"
              }
            ]
          }
        ],
        "code": {
          "coding": [
            {
              "code": "2947-0",
              "system": "http://loinc.org",
              "display": "Sodium [Moles/volume] in Blood"
            }
          ],
          "text": "Sodium [Moles/volume] in Blood"
        },
        "valueQuantity": {
          "system": "http://unitsofmeasure.org",
          "value": 138.5,
          "unit": "mmol/L",
          "code": "mmol/L"
        },
        "referenceRange": [
          {
            "low": {
              "value": 135,
              "code": "mmol/L",
              "system": "http://unitsofmeasure.org"
            }
          },
          {
            "high": {
              "value": 145,
              "code": "mmol/L",
              "system": "http://unitsofmeasure.org"
            }
          }
        ],
        "text": {
          "status": "generated",
          "div": "<div xmlns=\"http://www.w3.org/1999/xhtml\"><table class=\"hl7__eu__lab__report\"><tr><th>Test</th><th>02-Dec-2016</th><th>Reference&#xA0;Range</th><th>Unit</th></tr><tr><td>Sodium [Moles/volume] in Blood</td><td>138.5</td><td>135 - 145</td><td></td><td>mmol/L</td></tr></table></div>"
        },
        "status": "final",
        "subject": {
          "reference": "urn:uuid:72082f17-427f-469d-9951-af7a78512de6",
          "display": "Victor Lagarde"
        },
        "effectiveDateTime": "2016-12-02T04:48:18Z",
        "specimen": {
          "reference": "urn:uuid:bb5f2bf6-a024-48b5-afd6-f0b2df391589"
        }
      }
    },
    {
      "fullUrl": "urn:uuid:f85060c2-2389-4f1b-9a9b-f145ba741f08",
      "resource": {
        "resourceType": "Observation",
        "id": "f85060c2-2389-4f1b-9a9b-f145ba741f08",
        "meta": {
          "profile": [
            "http://hl7.eu/fhir/laboratory/StructureDefinition/Observation-resultslab-eu-lab"
          ]
        },
        "performer": [
          {
            "display": "The Central European Lab"
          }
        ],
        "category": [
          {
            "coding": [
              {
                "system": "http://terminology.hl7.org/CodeSystem/observation-category",
                "code": "laboratory"
              }
            ]
          }
        ],
        "code": {
          "coding": [
            {
              "code": "6298-4",
              "system": "http://loinc.org",
              "display": "Potassium [Moles/volume] in Blood"
            }
          ],
          "text": "Potassium [Moles/volume] in Blood"
        },
        "valueQuantity": {
          "system": "http://unitsofmeasure.org",
          "value": 3.9,
          "unit": "mmol/L",
          "code": "mmol/L"
        },
        "referenceRange": [
          {
            "low": {
              "value": 3.5,
              "code": "mmol/L",
              "system": "http://unitsofmeasure.org"
            }
          },
          {
            "high": {
              "value": 5.1,
              "code": "mmol/L",
              "system": "http://unitsofmeasure.org"
            }
          }
        ],
        "text": {
          "status": "generated",
          "div": "<div xmlns=\"http://www.w3.org/1999/xhtml\"><table class=\"hl7__eu__lab__report\"><tr><th>Test</th><th>02-Dec-2016</th><th>Reference&#xA0;Range</th><th>Unit</th></tr><tr><td>Potassium [Moles/volume] in Blood</td><td>3.9</td><td>3.5 - 5.1</td><td></td><td>mmol/L</td></tr></table></div>"
        },
        "status": "final",
        "subject": {
          "reference": "urn:uuid:72082f17-427f-469d-9951-af7a78512de6",
          "display": "Victor Lagarde"
        },
        "effectiveDateTime": "2016-12-02T04:48:18Z",
        "specimen": {
          "reference": "urn:uuid:bb5f2bf6-a024-48b5-afd6-f0b2df391589"
        }
      }
    },
    {
      "fullUrl": "urn:uuid:d0149b29-9e1e-400d-9d11-ca3ce912a7cf",
      "resource": {
        "resourceType": "Observation",
        "id": "d0149b29-9e1e-400d-9d11-ca3ce912a7cf",
        "meta": {
          "profile": [
            "http://hl7.eu/fhir/laboratory/StructureDefinition/Observation-resultslab-eu-lab"
          ]
        },
        "performer": [
          {
            "display": "The Central European Lab"
          }
        ],
        "category": [
          {
            "coding": [
              {
                "system": "http://terminology.hl7.org/CodeSystem/observation-category",
                "code": "laboratory"
              }
            ]
          }
        ],
        "code": {
          "coding": [
            {
              "code": "2069-3",
              "system": "http://loinc.org",
              "display": "Chloride [Moles/volume] in Blood"
            }
          ],
          "text": "Chloride [Moles/volume] in Blood"
        },
        "valueQuantity": {
          "system": "http://unitsofmeasure.org",
          "value": 107.6,
          "unit": "mmol/L",
          "code": "mmol/L"
        },
        "referenceRange": [
          {
            "low": {
              "value": 98,
              "code": "mmol/L",
              "system": "http://unitsofmeasure.org"
            }
          },
          {
            "high": {
              "value": 108,
              "code": "mmol/L",
              "system": "http://unitsofmeasure.org"
            }
          }
        ],
        "text": {
          "status": "generated",
          "div": "<div xmlns=\"http://www.w3.org/1999/xhtml\"><table class=\"hl7__eu__lab__report\"><tr><th>Test</th><th>02-Dec-2016</th><th>Reference&#xA0;Range</th><th>Unit</th></tr><tr><td>Chloride [Moles/volume] in Blood</td><td>107.6</td><td>98 - 108</td><td></td><td>mmol/L</td></tr></table></div>"
        },
        "status": "final",
        "subject": {
          "reference": "urn:uuid:72082f17-427f-469d-9951-af7a78512de6",
          "display": "Victor Lagarde"
        },
        "effectiveDateTime": "2016-12-02T04:48:18Z",
        "specimen": {
          "reference": "urn:uuid:bb5f2bf6-a024-48b5-afd6-f0b2df391589"
        }
      }
    },
    {
      "fullUrl": "urn:uuid:2902f4b5-d335-4a0f-b684-bfe38f9bbf38",
      "resource": {
        "resourceType": "Observation",
        "id": "2902f4b5-d335-4a0f-b684-bfe38f9bbf38",
        "meta": {
          "profile": [
            "http://hl7.eu/fhir/laboratory/StructureDefinition/Observation-resultslab-eu-lab"
          ]
        },
        "performer": [
          {
            "display": "The Central European Lab"
          }
        ],
        "category": [
          {
            "coding": [
              {
                "system": "http://terminology.hl7.org/CodeSystem/observation-category",
                "code": "laboratory"
              }
            ]
          }
        ],
        "code": {
          "coding": [
            {
              "code": "20565-8",
              "system": "http://loinc.org",
              "display": "Carbon dioxide, total [Moles/volume] in Blood"
            }
          ],
          "text": "Carbon dioxide, total [Moles/volume] in Blood"
        },
        "valueQuantity": {
          "system": "http://unitsofmeasure.org",
          "value": 23.5,
          "unit": "mmol/L",
          "code": "mmol/L"
        },
        "referenceRange": [
          {
            "low": {
              "value": 22,
              "code": "mmol/L",
              "system": "http://unitsofmeasure.org"
            }
          },
          {
            "high": {
              "value": 29,
              "code": "mmol/L",
              "system": "http://unitsofmeasure.org"
            }
          }
        ],
        "text": {
          "status": "generated",
          "div": "<div xmlns=\"http://www.w3.org/1999/xhtml\"><table class=\"hl7__eu__lab__report\"><tr><th>Test</th><th>02-Dec-2016</th><th>Reference&#xA0;Range</th><th>Unit</th></tr><tr><td>Carbon dioxide, total [Moles/volume] in Blood</td><td>23.5</td><td>22 - 29</td><td></td><td>mmol/L</td></tr></table></div>"
        },
        "status": "final",
        "subject": {
          "reference": "urn:uuid:72082f17-427f-469d-9951-af7a78512de6",
          "display": "Victor Lagarde"
        },
        "effectiveDateTime": "2016-12-02T04:48:18Z",
        "specimen": {
          "reference": "urn:uuid:bb5f2bf6-a024-48b5-afd6-f0b2df391589"
        }
      }
    },
    {
      "fullUrl": "urn:uuid:f5d0d0ad-166b-4c1d-a003-e7a6ad4d7308",
      "resource": {
        "resourceType": "Device",
        "id": "f5d0d0ad-166b-4c1d-a003-e7a6ad4d7308",
        "deviceName": [
          {
            "name": "SYNDERAI Synthetic Generator",
            "type": "manufacturer-name"
          }
        ],
        "version": [
          {
            "value": "5.0"
          }
        ],
        "text": {
          "status": "generated",
          "div": "<div xmlns=\"http://www.w3.org/1999/xhtml\">SYNDERAI Synthetic Generator v5.0</div>"
        },
        "status": "active\"",
        "distinctIdentifier": "synderai-generator-50",
        "manufacturer": "SYNDERAI Project"
      }
    },
    {
      "fullUrl": "urn:uuid:f377a318-73c7-40e9-8b9a-7b9877ca5eed",
      "resource": {
        "resourceType": "Provenance",
        "id": "f377a318-73c7-40e9-8b9a-7b9877ca5eed",
        "target": [
          {
            "reference": "Patient/72082f17-427f-469d-9951-af7a78512de6"
          },
          {
            "reference": "Bundle/37cebd30-69c3-4705-8cd0-2803df226219"
          },
          {
            "reference": "Composition/b31d3afe-364d-446e-a3e7-20dbe63c46ec"
          },
          {
            "reference": "PractitionerRole/17410945-56df-4776-96f8-b53d959d1629"
          },
          {
            "reference": "Practitioner/0238615b-0b75-44c2-b1ce-68872a7fa065"
          },
          {
            "reference": "PractitionerRole/4a4c3cca-af0c-4262-b289-f008e268639c"
          },
          {
            "reference": "Organization/407e76db-979e-4fd5-aeb5-b3a11273cf88"
          }
        ],
        "activity": {
          "text": "Synthetic Example Data Generation"
        },
        "policy": [
          "https://synderai.net/synderai-synthetic-data-policy"
        ],
        "agent": [
          {
            "type": {
              "text": "author"
            },
            "who": {
              "reference": "Device/f5d0d0ad-166b-4c1d-a003-e7a6ad4d7308"
            }
          }
        ],
        "reason": [
          {
            "text": "Interoperability Testing and Training (non-clinical use)"
          }
        ],
        "text": {
          "status": "generated",
          "div": "<div xmlns=\"http://www.w3.org/1999/xhtml\">Provenance for SYNDERAI Synthetic Example Data Resource</div>"
        },
        "recorded": "2016-12-02T05:48:18Z"
      }
    },
    {
      "fullUrl": "urn:uuid:17410945-56df-4776-96f8-b53d959d1629",
      "resource": {
        "resourceType": "PractitionerRole",
        "id": "17410945-56df-4776-96f8-b53d959d1629",
        "meta": {
          "profile": [
            "http://hl7.eu/fhir/base/StructureDefinition/practitionerRole-eu"
          ]
        },
        "text": {
          "status": "generated",
          "div": "<div xmlns=\"http://www.w3.org/1999/xhtml\">Laboratory Role Id: 17410945-56df-4776-96f8-b53d959d1629</div>"
        },
        "practitioner": {
          "reference": "urn:uuid:0238615b-0b75-44c2-b1ce-68872a7fa065"
        }
      }
    },
    {
      "fullUrl": "urn:uuid:0238615b-0b75-44c2-b1ce-68872a7fa065",
      "resource": {
        "resourceType": "Practitioner",
        "id": "0238615b-0b75-44c2-b1ce-68872a7fa065",
        "meta": {
          "profile": [
            "http://hl7.eu/fhir/base/StructureDefinition/practitioner-eu"
          ]
        },
        "identifier": [
          {
            "assigner": {
              "display": "HL7 Europe"
            },
            "system": "urn:oid:2.16.840.1.113883.2.51.999",
            "value": "94c90cf4-aa4e-4b20-9fc4-ba1c466ccd1c"
          }
        ],
        "name": [
          {
            "prefix": [
              "dr"
            ],
            "given": [
              "Ex"
            ],
            "family": "Ample"
          }
        ],
        "address": [
          {
            "line": [
              "Laboratoire Central Europenne",
              "Boulevard du Jardin Botanique 32"
            ],
            "postalCode": "1000",
            "city": "Brussels",
            "country": "Belgium"
          }
        ],
        "text": {
          "status": "generated",
          "div": "<div xmlns=\"http://www.w3.org/1999/xhtml\">Laboratory: Laboratoire Central Europenne, 1000 Brussels, Belgium</div>"
        }
      }
    }
  ],
  "type": "document",
  "timestamp": "2016-12-02T05:48:18Z"
}
