{
  "resourceType": "Bundle",
  "id": "35742d60-0507-4004-9a00-e749d742ffef",
  "meta": {
    "profile": [
      "http://hl7.eu/fhir/laboratory/StructureDefinition/Bundle-eu-lab"
    ]
  },
  "identifier": {
    "assigner": {
      "display": "HL7 Europe"
    },
    "system": "urn:oid:2.16.840.1.113883.2.51.999",
    "value": "a9188c3b-31e6-4669-bdf5-f77e4485608f"
  },
  "entry": [
    {
      "fullUrl": "urn:uuid:fd014bf2-8b21-4a7d-90fb-7d9533ec8e5d",
      "resource": {
        "resourceType": "Composition",
        "id": "fd014bf2-8b21-4a7d-90fb-7d9533ec8e5d",
        "meta": {
          "profile": [
            "http://hl7.eu/fhir/laboratory/StructureDefinition/Composition-eu-lab"
          ]
        },
        "identifier": {
          "assigner": {
            "display": "HL7 Europe"
          },
          "system": "urn:oid:2.16.840.1.113883.2.51.999",
          "value": "8d21f42e-7aba-474c-a151-860df4966028"
        },
        "author": [
          {
            "reference": "urn:uuid:a3ddf38c-5fd6-4d7f-9940-36d506c9e004"
          }
        ],
        "category": [
          {
            "coding": [
              {
                "code": "26436-6",
                "system": "http://loinc.org",
                "display": "Laboratory studies (set)"
              }
            ]
          }
        ],
        "type": {
          "coding": [
            {
              "code": "11502-2",
              "system": "http://loinc.org",
              "display": "Laboratory report"
            }
          ],
          "text": "Laboratory Report"
        },
        "section": [
          {
            "code": {
              "coding": [
                {
                  "code": "26436-6",
                  "system": "http://loinc.org",
                  "display": "Laboratory studies (set)"
                }
              ],
              "text": "Laboratory studies"
            },
            "section": [
              {
                "code": {
                  "coding": [
                    {
                      "code": "$18719-5",
                      "system": "http://loinc.org",
                      "display": "Chemistry studies (set)"
                    }
                  ],
                  "text": "Chemistry"
                },
                "entry": [
                  {
                    "reference": "urn:uuid:fdddae8c-2234-4eab-8510-b590be2b0797"
                  },
                  {
                    "reference": "urn:uuid:223117ca-3b65-4c3d-841a-d67f9a1961b6"
                  },
                  {
                    "reference": "urn:uuid:d7845bb3-b4ae-4821-98c3-cc8a6c3d4961"
                  },
                  {
                    "reference": "urn:uuid:67b5cfb8-ae03-41c7-bd85-c42c7c7b5b69"
                  }
                ],
                "text": {
                  "status": "generated",
                  "div": "<div xmlns=\"http://www.w3.org/1999/xhtml\"><h3>Chemistry</h3><table class=\"hl7__eu__lab__report\"><thead><tr><th>Test</th><th>01-JAN-2023</th><th>Reference&#xA0;Range</th><th>Unit</th></tr></thead><tbody><tr><td>Cholesterol [Mass/volume] in Serum or Plasma</td><td>117.6</td><td>0 - 200</td><td>mg/dL</td></tr><tr><td>Triglyceride [Mass/volume] in Serum or Plasma</td><td>117.0</td><td>0 - 199</td><td>mg/dL</td></tr><tr><td>Cholesterol in LDL [Mass/volume] in Serum or Plasma by Direct assay</td><td>36.3</td><td>0 - 130</td><td>mg/dL</td></tr><tr><td>Cholesterol in HDL [Mass/volume] in Serum or Plasma</td><td>57.8</td><td>40 - 100</td><td>mg/dL</td></tr></tbody></table></div>"
                },
                "title": "Chemistry"
              }
            ],
            "title": "Laboratory Report"
          },
          {
            "text": {
              "status": "generated",
              "div": "<div xmlns=\"http://www.w3.org/1999/xhtml\"><h3>Annotation</h3><table class=\"hl7__eu__lab__report\"><tr><th>Conclusion and Recommendations based on this report and previous findings known to us</th></tr><tr><td>All lipid parameters (total cholesterol, triglycerides, LDL, and HDL) are within normal limits. No laboratory evidence of dyslipidemia at this time. Continue routine monitoring as clinically indicated.</td></tr></table></div>"
            },
            "code": {
              "coding": [
                {
                  "system": "http://loinc.org",
                  "code": "48767-8",
                  "display": "Annotation comment"
                }
              ]
            },
            "title": "Annotation comment"
          }
        ],
        "status": "final",
        "subject": {
          "reference": "urn:uuid:41282036-4585-48ae-a6d9-a2a70715f9cc",
          "display": "Gastone Farnese"
        },
        "date": "2023-01-01T00:10:08Z",
        "title": "Laboratory Report",
        "confidentiality": "N"
      }
    },
    {
      "fullUrl": "urn:uuid:6dcb3e9b-ecc7-48eb-a6fa-995790062904",
      "resource": {
        "resourceType": "DiagnosticReport",
        "id": "6dcb3e9b-ecc7-48eb-a6fa-995790062904",
        "meta": {
          "profile": [
            "http://hl7.eu/fhir/laboratory/StructureDefinition/DiagnosticReport-eu-lab"
          ]
        },
        "identifier": [
          {
            "assigner": {
              "display": "HL7 Europe"
            },
            "system": "urn:oid:2.16.840.1.113883.2.51.999",
            "value": "20dbbe68-2a43-48d5-a729-f95d12b4ff7b"
          }
        ],
        "extension": [
          {
            "url": "http://hl7.org/fhir/5.0/StructureDefinition/extension-DiagnosticReport.composition",
            "valueReference": {
              "reference": "urn:uuid:8d21f42e-7aba-474c-a151-860df4966028"
            }
          }
        ],
        "category": [
          {
            "coding": [
              {
                "code": "26436-6",
                "system": "http://loinc.org",
                "display": "Laboratory studies (set)"
              }
            ]
          }
        ],
        "specimen": [
          {
            "reference": "urn:uuid:cb41235f-4d0e-4b61-90a6-f5c9ea556fc3"
          }
        ],
        "result": [
          {
            "reference": "urn:uuid:fdddae8c-2234-4eab-8510-b590be2b0797"
          },
          {
            "reference": "urn:uuid:223117ca-3b65-4c3d-841a-d67f9a1961b6"
          },
          {
            "reference": "urn:uuid:d7845bb3-b4ae-4821-98c3-cc8a6c3d4961"
          },
          {
            "reference": "urn:uuid:67b5cfb8-ae03-41c7-bd85-c42c7c7b5b69"
          }
        ],
        "status": "registered",
        "code": {
          "coding": [
            {
              "code": "11502-2",
              "system": "http://loinc.org",
              "display": "Laboratory report"
            }
          ]
        },
        "subject": {
          "reference": "urn:uuid:41282036-4585-48ae-a6d9-a2a70715f9cc",
          "display": "Gastone Farnese"
        }
      }
    },
    {
      "fullUrl": "urn:uuid:41282036-4585-48ae-a6d9-a2a70715f9cc",
      "resource": {
        "resourceType": "Patient",
        "id": "41282036-4585-48ae-a6d9-a2a70715f9cc",
        "meta": {
          "security": [
            {
              "system": "http://terminology.hl7.org/CodeSystem/v3-ActReason",
              "code": "HTEST"
            },
            {
              "system": "http://terminology.hl7.org/CodeSystem/v3-ActReason",
              "code": "TRAIN"
            }
          ],
          "tag": [
            {
              "system": "https://synderai.net/fhir/CodeSystem/tags",
              "code": "synthetic",
              "display": "SYNDERAI Synthetic data"
            }
          ],
          "profile": [
            "http://hl7.eu/fhir/base/StructureDefinition/patient-eu-core"
          ]
        },
        "identifier": [
          {
            "type": {
              "coding": [
                {
                  "code": "PT",
                  "system": "http://terminology.hl7.org/CodeSystem/v2-0203"
                }
              ]
            },
            "system": "http://ec.europa.eu/identifier/eci",
            "value": "9783-008691-0"
          },
          {
            "type": {
              "coding": [
                {
                  "code": "MR",
                  "system": "http://terminology.hl7.org/CodeSystem/v2-0203"
                }
              ]
            },
            "system": "http://local.setting.eu/identifier",
            "value": "3a83b0c2-9162-b4ed-57ec-07c0d12b05d8"
          }
        ],
        "name": [
          {
            "family": "Farnese"
          },
          {
            "given": [
              "Gastone"
            ]
          },
          {
            "text": "Gastone Farnese"
          }
        ],
        "address": [
          {
            "line": [
              "Rotonda Verdone, 9 Appartamento 6"
            ],
            "use": "home",
            "type": "physical",
            "postalCode": "35030",
            "city": "Galzignano Terme",
            "country": "Italy"
          }
        ],
        "telecom": [
          {
            "system": "phone",
            "value": "+39 350079040"
          }
        ],
        "extension": [
          {
            "url": "http://hl7.org/fhir/StructureDefinition/patient-nationality",
            "valueCodeableConcept": {
              "coding": [
                {
                  "code": "IT",
                  "system": "http://hl7.org/fhir/ValueSet/country"
                }
              ]
            }
          }
        ],
        "text": {
          "status": "generated",
          "div": "<div xmlns=\"http://www.w3.org/1999/xhtml\"><table class=\"hl7__ips\"><tr><td>Gastone Farnese</td><td>male</td><td>16-Apr-1939</td></tr></table></div>"
        },
        "gender": "male",
        "birthDate": "1939-04-16"
      }
    },
    {
      "fullUrl": "urn:uuid:35d72bbc-b24e-475f-ba39-c6d1a7994862",
      "resource": {
        "resourceType": "ServiceRequest",
        "id": "35d72bbc-b24e-475f-ba39-c6d1a7994862",
        "meta": {
          "profile": [
            "http://hl7.eu/fhir/laboratory/StructureDefinition/ServiceRequest-eu-lab"
          ]
        },
        "identifier": [
          {
            "system": "http://example.org",
            "value": "b2a64d65-79dc-4974-8fad-32c40808e4e0"
          }
        ],
        "specimen": [
          {
            "reference": "urn:uuid:cb41235f-4d0e-4b61-90a6-f5c9ea556fc3"
          }
        ],
        "reasonCode": [
          {
            "coding": [
              {
                "code": "414545008",
                "system": "http://snomed.info/sct",
                "display": "Ischemic heart disease"
              }
            ]
          }
        ],
        "status": "active",
        "intent": "order",
        "code": {
          "coding": [
            {
              "code": "108252007",
              "system": "http://snomed.info/sct",
              "display": "Laboratory procedure"
            }
          ]
        },
        "subject": {
          "reference": "urn:uuid:41282036-4585-48ae-a6d9-a2a70715f9cc",
          "display": "Gastone Farnese"
        },
        "requester": {
          "reference": "urn:uuid:ccd96e01-9af2-45a9-9f67-d35bbdf8042e"
        }
      }
    },
    {
      "fullUrl": "urn:uuid:ccd96e01-9af2-45a9-9f67-d35bbdf8042e",
      "resource": {
        "resourceType": "PractitionerRole",
        "id": "ccd96e01-9af2-45a9-9f67-d35bbdf8042e",
        "meta": {
          "profile": [
            "http://hl7.eu/fhir/base/StructureDefinition/practitionerRole-eu"
          ]
        },
        "text": {
          "status": "generated",
          "div": "<div xmlns=\"http://www.w3.org/1999/xhtml\">Provider Role Id: ccd96e01-9af2-45a9-9f67-d35bbdf8042e</div>"
        },
        "organization": {
          "reference": "urn:uuid:970b7119-9f69-4386-8b1f-fb32285ffc55"
        }
      }
    },
    {
      "fullUrl": "urn:uuid:970b7119-9f69-4386-8b1f-fb32285ffc55",
      "resource": {
        "resourceType": "Organization",
        "id": "970b7119-9f69-4386-8b1f-fb32285ffc55",
        "meta": {
          "profile": [
            "http://hl7.eu/fhir/base/StructureDefinition/organization-eu"
          ]
        },
        "identifier": [
          {
            "assigner": {
              "display": "HL7 Europe"
            },
            "system": "urn:oid:2.16.840.1.113883.2.51.999",
            "value": "0f889736-3430-4474-8283-1da53256b7fc"
          }
        ],
        "address": [
          {
            "line": [
              "Via Albere nan"
            ],
            "city": "Este",
            "postalCode": "35042",
            "country": "Italy"
          }
        ],
        "text": {
          "status": "generated",
          "div": "<div xmlns=\"http://www.w3.org/1999/xhtml\">Provider Organization: Ospedali Riuniti Padova Sud &quot;Madre Teresa di Calcutta&quot;</div>"
        },
        "name": "Ospedali Riuniti Padova Sud &quot;Madre Teresa di Calcutta&quot;"
      }
    },
    {
      "fullUrl": "urn:uuid:cb41235f-4d0e-4b61-90a6-f5c9ea556fc3",
      "resource": {
        "resourceType": "Specimen",
        "id": "cb41235f-4d0e-4b61-90a6-f5c9ea556fc3",
        "meta": {
          "profile": [
            "http://hl7.eu/fhir/laboratory/StructureDefinition/Specimen-eu-lab"
          ]
        },
        "collection": {
          "collectedDateTime": "2022-12-31"
        },
        "text": {
          "status": "generated",
          "div": "<div xmlns=\"http://www.w3.org/1999/xhtml\"><table class=\"hl7__eu__lab__report\"><tr><th>Specimen</th><th>Collection Date</th></tr><tr><td>Acellular blood (serum or plasma) specimen</td><td><span class=\"nb\">31-Dec-2022</span></td></tr></table></div>"
        },
        "type": {
          "coding": [
            {
              "code": "122592007",
              "system": "http://snomed.info/sct",
              "display": "Acellular blood (serum or plasma) specimen"
            }
          ]
        }
      }
    },
    {
      "fullUrl": "urn:uuid:fdddae8c-2234-4eab-8510-b590be2b0797",
      "resource": {
        "resourceType": "Observation",
        "id": "fdddae8c-2234-4eab-8510-b590be2b0797",
        "meta": {
          "profile": [
            "http://hl7.eu/fhir/laboratory/StructureDefinition/Observation-resultslab-eu-lab"
          ]
        },
        "performer": [
          {
            "display": "The Central European Lab"
          }
        ],
        "category": [
          {
            "coding": [
              {
                "system": "http://terminology.hl7.org/CodeSystem/observation-category",
                "code": "laboratory"
              }
            ]
          }
        ],
        "code": {
          "coding": [
            {
              "code": "2093-3",
              "system": "http://loinc.org",
              "display": "Cholesterol [Mass/volume] in Serum or Plasma"
            }
          ],
          "text": "Cholesterol [Mass/volume] in Serum or Plasma"
        },
        "valueQuantity": {
          "system": "http://unitsofmeasure.org",
          "value": 117.6,
          "unit": "mg/dL",
          "code": "mg/dL"
        },
        "referenceRange": [
          {
            "low": {
              "value": 0,
              "code": "mg/dL",
              "system": "http://unitsofmeasure.org"
            }
          },
          {
            "high": {
              "value": 200,
              "code": "mg/dL",
              "system": "http://unitsofmeasure.org"
            }
          }
        ],
        "text": {
          "status": "generated",
          "div": "<div xmlns=\"http://www.w3.org/1999/xhtml\"><table class=\"hl7__eu__lab__report\"><tr><th>Test</th><th>01-Jan-2023</th><th>Reference&#xA0;Range</th><th>Unit</th></tr><tr><td>Cholesterol [Mass/volume] in Serum or Plasma</td><td>117.6</td><td>0 - 200</td><td></td><td>mg/dL</td></tr></table></div>"
        },
        "status": "final",
        "subject": {
          "reference": "urn:uuid:41282036-4585-48ae-a6d9-a2a70715f9cc",
          "display": "Gastone Farnese"
        },
        "effectiveDateTime": "2022-12-31T23:10:08Z",
        "specimen": {
          "reference": "urn:uuid:cb41235f-4d0e-4b61-90a6-f5c9ea556fc3"
        }
      }
    },
    {
      "fullUrl": "urn:uuid:223117ca-3b65-4c3d-841a-d67f9a1961b6",
      "resource": {
        "resourceType": "Observation",
        "id": "223117ca-3b65-4c3d-841a-d67f9a1961b6",
        "meta": {
          "profile": [
            "http://hl7.eu/fhir/laboratory/StructureDefinition/Observation-resultslab-eu-lab"
          ]
        },
        "performer": [
          {
            "display": "The Central European Lab"
          }
        ],
        "category": [
          {
            "coding": [
              {
                "system": "http://terminology.hl7.org/CodeSystem/observation-category",
                "code": "laboratory"
              }
            ]
          }
        ],
        "code": {
          "coding": [
            {
              "code": "2571-8",
              "system": "http://loinc.org",
              "display": "Triglyceride [Mass/volume] in Serum or Plasma"
            }
          ],
          "text": "Triglyceride [Mass/volume] in Serum or Plasma"
        },
        "valueQuantity": {
          "system": "http://unitsofmeasure.org",
          "value": 117,
          "unit": "mg/dL",
          "code": "mg/dL"
        },
        "referenceRange": [
          {
            "low": {
              "value": 0,
              "code": "mg/dL",
              "system": "http://unitsofmeasure.org"
            }
          },
          {
            "high": {
              "value": 199,
              "code": "mg/dL",
              "system": "http://unitsofmeasure.org"
            }
          }
        ],
        "text": {
          "status": "generated",
          "div": "<div xmlns=\"http://www.w3.org/1999/xhtml\"><table class=\"hl7__eu__lab__report\"><tr><th>Test</th><th>01-Jan-2023</th><th>Reference&#xA0;Range</th><th>Unit</th></tr><tr><td>Triglyceride [Mass/volume] in Serum or Plasma</td><td>117.0</td><td>0 - 199</td><td></td><td>mg/dL</td></tr></table></div>"
        },
        "status": "final",
        "subject": {
          "reference": "urn:uuid:41282036-4585-48ae-a6d9-a2a70715f9cc",
          "display": "Gastone Farnese"
        },
        "effectiveDateTime": "2022-12-31T23:10:08Z",
        "specimen": {
          "reference": "urn:uuid:cb41235f-4d0e-4b61-90a6-f5c9ea556fc3"
        }
      }
    },
    {
      "fullUrl": "urn:uuid:d7845bb3-b4ae-4821-98c3-cc8a6c3d4961",
      "resource": {
        "resourceType": "Observation",
        "id": "d7845bb3-b4ae-4821-98c3-cc8a6c3d4961",
        "meta": {
          "profile": [
            "http://hl7.eu/fhir/laboratory/StructureDefinition/Observation-resultslab-eu-lab"
          ]
        },
        "performer": [
          {
            "display": "The Central European Lab"
          }
        ],
        "category": [
          {
            "coding": [
              {
                "system": "http://terminology.hl7.org/CodeSystem/observation-category",
                "code": "laboratory"
              }
            ]
          }
        ],
        "code": {
          "coding": [
            {
              "code": "18262-6",
              "system": "http://loinc.org",
              "display": "Cholesterol in LDL [Mass/volume] in Serum or Plasma by Direct assay"
            }
          ],
          "text": "Cholesterol in LDL [Mass/volume] in Serum or Plasma by Direct assay"
        },
        "valueQuantity": {
          "system": "http://unitsofmeasure.org",
          "value": 36.3,
          "unit": "mg/dL",
          "code": "mg/dL"
        },
        "referenceRange": [
          {
            "low": {
              "value": 0,
              "code": "mg/dL",
              "system": "http://unitsofmeasure.org"
            }
          },
          {
            "high": {
              "value": 130,
              "code": "mg/dL",
              "system": "http://unitsofmeasure.org"
            }
          }
        ],
        "text": {
          "status": "generated",
          "div": "<div xmlns=\"http://www.w3.org/1999/xhtml\"><table class=\"hl7__eu__lab__report\"><tr><th>Test</th><th>01-Jan-2023</th><th>Reference&#xA0;Range</th><th>Unit</th></tr><tr><td>Cholesterol in LDL [Mass/volume] in Serum or Plasma by Direct assay</td><td>36.3</td><td>0 - 130</td><td></td><td>mg/dL</td></tr></table></div>"
        },
        "status": "final",
        "subject": {
          "reference": "urn:uuid:41282036-4585-48ae-a6d9-a2a70715f9cc",
          "display": "Gastone Farnese"
        },
        "effectiveDateTime": "2022-12-31T23:10:08Z",
        "specimen": {
          "reference": "urn:uuid:cb41235f-4d0e-4b61-90a6-f5c9ea556fc3"
        }
      }
    },
    {
      "fullUrl": "urn:uuid:67b5cfb8-ae03-41c7-bd85-c42c7c7b5b69",
      "resource": {
        "resourceType": "Observation",
        "id": "67b5cfb8-ae03-41c7-bd85-c42c7c7b5b69",
        "meta": {
          "profile": [
            "http://hl7.eu/fhir/laboratory/StructureDefinition/Observation-resultslab-eu-lab"
          ]
        },
        "performer": [
          {
            "display": "The Central European Lab"
          }
        ],
        "category": [
          {
            "coding": [
              {
                "system": "http://terminology.hl7.org/CodeSystem/observation-category",
                "code": "laboratory"
              }
            ]
          }
        ],
        "code": {
          "coding": [
            {
              "code": "2085-9",
              "system": "http://loinc.org",
              "display": "Cholesterol in HDL [Mass/volume] in Serum or Plasma"
            }
          ],
          "text": "Cholesterol in HDL [Mass/volume] in Serum or Plasma"
        },
        "valueQuantity": {
          "system": "http://unitsofmeasure.org",
          "value": 57.8,
          "unit": "mg/dL",
          "code": "mg/dL"
        },
        "referenceRange": [
          {
            "low": {
              "value": 40,
              "code": "mg/dL",
              "system": "http://unitsofmeasure.org"
            }
          },
          {
            "high": {
              "value": 100,
              "code": "mg/dL",
              "system": "http://unitsofmeasure.org"
            }
          }
        ],
        "text": {
          "status": "generated",
          "div": "<div xmlns=\"http://www.w3.org/1999/xhtml\"><table class=\"hl7__eu__lab__report\"><tr><th>Test</th><th>01-Jan-2023</th><th>Reference&#xA0;Range</th><th>Unit</th></tr><tr><td>Cholesterol in HDL [Mass/volume] in Serum or Plasma</td><td>57.8</td><td>40 - 100</td><td></td><td>mg/dL</td></tr></table></div>"
        },
        "status": "final",
        "subject": {
          "reference": "urn:uuid:41282036-4585-48ae-a6d9-a2a70715f9cc",
          "display": "Gastone Farnese"
        },
        "effectiveDateTime": "2022-12-31T23:10:08Z",
        "specimen": {
          "reference": "urn:uuid:cb41235f-4d0e-4b61-90a6-f5c9ea556fc3"
        }
      }
    },
    {
      "fullUrl": "urn:uuid:43d34aec-e0eb-4d6c-9cde-1b82fd62431f",
      "resource": {
        "resourceType": "Device",
        "id": "43d34aec-e0eb-4d6c-9cde-1b82fd62431f",
        "deviceName": [
          {
            "name": "SYNDERAI Synthetic Generator",
            "type": "manufacturer-name"
          }
        ],
        "version": [
          {
            "value": "5.0"
          }
        ],
        "text": {
          "status": "generated",
          "div": "<div xmlns=\"http://www.w3.org/1999/xhtml\">SYNDERAI Synthetic Generator v5.0</div>"
        },
        "status": "active\"",
        "distinctIdentifier": "synderai-generator-50",
        "manufacturer": "SYNDERAI Project"
      }
    },
    {
      "fullUrl": "urn:uuid:a7bc1188-3ca1-4047-861c-0361faf2b493",
      "resource": {
        "resourceType": "Provenance",
        "id": "a7bc1188-3ca1-4047-861c-0361faf2b493",
        "target": [
          {
            "reference": "Patient/41282036-4585-48ae-a6d9-a2a70715f9cc"
          },
          {
            "reference": "Bundle/35742d60-0507-4004-9a00-e749d742ffef"
          },
          {
            "reference": "Composition/fd014bf2-8b21-4a7d-90fb-7d9533ec8e5d"
          },
          {
            "reference": "PractitionerRole/a3ddf38c-5fd6-4d7f-9940-36d506c9e004"
          },
          {
            "reference": "Practitioner/a5d20834-d739-4627-93d6-34d88b8249be"
          },
          {
            "reference": "PractitionerRole/ccd96e01-9af2-45a9-9f67-d35bbdf8042e"
          },
          {
            "reference": "Organization/970b7119-9f69-4386-8b1f-fb32285ffc55"
          }
        ],
        "activity": {
          "text": "Synthetic Example Data Generation"
        },
        "policy": [
          "https://synderai.net/synderai-synthetic-data-policy"
        ],
        "agent": [
          {
            "type": {
              "text": "author"
            },
            "who": {
              "reference": "Device/43d34aec-e0eb-4d6c-9cde-1b82fd62431f"
            }
          }
        ],
        "reason": [
          {
            "text": "Interoperability Testing and Training (non-clinical use)"
          }
        ],
        "text": {
          "status": "generated",
          "div": "<div xmlns=\"http://www.w3.org/1999/xhtml\">Provenance for SYNDERAI Synthetic Example Data Resource</div>"
        },
        "recorded": "2023-01-01T00:10:08Z"
      }
    },
    {
      "fullUrl": "urn:uuid:a3ddf38c-5fd6-4d7f-9940-36d506c9e004",
      "resource": {
        "resourceType": "PractitionerRole",
        "id": "a3ddf38c-5fd6-4d7f-9940-36d506c9e004",
        "meta": {
          "profile": [
            "http://hl7.eu/fhir/base/StructureDefinition/practitionerRole-eu"
          ]
        },
        "text": {
          "status": "generated",
          "div": "<div xmlns=\"http://www.w3.org/1999/xhtml\">Laboratory Role Id: a3ddf38c-5fd6-4d7f-9940-36d506c9e004</div>"
        },
        "practitioner": {
          "reference": "urn:uuid:a5d20834-d739-4627-93d6-34d88b8249be"
        }
      }
    },
    {
      "fullUrl": "urn:uuid:a5d20834-d739-4627-93d6-34d88b8249be",
      "resource": {
        "resourceType": "Practitioner",
        "id": "a5d20834-d739-4627-93d6-34d88b8249be",
        "meta": {
          "profile": [
            "http://hl7.eu/fhir/base/StructureDefinition/practitioner-eu"
          ]
        },
        "identifier": [
          {
            "assigner": {
              "display": "HL7 Europe"
            },
            "system": "urn:oid:2.16.840.1.113883.2.51.999",
            "value": "694495f9-c8d5-400f-b167-eefb0663d788"
          }
        ],
        "name": [
          {
            "prefix": [
              "dr"
            ],
            "given": [
              "Ex"
            ],
            "family": "Ample"
          }
        ],
        "address": [
          {
            "line": [
              "Laboratoire Central Européenne",
              "Boulevard du Jardin Botanique 32"
            ],
            "postalCode": "1000",
            "city": "Brussels",
            "country": "Belgium"
          }
        ],
        "text": {
          "status": "generated",
          "div": "<div xmlns=\"http://www.w3.org/1999/xhtml\">Laboratory: Laboratoire Central Européenne, 1000 Brussels, Belgium</div>"
        }
      }
    }
  ],
  "type": "document",
  "timestamp": "2023-01-01T00:10:08Z"
}
