{
  "resourceType": "Bundle",
  "id": "cf2bdffc-0615-4e2b-b9f0-bbb41017aec7",
  "meta": {
    "profile": [
      "http://hl7.eu/fhir/laboratory/StructureDefinition/Bundle-eu-lab"
    ]
  },
  "identifier": {
    "assigner": {
      "display": "HL7 Europe"
    },
    "system": "urn:oid:2.16.840.1.113883.2.51.999",
    "value": "046eb61e-eeaa-4c3f-805d-d1bf783f505c"
  },
  "entry": [
    {
      "fullUrl": "urn:uuid:07223129-0a82-4013-a5d8-30267e022518",
      "resource": {
        "resourceType": "Composition",
        "id": "07223129-0a82-4013-a5d8-30267e022518",
        "meta": {
          "profile": [
            "http://hl7.eu/fhir/laboratory/StructureDefinition/Composition-eu-lab"
          ]
        },
        "identifier": {
          "assigner": {
            "display": "HL7 Europe"
          },
          "system": "urn:oid:2.16.840.1.113883.2.51.999",
          "value": "bf792743-b777-4e5f-a2c6-79c5d1008414"
        },
        "author": [
          {
            "reference": "urn:uuid:78f0e73f-6657-497c-b7d5-3fe3d90da0d6"
          }
        ],
        "category": [
          {
            "coding": [
              {
                "code": "26436-6",
                "system": "http://loinc.org",
                "display": "Laboratory studies (set)"
              }
            ]
          }
        ],
        "type": {
          "coding": [
            {
              "code": "11502-2",
              "system": "http://loinc.org",
              "display": "Laboratory report"
            }
          ],
          "text": "Laboratory Report"
        },
        "section": [
          {
            "code": {
              "coding": [
                {
                  "code": "26436-6",
                  "system": "http://loinc.org",
                  "display": "Laboratory studies (set)"
                }
              ],
              "text": "Laboratory studies"
            },
            "section": [
              {
                "code": {
                  "coding": [
                    {
                      "code": "$18719-5",
                      "system": "http://loinc.org",
                      "display": "Chemistry studies (set)"
                    }
                  ],
                  "text": "Chemistry"
                },
                "entry": [
                  {
                    "reference": "urn:uuid:9b676ff5-8bf8-47e2-9ba4-8c20faf5a845"
                  },
                  {
                    "reference": "urn:uuid:6c393ae0-3f61-446e-b056-dbfccfde28f2"
                  },
                  {
                    "reference": "urn:uuid:07594e14-2acf-4a21-b3fd-149ee459961c"
                  },
                  {
                    "reference": "urn:uuid:f96a4136-b57b-4358-95a8-3d6126855388"
                  },
                  {
                    "reference": "urn:uuid:efc15114-2e0a-47a4-8189-1ebb364a6a7b"
                  },
                  {
                    "reference": "urn:uuid:5477693d-f6b5-4c38-b3a0-74569d239b63"
                  },
                  {
                    "reference": "urn:uuid:1ebf7987-845b-4d34-8208-4f08fbadf3d7"
                  },
                  {
                    "reference": "urn:uuid:8988374d-96de-423e-9a23-76cb9009a343"
                  },
                  {
                    "reference": "urn:uuid:3f034d45-9a18-4dee-b71e-d26b6d356d31"
                  },
                  {
                    "reference": "urn:uuid:a25688a1-b405-4f2a-92d8-8fbcabf2298f"
                  },
                  {
                    "reference": "urn:uuid:04f2399f-fbb8-4cf7-8945-e341035f6fdf"
                  },
                  {
                    "reference": "urn:uuid:a7fdf340-beaa-4b78-9991-963f4d158a25"
                  },
                  {
                    "reference": "urn:uuid:f6d2d347-4c8d-4305-bd2e-396d5292bef5"
                  },
                  {
                    "reference": "urn:uuid:449ec827-d445-4d8b-a72e-588087ff144b"
                  },
                  {
                    "reference": "urn:uuid:61b58ec6-12fb-4b32-ab6a-0440e9adc646"
                  },
                  {
                    "reference": "urn:uuid:713aab6b-efee-4834-b866-7317606d04b1"
                  },
                  {
                    "reference": "urn:uuid:1cc73a54-f906-43de-b2bd-43e97c1d2466"
                  },
                  {
                    "reference": "urn:uuid:b6255e9c-ac61-486d-adbc-e1abfc774c7f"
                  }
                ],
                "text": {
                  "status": "generated",
                  "div": "<div xmlns=\"http://www.w3.org/1999/xhtml\"><h3>Chemistry</h3><table class=\"hl7__eu__lab__report\"><thead><tr><th>Test</th><th>06-OCT-2021</th><th>Reference&#xA0;Range</th><th>Unit</th></tr></thead><tbody><tr><td>Glucose [Mass/volume] in Serum or Plasma</td><td><strong>69.5 L</strong></td><td>70 - 140</td><td>mg/dL</td></tr><tr><td>Urea nitrogen [Mass/volume] in Serum or Plasma</td><td>8.6</td><td>7 - 20</td><td>mg/dL</td></tr><tr><td>Creatinine [Mass/volume] in Serum or Plasma</td><td><strong>2.0 H</strong></td><td>0.9 - 1.3</td><td>mg/dL</td></tr><tr><td>Calcium [Mass/volume] in Serum or Plasma</td><td>9.4</td><td>8.5 - 10.5</td><td>mg/dL</td></tr><tr><td>Sodium [Moles/volume] in Serum or Plasma</td><td>136.5</td><td>135 - 145</td><td>mmol/L</td></tr><tr><td>Potassium [Moles/volume] in Serum or Plasma</td><td>4.4</td><td>3.5 - 5</td><td>mmol/L</td></tr><tr><td>Chloride [Moles/volume] in Serum or Plasma</td><td><strong>110.1 H</strong></td><td>98 - 108</td><td>mmol/L</td></tr><tr><td>Carbon dioxide, total [Moles/volume] in Serum or Plasma</td><td><strong>20.8 L</strong></td><td>22 - 29</td><td>mmol/L</td></tr><tr><td>Ketones [Presence] in Urine by Test strip</td><td>Urine ketone test = ++</td><td></td><td></td></tr><tr><td>Hemoglobin A1c/Hemoglobin.total in Blood</td><td><strong>3.1 L</strong></td><td>4.3 - 6.4</td><td>%</td></tr><tr><td>Glucose [Mass/volume] in Blood</td><td><strong>69.5 L</strong></td><td>70 - 140</td><td>mg/dL</td></tr><tr><td>Urea nitrogen [Mass/volume] in Blood</td><td>8.6</td><td>7 - 20</td><td>mg/dL</td></tr><tr><td>Creatinine [Mass/volume] in Blood</td><td><strong>6.1 H</strong></td><td>0.6 - 1.3</td><td>mg/dL</td></tr><tr><td>Calcium [Mass/volume] in Blood</td><td>9.4</td><td>8.5 - 10.5</td><td>mg/dL</td></tr><tr><td>Sodium [Moles/volume] in Blood</td><td>136.5</td><td>135 - 145</td><td>mmol/L</td></tr><tr><td>Potassium [Moles/volume] in Blood</td><td>4.4</td><td>3.5 - 5.3</td><td>mmol/L</td></tr><tr><td>Chloride [Moles/volume] in Blood</td><td><strong>110.1 H</strong></td><td>98 - 110</td><td>mmol/L</td></tr><tr><td>Carbon dioxide, total [Moles/volume] in Blood</td><td><strong>20.8 L</strong></td><td>22 - 29</td><td>mmol/L</td></tr></tbody></table></div>"
                },
                "title": "Chemistry"
              },
              {
                "code": {
                  "coding": [
                    {
                      "code": "$18729-4",
                      "system": "http://loinc.org",
                      "display": "Urinalysis studies (set)"
                    }
                  ],
                  "text": "Urinalysis"
                },
                "entry": [
                  {
                    "reference": "urn:uuid:c85c4ad1-eb17-4d96-956a-a28831016fa7"
                  },
                  {
                    "reference": "urn:uuid:1b040139-c06e-44f9-83aa-173cbba3c538"
                  },
                  {
                    "reference": "urn:uuid:562e3654-806a-4d1b-ba95-690adea22301"
                  },
                  {
                    "reference": "urn:uuid:695b3f4f-1648-43a0-92e0-84edc9732b48"
                  },
                  {
                    "reference": "urn:uuid:a6d534ab-499c-449e-91a4-ac7df75b5186"
                  },
                  {
                    "reference": "urn:uuid:49e88da2-bea5-4e96-b3b5-20a77416bced"
                  },
                  {
                    "reference": "urn:uuid:013726a8-3b66-445a-a34b-b2f6246f06b3"
                  },
                  {
                    "reference": "urn:uuid:fe266217-e487-46f9-8f89-94c4b9380491"
                  },
                  {
                    "reference": "urn:uuid:f9d9796f-6434-4c79-ad16-2af4ccc526cf"
                  },
                  {
                    "reference": "urn:uuid:c3c202e3-4834-4a0d-84d6-41b069646595"
                  },
                  {
                    "reference": "urn:uuid:1929259a-0452-4065-a3a9-79967505b202"
                  },
                  {
                    "reference": "urn:uuid:fb90b0e9-5bb1-402a-a357-caf4dcc30c99"
                  }
                ],
                "text": {
                  "status": "generated",
                  "div": "<div xmlns=\"http://www.w3.org/1999/xhtml\"><h3>Urinalysis</h3><table class=\"hl7__eu__lab__report\"><thead><tr><th>Test</th><th>06-OCT-2021</th><th>Reference&#xA0;Range</th><th>Unit</th></tr></thead><tbody><tr><td>Glucose [Mass/volume] in Urine by Test strip</td><td>0.8</td><td>0 - 0.8</td><td>mg/dL</td></tr><tr><td>Glucose [Presence] in Urine by Test strip</td><td>++</td><td></td><td></td></tr><tr><td>Bilirubin.total [Mass/volume] in Urine by Test strip</td><td>0.7</td><td>0.2 - 1</td><td>mg/dL</td></tr><tr><td>Bilirubin.total [Presence] in Urine by Test strip</td><td>Finding of bilirubin in urine</td><td></td><td></td></tr><tr><td>Ketones [Mass/volume] in Urine by Test strip</td><td>4.9</td><td>0 - 5</td><td>mg/dL</td></tr><tr><td>Specific gravity of Urine by Test strip</td><td><strong>1.0 L</strong></td><td>1.005 - 1.03</td><td>{nominal}</td></tr><tr><td>pH of Urine by Test strip</td><td>6.1</td><td>4.6 - 7</td><td>pH</td></tr><tr><td>Protein [Mass/volume] in Urine by Test strip</td><td><strong>266.5 H</strong></td><td>0 - 150</td><td>mg/dL</td></tr><tr><td>Protein [Presence] in Urine by Test strip</td><td>Urine protein test = ++</td><td></td><td></td></tr><tr><td>Nitrite [Presence] in Urine by Test strip</td><td>Urine nitrite negative</td><td></td><td></td></tr><tr><td>Hemoglobin [Presence] in Urine by Test strip</td><td>Urine blood test = negative</td><td></td><td></td></tr><tr><td>Leukocyte esterase [Presence] in Urine by Test strip</td><td>Urine leukocyte test negative</td><td></td><td></td></tr></tbody></table></div>"
                },
                "title": "Urinalysis"
              },
              {
                "code": {
                  "coding": [
                    {
                      "code": "$LP7846-1",
                      "system": "http://loinc.org",
                      "display": "Specimen information"
                    }
                  ],
                  "text": "Specimen information"
                },
                "entry": [
                  {
                    "reference": "urn:uuid:ebc2507d-4806-4649-8c61-c8ace4e1eadb"
                  },
                  {
                    "reference": "urn:uuid:09aef47b-dba0-4571-8804-4a215458df4d"
                  },
                  {
                    "reference": "urn:uuid:89a6c2ef-b00f-499d-918e-986a7b0ed443"
                  },
                  {
                    "reference": "urn:uuid:3254782f-df56-4aa0-b972-fb5c1bb7c25f"
                  }
                ],
                "text": {
                  "status": "generated",
                  "div": "<div xmlns=\"http://www.w3.org/1999/xhtml\"><h3>Specimen information</h3><table class=\"hl7__eu__lab__report\"><thead><tr><th>Test</th><th>06-OCT-2021</th><th>Specimen</th><th></th></tr></thead><tbody><tr><td>Appearance of Urine</td><td>Cloudy urine</td><td>Urine</td><td></td></tr><tr><td>Odor of Urine</td><td>Urine smell ammoniacal</td><td>Urine</td><td></td></tr><tr><td>Clarity of Urine</td><td>Translucent</td><td>Urine</td><td></td></tr><tr><td>Color of Urine</td><td>Brown color</td><td>Urine</td><td></td></tr></tbody></table></div>"
                },
                "title": "Specimen information"
              }
            ],
            "title": "Laboratory Report"
          },
          {
            "text": {
              "status": "generated",
              "div": "<div xmlns=\"http://www.w3.org/1999/xhtml\"><h3>Annotation</h3><table class=\"hl7__eu__lab__report\"><tr><th>Conclusion and Recommendations based on this report and previous findings known to us</th></tr><tr><td>The patient shows significant renal dysfunction (elevated creatinine, proteinuria), mild metabolic acidosis (low CO₂, high chloride), and hypoglycemia with low HbA1c, suggesting chronic low glucose. Urinalysis reveals proteinuria, ketonuria, bilirubinuria, and abnormal appearance, indicating possible nephrotic syndrome or advanced kidney disease. No evidence of urinary infection. Immediate nephrology evaluation is recommended.</td></tr></table></div>"
            },
            "code": {
              "coding": [
                {
                  "system": "http://loinc.org",
                  "code": "48767-8",
                  "display": "Annotation comment"
                }
              ]
            },
            "title": "Annotation comment"
          }
        ],
        "status": "final",
        "subject": {
          "reference": "urn:uuid:e1ed303e-76f5-474a-a56f-b996c4a12699",
          "display": "Θεμιστοκλής Λιναρδάκη"
        },
        "date": "2021-10-06T08:16:00Z",
        "title": "Laboratory Report",
        "confidentiality": "N"
      }
    },
    {
      "fullUrl": "urn:uuid:440e598c-751a-4c96-b3f9-310229f69f2e",
      "resource": {
        "resourceType": "DiagnosticReport",
        "id": "440e598c-751a-4c96-b3f9-310229f69f2e",
        "meta": {
          "profile": [
            "http://hl7.eu/fhir/laboratory/StructureDefinition/DiagnosticReport-eu-lab"
          ]
        },
        "identifier": [
          {
            "assigner": {
              "display": "HL7 Europe"
            },
            "system": "urn:oid:2.16.840.1.113883.2.51.999",
            "value": "48f81ca8-2cb3-40e7-91b0-565ac37aca25"
          }
        ],
        "extension": [
          {
            "url": "http://hl7.org/fhir/5.0/StructureDefinition/extension-DiagnosticReport.composition",
            "valueReference": {
              "reference": "urn:uuid:bf792743-b777-4e5f-a2c6-79c5d1008414"
            }
          }
        ],
        "category": [
          {
            "coding": [
              {
                "code": "26436-6",
                "system": "http://loinc.org",
                "display": "Laboratory studies (set)"
              }
            ]
          }
        ],
        "specimen": [
          {
            "reference": "urn:uuid:9794be8e-37fb-49ac-a97f-107d2f4712b0"
          },
          {
            "reference": "urn:uuid:d8590293-4f27-4712-b317-b4cbfef27a10"
          },
          {
            "reference": "urn:uuid:a8f567a4-3ba7-404d-8ac3-d6c5a083c47f"
          }
        ],
        "result": [
          {
            "reference": "urn:uuid:9b676ff5-8bf8-47e2-9ba4-8c20faf5a845"
          },
          {
            "reference": "urn:uuid:6c393ae0-3f61-446e-b056-dbfccfde28f2"
          },
          {
            "reference": "urn:uuid:07594e14-2acf-4a21-b3fd-149ee459961c"
          },
          {
            "reference": "urn:uuid:f96a4136-b57b-4358-95a8-3d6126855388"
          },
          {
            "reference": "urn:uuid:efc15114-2e0a-47a4-8189-1ebb364a6a7b"
          },
          {
            "reference": "urn:uuid:5477693d-f6b5-4c38-b3a0-74569d239b63"
          },
          {
            "reference": "urn:uuid:1ebf7987-845b-4d34-8208-4f08fbadf3d7"
          },
          {
            "reference": "urn:uuid:8988374d-96de-423e-9a23-76cb9009a343"
          },
          {
            "reference": "urn:uuid:ebc2507d-4806-4649-8c61-c8ace4e1eadb"
          },
          {
            "reference": "urn:uuid:09aef47b-dba0-4571-8804-4a215458df4d"
          },
          {
            "reference": "urn:uuid:89a6c2ef-b00f-499d-918e-986a7b0ed443"
          },
          {
            "reference": "urn:uuid:3254782f-df56-4aa0-b972-fb5c1bb7c25f"
          },
          {
            "reference": "urn:uuid:c85c4ad1-eb17-4d96-956a-a28831016fa7"
          },
          {
            "reference": "urn:uuid:1b040139-c06e-44f9-83aa-173cbba3c538"
          },
          {
            "reference": "urn:uuid:562e3654-806a-4d1b-ba95-690adea22301"
          },
          {
            "reference": "urn:uuid:695b3f4f-1648-43a0-92e0-84edc9732b48"
          },
          {
            "reference": "urn:uuid:a6d534ab-499c-449e-91a4-ac7df75b5186"
          },
          {
            "reference": "urn:uuid:3f034d45-9a18-4dee-b71e-d26b6d356d31"
          },
          {
            "reference": "urn:uuid:49e88da2-bea5-4e96-b3b5-20a77416bced"
          },
          {
            "reference": "urn:uuid:013726a8-3b66-445a-a34b-b2f6246f06b3"
          },
          {
            "reference": "urn:uuid:fe266217-e487-46f9-8f89-94c4b9380491"
          },
          {
            "reference": "urn:uuid:f9d9796f-6434-4c79-ad16-2af4ccc526cf"
          },
          {
            "reference": "urn:uuid:c3c202e3-4834-4a0d-84d6-41b069646595"
          },
          {
            "reference": "urn:uuid:1929259a-0452-4065-a3a9-79967505b202"
          },
          {
            "reference": "urn:uuid:fb90b0e9-5bb1-402a-a357-caf4dcc30c99"
          },
          {
            "reference": "urn:uuid:a25688a1-b405-4f2a-92d8-8fbcabf2298f"
          },
          {
            "reference": "urn:uuid:04f2399f-fbb8-4cf7-8945-e341035f6fdf"
          },
          {
            "reference": "urn:uuid:a7fdf340-beaa-4b78-9991-963f4d158a25"
          },
          {
            "reference": "urn:uuid:f6d2d347-4c8d-4305-bd2e-396d5292bef5"
          },
          {
            "reference": "urn:uuid:449ec827-d445-4d8b-a72e-588087ff144b"
          },
          {
            "reference": "urn:uuid:61b58ec6-12fb-4b32-ab6a-0440e9adc646"
          },
          {
            "reference": "urn:uuid:713aab6b-efee-4834-b866-7317606d04b1"
          },
          {
            "reference": "urn:uuid:1cc73a54-f906-43de-b2bd-43e97c1d2466"
          },
          {
            "reference": "urn:uuid:b6255e9c-ac61-486d-adbc-e1abfc774c7f"
          }
        ],
        "status": "registered",
        "code": {
          "coding": [
            {
              "code": "11502-2",
              "system": "http://loinc.org",
              "display": "Laboratory report"
            }
          ]
        },
        "subject": {
          "reference": "urn:uuid:e1ed303e-76f5-474a-a56f-b996c4a12699",
          "display": "Θεμιστοκλής Λιναρδάκη"
        }
      }
    },
    {
      "fullUrl": "urn:uuid:e1ed303e-76f5-474a-a56f-b996c4a12699",
      "resource": {
        "resourceType": "Patient",
        "id": "e1ed303e-76f5-474a-a56f-b996c4a12699",
        "meta": {
          "security": [
            {
              "system": "http://terminology.hl7.org/CodeSystem/v3-ActReason",
              "code": "HTEST"
            },
            {
              "system": "http://terminology.hl7.org/CodeSystem/v3-ActReason",
              "code": "TRAIN"
            }
          ],
          "tag": [
            {
              "system": "https://synderai.net/fhir/CodeSystem/tags",
              "code": "synthetic",
              "display": "SYNDERAI Synthetic data"
            }
          ],
          "profile": [
            "http://hl7.eu/fhir/base/StructureDefinition/patient-eu-core"
          ]
        },
        "identifier": [
          {
            "type": {
              "coding": [
                {
                  "code": "PT",
                  "system": "http://terminology.hl7.org/CodeSystem/v2-0203"
                }
              ]
            },
            "system": "http://ec.europa.eu/identifier/eci",
            "value": "5962-476889-7"
          },
          {
            "type": {
              "coding": [
                {
                  "code": "MR",
                  "system": "http://terminology.hl7.org/CodeSystem/v2-0203"
                }
              ]
            },
            "system": "http://local.setting.eu/identifier",
            "value": "925e2603-2ef9-6bdf-1330-2ebf526636c4"
          }
        ],
        "name": [
          {
            "family": "Λιναρδάκη"
          },
          {
            "given": [
              "Θεμιστοκλής"
            ]
          },
          {
            "text": "Θεμιστοκλής Λιναρδάκη"
          }
        ],
        "address": [
          {
            "line": [
              "Αμαρύνθου 54-58"
            ],
            "use": "home",
            "type": "physical",
            "postalCode": "262 21",
            "city": "Πάτρα",
            "country": "Greece"
          }
        ],
        "telecom": [
          {
            "system": "phone",
            "value": "+302226364480"
          }
        ],
        "extension": [
          {
            "url": "http://hl7.org/fhir/StructureDefinition/patient-nationality",
            "valueCodeableConcept": {
              "coding": [
                {
                  "code": "GR",
                  "system": "http://hl7.org/fhir/ValueSet/country"
                }
              ]
            }
          }
        ],
        "text": {
          "status": "generated",
          "div": "<div xmlns=\"http://www.w3.org/1999/xhtml\"><table class=\"hl7__ips\"><tr><td>Θεμιστοκλής Λιναρδάκη</td><td>male</td><td>21-Jan-1974</td></tr></table></div>"
        },
        "gender": "male",
        "birthDate": "1974-01-21"
      }
    },
    {
      "fullUrl": "urn:uuid:8a4e7dec-5c2e-4070-a274-0aca17ff346b",
      "resource": {
        "resourceType": "ServiceRequest",
        "id": "8a4e7dec-5c2e-4070-a274-0aca17ff346b",
        "meta": {
          "profile": [
            "http://hl7.eu/fhir/laboratory/StructureDefinition/ServiceRequest-eu-lab"
          ]
        },
        "identifier": [
          {
            "system": "http://example.org",
            "value": "8f496156-9e44-4741-afca-381a53ea8aeb"
          }
        ],
        "specimen": [
          {
            "reference": "urn:uuid:9794be8e-37fb-49ac-a97f-107d2f4712b0"
          },
          {
            "reference": "urn:uuid:d8590293-4f27-4712-b317-b4cbfef27a10"
          },
          {
            "reference": "urn:uuid:a8f567a4-3ba7-404d-8ac3-d6c5a083c47f"
          }
        ],
        "reasonCode": [
          {
            "coding": [
              {
                "code": "237602007",
                "system": "http://snomed.info/sct",
                "display": "Metabolic syndrome X"
              }
            ]
          },
          {
            "coding": [
              {
                "code": "433144002",
                "system": "http://snomed.info/sct",
                "display": "Chronic kidney disease stage 3"
              }
            ]
          },
          {
            "coding": [
              {
                "code": "157141000119108",
                "system": "http://snomed.info/sct",
                "display": "Proteinuria due to type 2 diabetes mellitus"
              }
            ]
          },
          {
            "coding": [
              {
                "code": "431856006",
                "system": "http://snomed.info/sct",
                "display": "Chronic kidney disease stage 2"
              }
            ]
          },
          {
            "coding": [
              {
                "code": "90781000119102",
                "system": "http://snomed.info/sct",
                "display": "Microalbuminuria due to type 2 diabetes mellitus"
              }
            ]
          },
          {
            "coding": [
              {
                "code": "127013003",
                "system": "http://snomed.info/sct",
                "display": "Disorder of kidney due to diabetes mellitus"
              }
            ]
          },
          {
            "coding": [
              {
                "code": "431855005",
                "system": "http://snomed.info/sct",
                "display": "Chronic kidney disease stage 1"
              }
            ]
          },
          {
            "coding": [
              {
                "code": "59621000",
                "system": "http://snomed.info/sct",
                "display": "Essential hypertension"
              }
            ]
          },
          {
            "coding": [
              {
                "code": "15777000",
                "system": "http://snomed.info/sct",
                "display": "Prediabetes"
              }
            ]
          },
          {
            "coding": [
              {
                "code": "271737000",
                "system": "http://snomed.info/sct",
                "display": "Anemia"
              }
            ]
          }
        ],
        "status": "active",
        "intent": "order",
        "code": {
          "coding": [
            {
              "code": "108252007",
              "system": "http://snomed.info/sct",
              "display": "Laboratory procedure"
            }
          ]
        },
        "subject": {
          "reference": "urn:uuid:e1ed303e-76f5-474a-a56f-b996c4a12699",
          "display": "Θεμιστοκλής Λιναρδάκη"
        },
        "requester": {
          "reference": "urn:uuid:8fcdd033-fdd9-4160-9fb1-2339254ca6d2"
        }
      }
    },
    {
      "fullUrl": "urn:uuid:8fcdd033-fdd9-4160-9fb1-2339254ca6d2",
      "resource": {
        "resourceType": "PractitionerRole",
        "id": "8fcdd033-fdd9-4160-9fb1-2339254ca6d2",
        "meta": {
          "profile": [
            "http://hl7.eu/fhir/base/StructureDefinition/practitionerRole-eu"
          ]
        },
        "text": {
          "status": "generated",
          "div": "<div xmlns=\"http://www.w3.org/1999/xhtml\">Provider Role Id: 8fcdd033-fdd9-4160-9fb1-2339254ca6d2</div>"
        },
        "organization": {
          "reference": "urn:uuid:e1d65915-1b0a-4ff7-9bd4-5c7e70a34234"
        }
      }
    },
    {
      "fullUrl": "urn:uuid:e1d65915-1b0a-4ff7-9bd4-5c7e70a34234",
      "resource": {
        "resourceType": "Organization",
        "id": "e1d65915-1b0a-4ff7-9bd4-5c7e70a34234",
        "meta": {
          "profile": [
            "http://hl7.eu/fhir/base/StructureDefinition/organization-eu"
          ]
        },
        "identifier": [
          {
            "assigner": {
              "display": "HL7 Europe"
            },
            "system": "urn:oid:2.16.840.1.113883.2.51.999",
            "value": "70a4a95e-24f7-409a-a1de-9dae21fb16c5"
          }
        ],
        "address": [
          {
            "line": [
              "211 Odós Filellinon"
            ],
            "city": "Patras",
            "postalCode": "262 21",
            "country": "Greece"
          }
        ],
        "text": {
          "status": "generated",
          "div": "<div xmlns=\"http://www.w3.org/1999/xhtml\">Provider Organization: Dr. Dimitris Economou</div>"
        },
        "name": "Dr. Dimitris Economou"
      }
    },
    {
      "fullUrl": "urn:uuid:9794be8e-37fb-49ac-a97f-107d2f4712b0",
      "resource": {
        "resourceType": "Specimen",
        "id": "9794be8e-37fb-49ac-a97f-107d2f4712b0",
        "meta": {
          "profile": [
            "http://hl7.eu/fhir/laboratory/StructureDefinition/Specimen-eu-lab"
          ]
        },
        "collection": {
          "collectedDateTime": "2021-10-06"
        },
        "text": {
          "status": "generated",
          "div": "<div xmlns=\"http://www.w3.org/1999/xhtml\"><table class=\"hl7__eu__lab__report\"><tr><th>Specimen</th><th>Collection Date</th></tr><tr><td>Acellular blood (serum or plasma) specimen</td><td><span class=\"nb\">06-Oct-2021</span></td></tr></table></div>"
        },
        "type": {
          "coding": [
            {
              "code": "122592007",
              "system": "http://snomed.info/sct",
              "display": "Acellular blood (serum or plasma) specimen"
            }
          ]
        }
      }
    },
    {
      "fullUrl": "urn:uuid:d8590293-4f27-4712-b317-b4cbfef27a10",
      "resource": {
        "resourceType": "Specimen",
        "id": "d8590293-4f27-4712-b317-b4cbfef27a10",
        "meta": {
          "profile": [
            "http://hl7.eu/fhir/laboratory/StructureDefinition/Specimen-eu-lab"
          ]
        },
        "collection": {
          "collectedDateTime": "2021-10-06"
        },
        "text": {
          "status": "generated",
          "div": "<div xmlns=\"http://www.w3.org/1999/xhtml\"><table class=\"hl7__eu__lab__report\"><tr><th>Specimen</th><th>Collection Date</th></tr><tr><td>Urine specimen</td><td><span class=\"nb\">06-Oct-2021</span></td></tr></table></div>"
        },
        "type": {
          "coding": [
            {
              "code": "122575003",
              "system": "http://snomed.info/sct",
              "display": "Urine specimen"
            }
          ]
        }
      }
    },
    {
      "fullUrl": "urn:uuid:a8f567a4-3ba7-404d-8ac3-d6c5a083c47f",
      "resource": {
        "resourceType": "Specimen",
        "id": "a8f567a4-3ba7-404d-8ac3-d6c5a083c47f",
        "meta": {
          "profile": [
            "http://hl7.eu/fhir/laboratory/StructureDefinition/Specimen-eu-lab"
          ]
        },
        "collection": {
          "collectedDateTime": "2021-10-06"
        },
        "text": {
          "status": "generated",
          "div": "<div xmlns=\"http://www.w3.org/1999/xhtml\"><table class=\"hl7__eu__lab__report\"><tr><th>Specimen</th><th>Collection Date</th></tr><tr><td>Whole blood specimen (specimen)</td><td><span class=\"nb\">06-Oct-2021</span></td></tr></table></div>"
        },
        "type": {
          "coding": [
            {
              "code": "258580003",
              "system": "http://snomed.info/sct",
              "display": "Whole blood specimen (specimen)"
            }
          ]
        }
      }
    },
    {
      "fullUrl": "urn:uuid:9b676ff5-8bf8-47e2-9ba4-8c20faf5a845",
      "resource": {
        "resourceType": "Observation",
        "id": "9b676ff5-8bf8-47e2-9ba4-8c20faf5a845",
        "meta": {
          "profile": [
            "http://hl7.eu/fhir/laboratory/StructureDefinition/Observation-resultslab-eu-lab"
          ]
        },
        "performer": [
          {
            "display": "The Central European Lab"
          }
        ],
        "category": [
          {
            "coding": [
              {
                "system": "http://terminology.hl7.org/CodeSystem/observation-category",
                "code": "laboratory"
              }
            ]
          }
        ],
        "code": {
          "coding": [
            {
              "code": "2345-7",
              "system": "http://loinc.org",
              "display": "Glucose [Mass/volume] in Serum or Plasma"
            }
          ],
          "text": "Glucose [Mass/volume] in Serum or Plasma"
        },
        "valueQuantity": {
          "system": "http://unitsofmeasure.org",
          "value": 69.5,
          "unit": "mg/dL",
          "code": "mg/dL"
        },
        "referenceRange": [
          {
            "low": {
              "value": 70,
              "code": "mg/dL",
              "system": "http://unitsofmeasure.org"
            }
          },
          {
            "high": {
              "value": 140,
              "code": "mg/dL",
              "system": "http://unitsofmeasure.org"
            }
          }
        ],
        "interpretation": [
          {
            "coding": [
              {
                "code": "L",
                "system": "http://terminology.hl7.org/CodeSystem/v3-ObservationInterpretation",
                "display": "Low"
              }
            ]
          }
        ],
        "text": {
          "status": "generated",
          "div": "<div xmlns=\"http://www.w3.org/1999/xhtml\"><table class=\"hl7__eu__lab__report\"><tr><th>Test</th><th>06-Oct-2021</th><th>Reference&#xA0;Range</th><th>Unit</th></tr><tr><td>Glucose [Mass/volume] in Serum or Plasma</td><td>69.5</td><td>70 - 140</td><td>L</td><td>mg/dL</td></tr></table></div>"
        },
        "status": "final",
        "subject": {
          "reference": "urn:uuid:e1ed303e-76f5-474a-a56f-b996c4a12699",
          "display": "Θεμιστοκλής Λιναρδάκη"
        },
        "effectiveDateTime": "2021-10-06T06:16:00Z",
        "specimen": {
          "reference": "urn:uuid:9794be8e-37fb-49ac-a97f-107d2f4712b0"
        }
      }
    },
    {
      "fullUrl": "urn:uuid:6c393ae0-3f61-446e-b056-dbfccfde28f2",
      "resource": {
        "resourceType": "Observation",
        "id": "6c393ae0-3f61-446e-b056-dbfccfde28f2",
        "meta": {
          "profile": [
            "http://hl7.eu/fhir/laboratory/StructureDefinition/Observation-resultslab-eu-lab"
          ]
        },
        "performer": [
          {
            "display": "The Central European Lab"
          }
        ],
        "category": [
          {
            "coding": [
              {
                "system": "http://terminology.hl7.org/CodeSystem/observation-category",
                "code": "laboratory"
              }
            ]
          }
        ],
        "code": {
          "coding": [
            {
              "code": "3094-0",
              "system": "http://loinc.org",
              "display": "Urea nitrogen [Mass/volume] in Serum or Plasma"
            }
          ],
          "text": "Urea nitrogen [Mass/volume] in Serum or Plasma"
        },
        "valueQuantity": {
          "system": "http://unitsofmeasure.org",
          "value": 8.6,
          "unit": "mg/dL",
          "code": "mg/dL"
        },
        "referenceRange": [
          {
            "low": {
              "value": 7,
              "code": "mg/dL",
              "system": "http://unitsofmeasure.org"
            }
          },
          {
            "high": {
              "value": 20,
              "code": "mg/dL",
              "system": "http://unitsofmeasure.org"
            }
          }
        ],
        "text": {
          "status": "generated",
          "div": "<div xmlns=\"http://www.w3.org/1999/xhtml\"><table class=\"hl7__eu__lab__report\"><tr><th>Test</th><th>06-Oct-2021</th><th>Reference&#xA0;Range</th><th>Unit</th></tr><tr><td>Urea nitrogen [Mass/volume] in Serum or Plasma</td><td>8.6</td><td>7 - 20</td><td></td><td>mg/dL</td></tr></table></div>"
        },
        "status": "final",
        "subject": {
          "reference": "urn:uuid:e1ed303e-76f5-474a-a56f-b996c4a12699",
          "display": "Θεμιστοκλής Λιναρδάκη"
        },
        "effectiveDateTime": "2021-10-06T06:16:00Z",
        "specimen": {
          "reference": "urn:uuid:9794be8e-37fb-49ac-a97f-107d2f4712b0"
        }
      }
    },
    {
      "fullUrl": "urn:uuid:07594e14-2acf-4a21-b3fd-149ee459961c",
      "resource": {
        "resourceType": "Observation",
        "id": "07594e14-2acf-4a21-b3fd-149ee459961c",
        "meta": {
          "profile": [
            "http://hl7.eu/fhir/laboratory/StructureDefinition/Observation-resultslab-eu-lab"
          ]
        },
        "performer": [
          {
            "display": "The Central European Lab"
          }
        ],
        "category": [
          {
            "coding": [
              {
                "system": "http://terminology.hl7.org/CodeSystem/observation-category",
                "code": "laboratory"
              }
            ]
          }
        ],
        "code": {
          "coding": [
            {
              "code": "2160-0",
              "system": "http://loinc.org",
              "display": "Creatinine [Mass/volume] in Serum or Plasma"
            }
          ],
          "text": "Creatinine [Mass/volume] in Serum or Plasma"
        },
        "valueQuantity": {
          "system": "http://unitsofmeasure.org",
          "value": 2,
          "unit": "mg/dL",
          "code": "mg/dL"
        },
        "referenceRange": [
          {
            "low": {
              "value": 0.9,
              "code": "mg/dL",
              "system": "http://unitsofmeasure.org"
            }
          },
          {
            "high": {
              "value": 1.3,
              "code": "mg/dL",
              "system": "http://unitsofmeasure.org"
            }
          }
        ],
        "interpretation": [
          {
            "coding": [
              {
                "code": "H",
                "system": "http://terminology.hl7.org/CodeSystem/v3-ObservationInterpretation",
                "display": "High"
              }
            ]
          }
        ],
        "text": {
          "status": "generated",
          "div": "<div xmlns=\"http://www.w3.org/1999/xhtml\"><table class=\"hl7__eu__lab__report\"><tr><th>Test</th><th>06-Oct-2021</th><th>Reference&#xA0;Range</th><th>Unit</th></tr><tr><td>Creatinine [Mass/volume] in Serum or Plasma</td><td>2.0</td><td>0.9 - 1.3</td><td>H</td><td>mg/dL</td></tr></table></div>"
        },
        "status": "final",
        "subject": {
          "reference": "urn:uuid:e1ed303e-76f5-474a-a56f-b996c4a12699",
          "display": "Θεμιστοκλής Λιναρδάκη"
        },
        "effectiveDateTime": "2021-10-06T06:16:00Z",
        "specimen": {
          "reference": "urn:uuid:9794be8e-37fb-49ac-a97f-107d2f4712b0"
        }
      }
    },
    {
      "fullUrl": "urn:uuid:f96a4136-b57b-4358-95a8-3d6126855388",
      "resource": {
        "resourceType": "Observation",
        "id": "f96a4136-b57b-4358-95a8-3d6126855388",
        "meta": {
          "profile": [
            "http://hl7.eu/fhir/laboratory/StructureDefinition/Observation-resultslab-eu-lab"
          ]
        },
        "performer": [
          {
            "display": "The Central European Lab"
          }
        ],
        "category": [
          {
            "coding": [
              {
                "system": "http://terminology.hl7.org/CodeSystem/observation-category",
                "code": "laboratory"
              }
            ]
          }
        ],
        "code": {
          "coding": [
            {
              "code": "17861-6",
              "system": "http://loinc.org",
              "display": "Calcium [Mass/volume] in Serum or Plasma"
            }
          ],
          "text": "Calcium [Mass/volume] in Serum or Plasma"
        },
        "valueQuantity": {
          "system": "http://unitsofmeasure.org",
          "value": 9.4,
          "unit": "mg/dL",
          "code": "mg/dL"
        },
        "referenceRange": [
          {
            "low": {
              "value": 8.5,
              "code": "mg/dL",
              "system": "http://unitsofmeasure.org"
            }
          },
          {
            "high": {
              "value": 10.5,
              "code": "mg/dL",
              "system": "http://unitsofmeasure.org"
            }
          }
        ],
        "text": {
          "status": "generated",
          "div": "<div xmlns=\"http://www.w3.org/1999/xhtml\"><table class=\"hl7__eu__lab__report\"><tr><th>Test</th><th>06-Oct-2021</th><th>Reference&#xA0;Range</th><th>Unit</th></tr><tr><td>Calcium [Mass/volume] in Serum or Plasma</td><td>9.4</td><td>8.5 - 10.5</td><td></td><td>mg/dL</td></tr></table></div>"
        },
        "status": "final",
        "subject": {
          "reference": "urn:uuid:e1ed303e-76f5-474a-a56f-b996c4a12699",
          "display": "Θεμιστοκλής Λιναρδάκη"
        },
        "effectiveDateTime": "2021-10-06T06:16:00Z",
        "specimen": {
          "reference": "urn:uuid:9794be8e-37fb-49ac-a97f-107d2f4712b0"
        }
      }
    },
    {
      "fullUrl": "urn:uuid:efc15114-2e0a-47a4-8189-1ebb364a6a7b",
      "resource": {
        "resourceType": "Observation",
        "id": "efc15114-2e0a-47a4-8189-1ebb364a6a7b",
        "meta": {
          "profile": [
            "http://hl7.eu/fhir/laboratory/StructureDefinition/Observation-resultslab-eu-lab"
          ]
        },
        "performer": [
          {
            "display": "The Central European Lab"
          }
        ],
        "category": [
          {
            "coding": [
              {
                "system": "http://terminology.hl7.org/CodeSystem/observation-category",
                "code": "laboratory"
              }
            ]
          }
        ],
        "code": {
          "coding": [
            {
              "code": "2951-2",
              "system": "http://loinc.org",
              "display": "Sodium [Moles/volume] in Serum or Plasma"
            }
          ],
          "text": "Sodium [Moles/volume] in Serum or Plasma"
        },
        "valueQuantity": {
          "system": "http://unitsofmeasure.org",
          "value": 136.5,
          "unit": "mmol/L",
          "code": "mmol/L"
        },
        "referenceRange": [
          {
            "low": {
              "value": 135,
              "code": "mmol/L",
              "system": "http://unitsofmeasure.org"
            }
          },
          {
            "high": {
              "value": 145,
              "code": "mmol/L",
              "system": "http://unitsofmeasure.org"
            }
          }
        ],
        "text": {
          "status": "generated",
          "div": "<div xmlns=\"http://www.w3.org/1999/xhtml\"><table class=\"hl7__eu__lab__report\"><tr><th>Test</th><th>06-Oct-2021</th><th>Reference&#xA0;Range</th><th>Unit</th></tr><tr><td>Sodium [Moles/volume] in Serum or Plasma</td><td>136.5</td><td>135 - 145</td><td></td><td>mmol/L</td></tr></table></div>"
        },
        "status": "final",
        "subject": {
          "reference": "urn:uuid:e1ed303e-76f5-474a-a56f-b996c4a12699",
          "display": "Θεμιστοκλής Λιναρδάκη"
        },
        "effectiveDateTime": "2021-10-06T06:16:00Z",
        "specimen": {
          "reference": "urn:uuid:9794be8e-37fb-49ac-a97f-107d2f4712b0"
        }
      }
    },
    {
      "fullUrl": "urn:uuid:5477693d-f6b5-4c38-b3a0-74569d239b63",
      "resource": {
        "resourceType": "Observation",
        "id": "5477693d-f6b5-4c38-b3a0-74569d239b63",
        "meta": {
          "profile": [
            "http://hl7.eu/fhir/laboratory/StructureDefinition/Observation-resultslab-eu-lab"
          ]
        },
        "performer": [
          {
            "display": "The Central European Lab"
          }
        ],
        "category": [
          {
            "coding": [
              {
                "system": "http://terminology.hl7.org/CodeSystem/observation-category",
                "code": "laboratory"
              }
            ]
          }
        ],
        "code": {
          "coding": [
            {
              "code": "2823-3",
              "system": "http://loinc.org",
              "display": "Potassium [Moles/volume] in Serum or Plasma"
            }
          ],
          "text": "Potassium [Moles/volume] in Serum or Plasma"
        },
        "valueQuantity": {
          "system": "http://unitsofmeasure.org",
          "value": 4.4,
          "unit": "mmol/L",
          "code": "mmol/L"
        },
        "referenceRange": [
          {
            "low": {
              "value": 3.5,
              "code": "mmol/L",
              "system": "http://unitsofmeasure.org"
            }
          },
          {
            "high": {
              "value": 5,
              "code": "mmol/L",
              "system": "http://unitsofmeasure.org"
            }
          }
        ],
        "text": {
          "status": "generated",
          "div": "<div xmlns=\"http://www.w3.org/1999/xhtml\"><table class=\"hl7__eu__lab__report\"><tr><th>Test</th><th>06-Oct-2021</th><th>Reference&#xA0;Range</th><th>Unit</th></tr><tr><td>Potassium [Moles/volume] in Serum or Plasma</td><td>4.4</td><td>3.5 - 5</td><td></td><td>mmol/L</td></tr></table></div>"
        },
        "status": "final",
        "subject": {
          "reference": "urn:uuid:e1ed303e-76f5-474a-a56f-b996c4a12699",
          "display": "Θεμιστοκλής Λιναρδάκη"
        },
        "effectiveDateTime": "2021-10-06T06:16:00Z",
        "specimen": {
          "reference": "urn:uuid:9794be8e-37fb-49ac-a97f-107d2f4712b0"
        }
      }
    },
    {
      "fullUrl": "urn:uuid:1ebf7987-845b-4d34-8208-4f08fbadf3d7",
      "resource": {
        "resourceType": "Observation",
        "id": "1ebf7987-845b-4d34-8208-4f08fbadf3d7",
        "meta": {
          "profile": [
            "http://hl7.eu/fhir/laboratory/StructureDefinition/Observation-resultslab-eu-lab"
          ]
        },
        "performer": [
          {
            "display": "The Central European Lab"
          }
        ],
        "category": [
          {
            "coding": [
              {
                "system": "http://terminology.hl7.org/CodeSystem/observation-category",
                "code": "laboratory"
              }
            ]
          }
        ],
        "code": {
          "coding": [
            {
              "code": "2075-0",
              "system": "http://loinc.org",
              "display": "Chloride [Moles/volume] in Serum or Plasma"
            }
          ],
          "text": "Chloride [Moles/volume] in Serum or Plasma"
        },
        "valueQuantity": {
          "system": "http://unitsofmeasure.org",
          "value": 110.1,
          "unit": "mmol/L",
          "code": "mmol/L"
        },
        "referenceRange": [
          {
            "low": {
              "value": 98,
              "code": "mmol/L",
              "system": "http://unitsofmeasure.org"
            }
          },
          {
            "high": {
              "value": 108,
              "code": "mmol/L",
              "system": "http://unitsofmeasure.org"
            }
          }
        ],
        "interpretation": [
          {
            "coding": [
              {
                "code": "H",
                "system": "http://terminology.hl7.org/CodeSystem/v3-ObservationInterpretation",
                "display": "High"
              }
            ]
          }
        ],
        "text": {
          "status": "generated",
          "div": "<div xmlns=\"http://www.w3.org/1999/xhtml\"><table class=\"hl7__eu__lab__report\"><tr><th>Test</th><th>06-Oct-2021</th><th>Reference&#xA0;Range</th><th>Unit</th></tr><tr><td>Chloride [Moles/volume] in Serum or Plasma</td><td>110.1</td><td>98 - 108</td><td>H</td><td>mmol/L</td></tr></table></div>"
        },
        "status": "final",
        "subject": {
          "reference": "urn:uuid:e1ed303e-76f5-474a-a56f-b996c4a12699",
          "display": "Θεμιστοκλής Λιναρδάκη"
        },
        "effectiveDateTime": "2021-10-06T06:16:00Z",
        "specimen": {
          "reference": "urn:uuid:9794be8e-37fb-49ac-a97f-107d2f4712b0"
        }
      }
    },
    {
      "fullUrl": "urn:uuid:8988374d-96de-423e-9a23-76cb9009a343",
      "resource": {
        "resourceType": "Observation",
        "id": "8988374d-96de-423e-9a23-76cb9009a343",
        "meta": {
          "profile": [
            "http://hl7.eu/fhir/laboratory/StructureDefinition/Observation-resultslab-eu-lab"
          ]
        },
        "performer": [
          {
            "display": "The Central European Lab"
          }
        ],
        "category": [
          {
            "coding": [
              {
                "system": "http://terminology.hl7.org/CodeSystem/observation-category",
                "code": "laboratory"
              }
            ]
          }
        ],
        "code": {
          "coding": [
            {
              "code": "2028-9",
              "system": "http://loinc.org",
              "display": "Carbon dioxide, total [Moles/volume] in Serum or Plasma"
            }
          ],
          "text": "Carbon dioxide, total [Moles/volume] in Serum or Plasma"
        },
        "valueQuantity": {
          "system": "http://unitsofmeasure.org",
          "value": 20.8,
          "unit": "mmol/L",
          "code": "mmol/L"
        },
        "referenceRange": [
          {
            "low": {
              "value": 22,
              "code": "mmol/L",
              "system": "http://unitsofmeasure.org"
            }
          },
          {
            "high": {
              "value": 29,
              "code": "mmol/L",
              "system": "http://unitsofmeasure.org"
            }
          }
        ],
        "interpretation": [
          {
            "coding": [
              {
                "code": "L",
                "system": "http://terminology.hl7.org/CodeSystem/v3-ObservationInterpretation",
                "display": "Low"
              }
            ]
          }
        ],
        "text": {
          "status": "generated",
          "div": "<div xmlns=\"http://www.w3.org/1999/xhtml\"><table class=\"hl7__eu__lab__report\"><tr><th>Test</th><th>06-Oct-2021</th><th>Reference&#xA0;Range</th><th>Unit</th></tr><tr><td>Carbon dioxide, total [Moles/volume] in Serum or Plasma</td><td>20.8</td><td>22 - 29</td><td>L</td><td>mmol/L</td></tr></table></div>"
        },
        "status": "final",
        "subject": {
          "reference": "urn:uuid:e1ed303e-76f5-474a-a56f-b996c4a12699",
          "display": "Θεμιστοκλής Λιναρδάκη"
        },
        "effectiveDateTime": "2021-10-06T06:16:00Z",
        "specimen": {
          "reference": "urn:uuid:9794be8e-37fb-49ac-a97f-107d2f4712b0"
        }
      }
    },
    {
      "fullUrl": "urn:uuid:ebc2507d-4806-4649-8c61-c8ace4e1eadb",
      "resource": {
        "resourceType": "Observation",
        "id": "ebc2507d-4806-4649-8c61-c8ace4e1eadb",
        "meta": {
          "profile": [
            "http://hl7.eu/fhir/laboratory/StructureDefinition/Observation-resultslab-eu-lab"
          ]
        },
        "performer": [
          {
            "display": "The Central European Lab"
          }
        ],
        "category": [
          {
            "coding": [
              {
                "system": "http://terminology.hl7.org/CodeSystem/observation-category",
                "code": "laboratory"
              }
            ]
          }
        ],
        "code": {
          "coding": [
            {
              "code": "5767-9",
              "system": "http://loinc.org",
              "display": "Appearance of Urine"
            }
          ],
          "text": "Appearance of Urine"
        },
        "text": {
          "status": "generated",
          "div": "<div xmlns=\"http://www.w3.org/1999/xhtml\"><table class=\"hl7__eu__lab__report\"><tr><th>Test</th><th>06-Oct-2021</th><th>Reference&#xA0;Range</th><th>Unit</th></tr><tr><td>Appearance of Urine</td></tr></table></div>"
        },
        "status": "final",
        "subject": {
          "reference": "urn:uuid:e1ed303e-76f5-474a-a56f-b996c4a12699",
          "display": "Θεμιστοκλής Λιναρδάκη"
        },
        "effectiveDateTime": "2021-10-06T06:16:00Z",
        "specimen": {
          "reference": "urn:uuid:d8590293-4f27-4712-b317-b4cbfef27a10"
        }
      }
    },
    {
      "fullUrl": "urn:uuid:09aef47b-dba0-4571-8804-4a215458df4d",
      "resource": {
        "resourceType": "Observation",
        "id": "09aef47b-dba0-4571-8804-4a215458df4d",
        "meta": {
          "profile": [
            "http://hl7.eu/fhir/laboratory/StructureDefinition/Observation-resultslab-eu-lab"
          ]
        },
        "performer": [
          {
            "display": "The Central European Lab"
          }
        ],
        "category": [
          {
            "coding": [
              {
                "system": "http://terminology.hl7.org/CodeSystem/observation-category",
                "code": "laboratory"
              }
            ]
          }
        ],
        "code": {
          "coding": [
            {
              "code": "34533-0",
              "system": "http://loinc.org",
              "display": "Odor of Urine"
            }
          ],
          "text": "Odor of Urine"
        },
        "text": {
          "status": "generated",
          "div": "<div xmlns=\"http://www.w3.org/1999/xhtml\"><table class=\"hl7__eu__lab__report\"><tr><th>Test</th><th>06-Oct-2021</th><th>Reference&#xA0;Range</th><th>Unit</th></tr><tr><td>Odor of Urine</td></tr></table></div>"
        },
        "status": "final",
        "subject": {
          "reference": "urn:uuid:e1ed303e-76f5-474a-a56f-b996c4a12699",
          "display": "Θεμιστοκλής Λιναρδάκη"
        },
        "effectiveDateTime": "2021-10-06T06:16:00Z",
        "specimen": {
          "reference": "urn:uuid:d8590293-4f27-4712-b317-b4cbfef27a10"
        }
      }
    },
    {
      "fullUrl": "urn:uuid:89a6c2ef-b00f-499d-918e-986a7b0ed443",
      "resource": {
        "resourceType": "Observation",
        "id": "89a6c2ef-b00f-499d-918e-986a7b0ed443",
        "meta": {
          "profile": [
            "http://hl7.eu/fhir/laboratory/StructureDefinition/Observation-resultslab-eu-lab"
          ]
        },
        "performer": [
          {
            "display": "The Central European Lab"
          }
        ],
        "category": [
          {
            "coding": [
              {
                "system": "http://terminology.hl7.org/CodeSystem/observation-category",
                "code": "laboratory"
              }
            ]
          }
        ],
        "code": {
          "coding": [
            {
              "code": "32167-9",
              "system": "http://loinc.org",
              "display": "Clarity of Urine"
            }
          ],
          "text": "Clarity of Urine"
        },
        "text": {
          "status": "generated",
          "div": "<div xmlns=\"http://www.w3.org/1999/xhtml\"><table class=\"hl7__eu__lab__report\"><tr><th>Test</th><th>06-Oct-2021</th><th>Reference&#xA0;Range</th><th>Unit</th></tr><tr><td>Clarity of Urine</td></tr></table></div>"
        },
        "status": "final",
        "subject": {
          "reference": "urn:uuid:e1ed303e-76f5-474a-a56f-b996c4a12699",
          "display": "Θεμιστοκλής Λιναρδάκη"
        },
        "effectiveDateTime": "2021-10-06T06:16:00Z",
        "specimen": {
          "reference": "urn:uuid:d8590293-4f27-4712-b317-b4cbfef27a10"
        }
      }
    },
    {
      "fullUrl": "urn:uuid:3254782f-df56-4aa0-b972-fb5c1bb7c25f",
      "resource": {
        "resourceType": "Observation",
        "id": "3254782f-df56-4aa0-b972-fb5c1bb7c25f",
        "meta": {
          "profile": [
            "http://hl7.eu/fhir/laboratory/StructureDefinition/Observation-resultslab-eu-lab"
          ]
        },
        "performer": [
          {
            "display": "The Central European Lab"
          }
        ],
        "category": [
          {
            "coding": [
              {
                "system": "http://terminology.hl7.org/CodeSystem/observation-category",
                "code": "laboratory"
              }
            ]
          }
        ],
        "code": {
          "coding": [
            {
              "code": "5778-6",
              "system": "http://loinc.org",
              "display": "Color of Urine"
            }
          ],
          "text": "Color of Urine"
        },
        "text": {
          "status": "generated",
          "div": "<div xmlns=\"http://www.w3.org/1999/xhtml\"><table class=\"hl7__eu__lab__report\"><tr><th>Test</th><th>06-Oct-2021</th><th>Reference&#xA0;Range</th><th>Unit</th></tr><tr><td>Color of Urine</td></tr></table></div>"
        },
        "status": "final",
        "subject": {
          "reference": "urn:uuid:e1ed303e-76f5-474a-a56f-b996c4a12699",
          "display": "Θεμιστοκλής Λιναρδάκη"
        },
        "effectiveDateTime": "2021-10-06T06:16:00Z",
        "specimen": {
          "reference": "urn:uuid:d8590293-4f27-4712-b317-b4cbfef27a10"
        }
      }
    },
    {
      "fullUrl": "urn:uuid:c85c4ad1-eb17-4d96-956a-a28831016fa7",
      "resource": {
        "resourceType": "Observation",
        "id": "c85c4ad1-eb17-4d96-956a-a28831016fa7",
        "meta": {
          "profile": [
            "http://hl7.eu/fhir/laboratory/StructureDefinition/Observation-resultslab-eu-lab"
          ]
        },
        "performer": [
          {
            "display": "The Central European Lab"
          }
        ],
        "category": [
          {
            "coding": [
              {
                "system": "http://terminology.hl7.org/CodeSystem/observation-category",
                "code": "laboratory"
              }
            ]
          }
        ],
        "code": {
          "coding": [
            {
              "code": "5792-7",
              "system": "http://loinc.org",
              "display": "Glucose [Mass/volume] in Urine by Test strip"
            }
          ],
          "text": "Glucose [Mass/volume] in Urine by Test strip"
        },
        "valueQuantity": {
          "system": "http://unitsofmeasure.org",
          "value": 0.8,
          "unit": "mg/dL",
          "code": "mg/dL"
        },
        "referenceRange": [
          {
            "low": {
              "value": 0,
              "code": "mg/dL",
              "system": "http://unitsofmeasure.org"
            }
          },
          {
            "high": {
              "value": 0.8,
              "code": "mg/dL",
              "system": "http://unitsofmeasure.org"
            }
          }
        ],
        "text": {
          "status": "generated",
          "div": "<div xmlns=\"http://www.w3.org/1999/xhtml\"><table class=\"hl7__eu__lab__report\"><tr><th>Test</th><th>06-Oct-2021</th><th>Reference&#xA0;Range</th><th>Unit</th></tr><tr><td>Glucose [Mass/volume] in Urine by Test strip</td><td>0.8</td><td>0 - 0.8</td><td></td><td>mg/dL</td></tr></table></div>"
        },
        "status": "final",
        "subject": {
          "reference": "urn:uuid:e1ed303e-76f5-474a-a56f-b996c4a12699",
          "display": "Θεμιστοκλής Λιναρδάκη"
        },
        "effectiveDateTime": "2021-10-06T06:16:00Z",
        "specimen": {
          "reference": "urn:uuid:d8590293-4f27-4712-b317-b4cbfef27a10"
        }
      }
    },
    {
      "fullUrl": "urn:uuid:1b040139-c06e-44f9-83aa-173cbba3c538",
      "resource": {
        "resourceType": "Observation",
        "id": "1b040139-c06e-44f9-83aa-173cbba3c538",
        "meta": {
          "profile": [
            "http://hl7.eu/fhir/laboratory/StructureDefinition/Observation-resultslab-eu-lab"
          ]
        },
        "performer": [
          {
            "display": "The Central European Lab"
          }
        ],
        "category": [
          {
            "coding": [
              {
                "system": "http://terminology.hl7.org/CodeSystem/observation-category",
                "code": "laboratory"
              }
            ]
          }
        ],
        "code": {
          "coding": [
            {
              "code": "25428-4",
              "system": "http://loinc.org",
              "display": "Glucose [Presence] in Urine by Test strip"
            }
          ],
          "text": "Glucose [Presence] in Urine by Test strip"
        },
        "text": {
          "status": "generated",
          "div": "<div xmlns=\"http://www.w3.org/1999/xhtml\"><table class=\"hl7__eu__lab__report\"><tr><th>Test</th><th>06-Oct-2021</th><th>Reference&#xA0;Range</th><th>Unit</th></tr><tr><td>Glucose [Presence] in Urine by Test strip</td></tr></table></div>"
        },
        "status": "final",
        "subject": {
          "reference": "urn:uuid:e1ed303e-76f5-474a-a56f-b996c4a12699",
          "display": "Θεμιστοκλής Λιναρδάκη"
        },
        "effectiveDateTime": "2021-10-06T06:16:00Z",
        "specimen": {
          "reference": "urn:uuid:d8590293-4f27-4712-b317-b4cbfef27a10"
        }
      }
    },
    {
      "fullUrl": "urn:uuid:562e3654-806a-4d1b-ba95-690adea22301",
      "resource": {
        "resourceType": "Observation",
        "id": "562e3654-806a-4d1b-ba95-690adea22301",
        "meta": {
          "profile": [
            "http://hl7.eu/fhir/laboratory/StructureDefinition/Observation-resultslab-eu-lab"
          ]
        },
        "performer": [
          {
            "display": "The Central European Lab"
          }
        ],
        "category": [
          {
            "coding": [
              {
                "system": "http://terminology.hl7.org/CodeSystem/observation-category",
                "code": "laboratory"
              }
            ]
          }
        ],
        "code": {
          "coding": [
            {
              "code": "20505-4",
              "system": "http://loinc.org",
              "display": "Bilirubin.total [Mass/volume] in Urine by Test strip"
            }
          ],
          "text": "Bilirubin.total [Mass/volume] in Urine by Test strip"
        },
        "valueQuantity": {
          "system": "http://unitsofmeasure.org",
          "value": 0.7,
          "unit": "mg/dL",
          "code": "mg/dL"
        },
        "referenceRange": [
          {
            "low": {
              "value": 0.2,
              "code": "mg/dL",
              "system": "http://unitsofmeasure.org"
            }
          },
          {
            "high": {
              "value": 1,
              "code": "mg/dL",
              "system": "http://unitsofmeasure.org"
            }
          }
        ],
        "text": {
          "status": "generated",
          "div": "<div xmlns=\"http://www.w3.org/1999/xhtml\"><table class=\"hl7__eu__lab__report\"><tr><th>Test</th><th>06-Oct-2021</th><th>Reference&#xA0;Range</th><th>Unit</th></tr><tr><td>Bilirubin.total [Mass/volume] in Urine by Test strip</td><td>0.7</td><td>0.2 - 1</td><td></td><td>mg/dL</td></tr></table></div>"
        },
        "status": "final",
        "subject": {
          "reference": "urn:uuid:e1ed303e-76f5-474a-a56f-b996c4a12699",
          "display": "Θεμιστοκλής Λιναρδάκη"
        },
        "effectiveDateTime": "2021-10-06T06:16:00Z",
        "specimen": {
          "reference": "urn:uuid:d8590293-4f27-4712-b317-b4cbfef27a10"
        }
      }
    },
    {
      "fullUrl": "urn:uuid:695b3f4f-1648-43a0-92e0-84edc9732b48",
      "resource": {
        "resourceType": "Observation",
        "id": "695b3f4f-1648-43a0-92e0-84edc9732b48",
        "meta": {
          "profile": [
            "http://hl7.eu/fhir/laboratory/StructureDefinition/Observation-resultslab-eu-lab"
          ]
        },
        "performer": [
          {
            "display": "The Central European Lab"
          }
        ],
        "category": [
          {
            "coding": [
              {
                "system": "http://terminology.hl7.org/CodeSystem/observation-category",
                "code": "laboratory"
              }
            ]
          }
        ],
        "code": {
          "coding": [
            {
              "code": "5770-3",
              "system": "http://loinc.org",
              "display": "Bilirubin.total [Presence] in Urine by Test strip"
            }
          ],
          "text": "Bilirubin.total [Presence] in Urine by Test strip"
        },
        "text": {
          "status": "generated",
          "div": "<div xmlns=\"http://www.w3.org/1999/xhtml\"><table class=\"hl7__eu__lab__report\"><tr><th>Test</th><th>06-Oct-2021</th><th>Reference&#xA0;Range</th><th>Unit</th></tr><tr><td>Bilirubin.total [Presence] in Urine by Test strip</td></tr></table></div>"
        },
        "status": "final",
        "subject": {
          "reference": "urn:uuid:e1ed303e-76f5-474a-a56f-b996c4a12699",
          "display": "Θεμιστοκλής Λιναρδάκη"
        },
        "effectiveDateTime": "2021-10-06T06:16:00Z",
        "specimen": {
          "reference": "urn:uuid:d8590293-4f27-4712-b317-b4cbfef27a10"
        }
      }
    },
    {
      "fullUrl": "urn:uuid:a6d534ab-499c-449e-91a4-ac7df75b5186",
      "resource": {
        "resourceType": "Observation",
        "id": "a6d534ab-499c-449e-91a4-ac7df75b5186",
        "meta": {
          "profile": [
            "http://hl7.eu/fhir/laboratory/StructureDefinition/Observation-resultslab-eu-lab"
          ]
        },
        "performer": [
          {
            "display": "The Central European Lab"
          }
        ],
        "category": [
          {
            "coding": [
              {
                "system": "http://terminology.hl7.org/CodeSystem/observation-category",
                "code": "laboratory"
              }
            ]
          }
        ],
        "code": {
          "coding": [
            {
              "code": "5797-6",
              "system": "http://loinc.org",
              "display": "Ketones [Mass/volume] in Urine by Test strip"
            }
          ],
          "text": "Ketones [Mass/volume] in Urine by Test strip"
        },
        "valueQuantity": {
          "system": "http://unitsofmeasure.org",
          "value": 4.9,
          "unit": "mg/dL",
          "code": "mg/dL"
        },
        "referenceRange": [
          {
            "low": {
              "value": 0,
              "code": "mg/dL",
              "system": "http://unitsofmeasure.org"
            }
          },
          {
            "high": {
              "value": 5,
              "code": "mg/dL",
              "system": "http://unitsofmeasure.org"
            }
          }
        ],
        "text": {
          "status": "generated",
          "div": "<div xmlns=\"http://www.w3.org/1999/xhtml\"><table class=\"hl7__eu__lab__report\"><tr><th>Test</th><th>06-Oct-2021</th><th>Reference&#xA0;Range</th><th>Unit</th></tr><tr><td>Ketones [Mass/volume] in Urine by Test strip</td><td>4.9</td><td>0 - 5</td><td></td><td>mg/dL</td></tr></table></div>"
        },
        "status": "final",
        "subject": {
          "reference": "urn:uuid:e1ed303e-76f5-474a-a56f-b996c4a12699",
          "display": "Θεμιστοκλής Λιναρδάκη"
        },
        "effectiveDateTime": "2021-10-06T06:16:00Z",
        "specimen": {
          "reference": "urn:uuid:d8590293-4f27-4712-b317-b4cbfef27a10"
        }
      }
    },
    {
      "fullUrl": "urn:uuid:3f034d45-9a18-4dee-b71e-d26b6d356d31",
      "resource": {
        "resourceType": "Observation",
        "id": "3f034d45-9a18-4dee-b71e-d26b6d356d31",
        "meta": {
          "profile": [
            "http://hl7.eu/fhir/laboratory/StructureDefinition/Observation-resultslab-eu-lab"
          ]
        },
        "performer": [
          {
            "display": "The Central European Lab"
          }
        ],
        "category": [
          {
            "coding": [
              {
                "system": "http://terminology.hl7.org/CodeSystem/observation-category",
                "code": "laboratory"
              }
            ]
          }
        ],
        "code": {
          "coding": [
            {
              "code": "2514-8",
              "system": "http://loinc.org",
              "display": "Ketones [Presence] in Urine by Test strip"
            }
          ],
          "text": "Ketones [Presence] in Urine by Test strip"
        },
        "text": {
          "status": "generated",
          "div": "<div xmlns=\"http://www.w3.org/1999/xhtml\"><table class=\"hl7__eu__lab__report\"><tr><th>Test</th><th>06-Oct-2021</th><th>Reference&#xA0;Range</th><th>Unit</th></tr><tr><td>Ketones [Presence] in Urine by Test strip</td></tr></table></div>"
        },
        "status": "final",
        "subject": {
          "reference": "urn:uuid:e1ed303e-76f5-474a-a56f-b996c4a12699",
          "display": "Θεμιστοκλής Λιναρδάκη"
        },
        "effectiveDateTime": "2021-10-06T06:16:00Z",
        "specimen": {
          "reference": "urn:uuid:d8590293-4f27-4712-b317-b4cbfef27a10"
        }
      }
    },
    {
      "fullUrl": "urn:uuid:49e88da2-bea5-4e96-b3b5-20a77416bced",
      "resource": {
        "resourceType": "Observation",
        "id": "49e88da2-bea5-4e96-b3b5-20a77416bced",
        "meta": {
          "profile": [
            "http://hl7.eu/fhir/laboratory/StructureDefinition/Observation-resultslab-eu-lab"
          ]
        },
        "performer": [
          {
            "display": "The Central European Lab"
          }
        ],
        "category": [
          {
            "coding": [
              {
                "system": "http://terminology.hl7.org/CodeSystem/observation-category",
                "code": "laboratory"
              }
            ]
          }
        ],
        "code": {
          "coding": [
            {
              "code": "5811-5",
              "system": "http://loinc.org",
              "display": "Specific gravity of Urine by Test strip"
            }
          ],
          "text": "Specific gravity of Urine by Test strip"
        },
        "valueQuantity": {
          "system": "http://unitsofmeasure.org",
          "value": 1,
          "unit": "{nominal}",
          "code": "{nominal}"
        },
        "referenceRange": [
          {
            "low": {
              "value": 1.005,
              "code": "g/mL",
              "system": "http://unitsofmeasure.org"
            }
          },
          {
            "high": {
              "value": 1.03,
              "code": "g/mL",
              "system": "http://unitsofmeasure.org"
            }
          }
        ],
        "interpretation": [
          {
            "coding": [
              {
                "code": "L",
                "system": "http://terminology.hl7.org/CodeSystem/v3-ObservationInterpretation",
                "display": "Low"
              }
            ]
          }
        ],
        "text": {
          "status": "generated",
          "div": "<div xmlns=\"http://www.w3.org/1999/xhtml\"><table class=\"hl7__eu__lab__report\"><tr><th>Test</th><th>06-Oct-2021</th><th>Reference&#xA0;Range</th><th>Unit</th></tr><tr><td>Specific gravity of Urine by Test strip</td><td>1.0</td><td>1.005 - 1.03</td><td>L</td><td>{nominal}</td></tr></table></div>"
        },
        "status": "final",
        "subject": {
          "reference": "urn:uuid:e1ed303e-76f5-474a-a56f-b996c4a12699",
          "display": "Θεμιστοκλής Λιναρδάκη"
        },
        "effectiveDateTime": "2021-10-06T06:16:00Z",
        "specimen": {
          "reference": "urn:uuid:d8590293-4f27-4712-b317-b4cbfef27a10"
        }
      }
    },
    {
      "fullUrl": "urn:uuid:013726a8-3b66-445a-a34b-b2f6246f06b3",
      "resource": {
        "resourceType": "Observation",
        "id": "013726a8-3b66-445a-a34b-b2f6246f06b3",
        "meta": {
          "profile": [
            "http://hl7.eu/fhir/laboratory/StructureDefinition/Observation-resultslab-eu-lab"
          ]
        },
        "performer": [
          {
            "display": "The Central European Lab"
          }
        ],
        "category": [
          {
            "coding": [
              {
                "system": "http://terminology.hl7.org/CodeSystem/observation-category",
                "code": "laboratory"
              }
            ]
          }
        ],
        "code": {
          "coding": [
            {
              "code": "5803-2",
              "system": "http://loinc.org",
              "display": "pH of Urine by Test strip"
            }
          ],
          "text": "pH of Urine by Test strip"
        },
        "valueQuantity": {
          "system": "http://unitsofmeasure.org",
          "value": 6.1,
          "unit": "pH",
          "code": "pH"
        },
        "referenceRange": [
          {
            "low": {
              "value": 4.6,
              "code": "pH",
              "system": "http://unitsofmeasure.org"
            }
          },
          {
            "high": {
              "value": 7,
              "code": "pH",
              "system": "http://unitsofmeasure.org"
            }
          }
        ],
        "text": {
          "status": "generated",
          "div": "<div xmlns=\"http://www.w3.org/1999/xhtml\"><table class=\"hl7__eu__lab__report\"><tr><th>Test</th><th>06-Oct-2021</th><th>Reference&#xA0;Range</th><th>Unit</th></tr><tr><td>pH of Urine by Test strip</td><td>6.1</td><td>4.6 - 7</td><td></td><td>pH</td></tr></table></div>"
        },
        "status": "final",
        "subject": {
          "reference": "urn:uuid:e1ed303e-76f5-474a-a56f-b996c4a12699",
          "display": "Θεμιστοκλής Λιναρδάκη"
        },
        "effectiveDateTime": "2021-10-06T06:16:00Z",
        "specimen": {
          "reference": "urn:uuid:d8590293-4f27-4712-b317-b4cbfef27a10"
        }
      }
    },
    {
      "fullUrl": "urn:uuid:fe266217-e487-46f9-8f89-94c4b9380491",
      "resource": {
        "resourceType": "Observation",
        "id": "fe266217-e487-46f9-8f89-94c4b9380491",
        "meta": {
          "profile": [
            "http://hl7.eu/fhir/laboratory/StructureDefinition/Observation-resultslab-eu-lab"
          ]
        },
        "performer": [
          {
            "display": "The Central European Lab"
          }
        ],
        "category": [
          {
            "coding": [
              {
                "system": "http://terminology.hl7.org/CodeSystem/observation-category",
                "code": "laboratory"
              }
            ]
          }
        ],
        "code": {
          "coding": [
            {
              "code": "5804-0",
              "system": "http://loinc.org",
              "display": "Protein [Mass/volume] in Urine by Test strip"
            }
          ],
          "text": "Protein [Mass/volume] in Urine by Test strip"
        },
        "valueQuantity": {
          "system": "http://unitsofmeasure.org",
          "value": 266.5,
          "unit": "mg/dL",
          "code": "mg/dL"
        },
        "referenceRange": [
          {
            "low": {
              "value": 0,
              "code": "mg/dL",
              "system": "http://unitsofmeasure.org"
            }
          },
          {
            "high": {
              "value": 150,
              "code": "mg/dL",
              "system": "http://unitsofmeasure.org"
            }
          }
        ],
        "interpretation": [
          {
            "coding": [
              {
                "code": "H",
                "system": "http://terminology.hl7.org/CodeSystem/v3-ObservationInterpretation",
                "display": "High"
              }
            ]
          }
        ],
        "text": {
          "status": "generated",
          "div": "<div xmlns=\"http://www.w3.org/1999/xhtml\"><table class=\"hl7__eu__lab__report\"><tr><th>Test</th><th>06-Oct-2021</th><th>Reference&#xA0;Range</th><th>Unit</th></tr><tr><td>Protein [Mass/volume] in Urine by Test strip</td><td>266.5</td><td>0 - 150</td><td>H</td><td>mg/dL</td></tr></table></div>"
        },
        "status": "final",
        "subject": {
          "reference": "urn:uuid:e1ed303e-76f5-474a-a56f-b996c4a12699",
          "display": "Θεμιστοκλής Λιναρδάκη"
        },
        "effectiveDateTime": "2021-10-06T06:16:00Z",
        "specimen": {
          "reference": "urn:uuid:d8590293-4f27-4712-b317-b4cbfef27a10"
        }
      }
    },
    {
      "fullUrl": "urn:uuid:f9d9796f-6434-4c79-ad16-2af4ccc526cf",
      "resource": {
        "resourceType": "Observation",
        "id": "f9d9796f-6434-4c79-ad16-2af4ccc526cf",
        "meta": {
          "profile": [
            "http://hl7.eu/fhir/laboratory/StructureDefinition/Observation-resultslab-eu-lab"
          ]
        },
        "performer": [
          {
            "display": "The Central European Lab"
          }
        ],
        "category": [
          {
            "coding": [
              {
                "system": "http://terminology.hl7.org/CodeSystem/observation-category",
                "code": "laboratory"
              }
            ]
          }
        ],
        "code": {
          "coding": [
            {
              "code": "20454-5",
              "system": "http://loinc.org",
              "display": "Protein [Presence] in Urine by Test strip"
            }
          ],
          "text": "Protein [Presence] in Urine by Test strip"
        },
        "text": {
          "status": "generated",
          "div": "<div xmlns=\"http://www.w3.org/1999/xhtml\"><table class=\"hl7__eu__lab__report\"><tr><th>Test</th><th>06-Oct-2021</th><th>Reference&#xA0;Range</th><th>Unit</th></tr><tr><td>Protein [Presence] in Urine by Test strip</td></tr></table></div>"
        },
        "status": "final",
        "subject": {
          "reference": "urn:uuid:e1ed303e-76f5-474a-a56f-b996c4a12699",
          "display": "Θεμιστοκλής Λιναρδάκη"
        },
        "effectiveDateTime": "2021-10-06T06:16:00Z",
        "specimen": {
          "reference": "urn:uuid:d8590293-4f27-4712-b317-b4cbfef27a10"
        }
      }
    },
    {
      "fullUrl": "urn:uuid:c3c202e3-4834-4a0d-84d6-41b069646595",
      "resource": {
        "resourceType": "Observation",
        "id": "c3c202e3-4834-4a0d-84d6-41b069646595",
        "meta": {
          "profile": [
            "http://hl7.eu/fhir/laboratory/StructureDefinition/Observation-resultslab-eu-lab"
          ]
        },
        "performer": [
          {
            "display": "The Central European Lab"
          }
        ],
        "category": [
          {
            "coding": [
              {
                "system": "http://terminology.hl7.org/CodeSystem/observation-category",
                "code": "laboratory"
              }
            ]
          }
        ],
        "code": {
          "coding": [
            {
              "code": "5802-4",
              "system": "http://loinc.org",
              "display": "Nitrite [Presence] in Urine by Test strip"
            }
          ],
          "text": "Nitrite [Presence] in Urine by Test strip"
        },
        "text": {
          "status": "generated",
          "div": "<div xmlns=\"http://www.w3.org/1999/xhtml\"><table class=\"hl7__eu__lab__report\"><tr><th>Test</th><th>06-Oct-2021</th><th>Reference&#xA0;Range</th><th>Unit</th></tr><tr><td>Nitrite [Presence] in Urine by Test strip</td></tr></table></div>"
        },
        "status": "final",
        "subject": {
          "reference": "urn:uuid:e1ed303e-76f5-474a-a56f-b996c4a12699",
          "display": "Θεμιστοκλής Λιναρδάκη"
        },
        "effectiveDateTime": "2021-10-06T06:16:00Z",
        "specimen": {
          "reference": "urn:uuid:d8590293-4f27-4712-b317-b4cbfef27a10"
        }
      }
    },
    {
      "fullUrl": "urn:uuid:1929259a-0452-4065-a3a9-79967505b202",
      "resource": {
        "resourceType": "Observation",
        "id": "1929259a-0452-4065-a3a9-79967505b202",
        "meta": {
          "profile": [
            "http://hl7.eu/fhir/laboratory/StructureDefinition/Observation-resultslab-eu-lab"
          ]
        },
        "performer": [
          {
            "display": "The Central European Lab"
          }
        ],
        "category": [
          {
            "coding": [
              {
                "system": "http://terminology.hl7.org/CodeSystem/observation-category",
                "code": "laboratory"
              }
            ]
          }
        ],
        "code": {
          "coding": [
            {
              "code": "5794-3",
              "system": "http://loinc.org",
              "display": "Hemoglobin [Presence] in Urine by Test strip"
            }
          ],
          "text": "Hemoglobin [Presence] in Urine by Test strip"
        },
        "text": {
          "status": "generated",
          "div": "<div xmlns=\"http://www.w3.org/1999/xhtml\"><table class=\"hl7__eu__lab__report\"><tr><th>Test</th><th>06-Oct-2021</th><th>Reference&#xA0;Range</th><th>Unit</th></tr><tr><td>Hemoglobin [Presence] in Urine by Test strip</td></tr></table></div>"
        },
        "status": "final",
        "subject": {
          "reference": "urn:uuid:e1ed303e-76f5-474a-a56f-b996c4a12699",
          "display": "Θεμιστοκλής Λιναρδάκη"
        },
        "effectiveDateTime": "2021-10-06T06:16:00Z",
        "specimen": {
          "reference": "urn:uuid:d8590293-4f27-4712-b317-b4cbfef27a10"
        }
      }
    },
    {
      "fullUrl": "urn:uuid:fb90b0e9-5bb1-402a-a357-caf4dcc30c99",
      "resource": {
        "resourceType": "Observation",
        "id": "fb90b0e9-5bb1-402a-a357-caf4dcc30c99",
        "meta": {
          "profile": [
            "http://hl7.eu/fhir/laboratory/StructureDefinition/Observation-resultslab-eu-lab"
          ]
        },
        "performer": [
          {
            "display": "The Central European Lab"
          }
        ],
        "category": [
          {
            "coding": [
              {
                "system": "http://terminology.hl7.org/CodeSystem/observation-category",
                "code": "laboratory"
              }
            ]
          }
        ],
        "code": {
          "coding": [
            {
              "code": "5799-2",
              "system": "http://loinc.org",
              "display": "Leukocyte esterase [Presence] in Urine by Test strip"
            }
          ],
          "text": "Leukocyte esterase [Presence] in Urine by Test strip"
        },
        "text": {
          "status": "generated",
          "div": "<div xmlns=\"http://www.w3.org/1999/xhtml\"><table class=\"hl7__eu__lab__report\"><tr><th>Test</th><th>06-Oct-2021</th><th>Reference&#xA0;Range</th><th>Unit</th></tr><tr><td>Leukocyte esterase [Presence] in Urine by Test strip</td></tr></table></div>"
        },
        "status": "final",
        "subject": {
          "reference": "urn:uuid:e1ed303e-76f5-474a-a56f-b996c4a12699",
          "display": "Θεμιστοκλής Λιναρδάκη"
        },
        "effectiveDateTime": "2021-10-06T06:16:00Z",
        "specimen": {
          "reference": "urn:uuid:d8590293-4f27-4712-b317-b4cbfef27a10"
        }
      }
    },
    {
      "fullUrl": "urn:uuid:a25688a1-b405-4f2a-92d8-8fbcabf2298f",
      "resource": {
        "resourceType": "Observation",
        "id": "a25688a1-b405-4f2a-92d8-8fbcabf2298f",
        "meta": {
          "profile": [
            "http://hl7.eu/fhir/laboratory/StructureDefinition/Observation-resultslab-eu-lab"
          ]
        },
        "performer": [
          {
            "display": "The Central European Lab"
          }
        ],
        "category": [
          {
            "coding": [
              {
                "system": "http://terminology.hl7.org/CodeSystem/observation-category",
                "code": "laboratory"
              }
            ]
          }
        ],
        "code": {
          "coding": [
            {
              "code": "4548-4",
              "system": "http://loinc.org",
              "display": "Hemoglobin A1c/Hemoglobin.total in Blood"
            }
          ],
          "text": "Hemoglobin A1c/Hemoglobin.total in Blood"
        },
        "valueQuantity": {
          "system": "http://unitsofmeasure.org",
          "value": 3.1,
          "unit": "%",
          "code": "%"
        },
        "referenceRange": [
          {
            "low": {
              "value": 4.3,
              "code": "%",
              "system": "http://unitsofmeasure.org"
            }
          },
          {
            "high": {
              "value": 6.4,
              "code": "%",
              "system": "http://unitsofmeasure.org"
            }
          }
        ],
        "interpretation": [
          {
            "coding": [
              {
                "code": "L",
                "system": "http://terminology.hl7.org/CodeSystem/v3-ObservationInterpretation",
                "display": "Low"
              }
            ]
          }
        ],
        "text": {
          "status": "generated",
          "div": "<div xmlns=\"http://www.w3.org/1999/xhtml\"><table class=\"hl7__eu__lab__report\"><tr><th>Test</th><th>06-Oct-2021</th><th>Reference&#xA0;Range</th><th>Unit</th></tr><tr><td>Hemoglobin A1c/Hemoglobin.total in Blood</td><td>3.1</td><td>4.3 - 6.4</td><td>L</td><td>%</td></tr></table></div>"
        },
        "status": "final",
        "subject": {
          "reference": "urn:uuid:e1ed303e-76f5-474a-a56f-b996c4a12699",
          "display": "Θεμιστοκλής Λιναρδάκη"
        },
        "effectiveDateTime": "2021-10-06T06:16:00Z",
        "specimen": {
          "reference": "urn:uuid:a8f567a4-3ba7-404d-8ac3-d6c5a083c47f"
        }
      }
    },
    {
      "fullUrl": "urn:uuid:04f2399f-fbb8-4cf7-8945-e341035f6fdf",
      "resource": {
        "resourceType": "Observation",
        "id": "04f2399f-fbb8-4cf7-8945-e341035f6fdf",
        "meta": {
          "profile": [
            "http://hl7.eu/fhir/laboratory/StructureDefinition/Observation-resultslab-eu-lab"
          ]
        },
        "performer": [
          {
            "display": "The Central European Lab"
          }
        ],
        "category": [
          {
            "coding": [
              {
                "system": "http://terminology.hl7.org/CodeSystem/observation-category",
                "code": "laboratory"
              }
            ]
          }
        ],
        "code": {
          "coding": [
            {
              "code": "2339-0",
              "system": "http://loinc.org",
              "display": "Glucose [Mass/volume] in Blood"
            }
          ],
          "text": "Glucose [Mass/volume] in Blood"
        },
        "valueQuantity": {
          "system": "http://unitsofmeasure.org",
          "value": 69.5,
          "unit": "mg/dL",
          "code": "mg/dL"
        },
        "referenceRange": [
          {
            "low": {
              "value": 70,
              "code": "mg/dL",
              "system": "http://unitsofmeasure.org"
            }
          },
          {
            "high": {
              "value": 140,
              "code": "mg/dL",
              "system": "http://unitsofmeasure.org"
            }
          }
        ],
        "interpretation": [
          {
            "coding": [
              {
                "code": "L",
                "system": "http://terminology.hl7.org/CodeSystem/v3-ObservationInterpretation",
                "display": "Low"
              }
            ]
          }
        ],
        "text": {
          "status": "generated",
          "div": "<div xmlns=\"http://www.w3.org/1999/xhtml\"><table class=\"hl7__eu__lab__report\"><tr><th>Test</th><th>06-Oct-2021</th><th>Reference&#xA0;Range</th><th>Unit</th></tr><tr><td>Glucose [Mass/volume] in Blood</td><td>69.5</td><td>70 - 140</td><td>L</td><td>mg/dL</td></tr></table></div>"
        },
        "status": "final",
        "subject": {
          "reference": "urn:uuid:e1ed303e-76f5-474a-a56f-b996c4a12699",
          "display": "Θεμιστοκλής Λιναρδάκη"
        },
        "effectiveDateTime": "2021-10-06T06:16:00Z",
        "specimen": {
          "reference": "urn:uuid:a8f567a4-3ba7-404d-8ac3-d6c5a083c47f"
        }
      }
    },
    {
      "fullUrl": "urn:uuid:a7fdf340-beaa-4b78-9991-963f4d158a25",
      "resource": {
        "resourceType": "Observation",
        "id": "a7fdf340-beaa-4b78-9991-963f4d158a25",
        "meta": {
          "profile": [
            "http://hl7.eu/fhir/laboratory/StructureDefinition/Observation-resultslab-eu-lab"
          ]
        },
        "performer": [
          {
            "display": "The Central European Lab"
          }
        ],
        "category": [
          {
            "coding": [
              {
                "system": "http://terminology.hl7.org/CodeSystem/observation-category",
                "code": "laboratory"
              }
            ]
          }
        ],
        "code": {
          "coding": [
            {
              "code": "6299-2",
              "system": "http://loinc.org",
              "display": "Urea nitrogen [Mass/volume] in Blood"
            }
          ],
          "text": "Urea nitrogen [Mass/volume] in Blood"
        },
        "valueQuantity": {
          "system": "http://unitsofmeasure.org",
          "value": 8.6,
          "unit": "mg/dL",
          "code": "mg/dL"
        },
        "referenceRange": [
          {
            "low": {
              "value": 7,
              "code": "mg/dL",
              "system": "http://unitsofmeasure.org"
            }
          },
          {
            "high": {
              "value": 20,
              "code": "mg/dL",
              "system": "http://unitsofmeasure.org"
            }
          }
        ],
        "text": {
          "status": "generated",
          "div": "<div xmlns=\"http://www.w3.org/1999/xhtml\"><table class=\"hl7__eu__lab__report\"><tr><th>Test</th><th>06-Oct-2021</th><th>Reference&#xA0;Range</th><th>Unit</th></tr><tr><td>Urea nitrogen [Mass/volume] in Blood</td><td>8.6</td><td>7 - 20</td><td></td><td>mg/dL</td></tr></table></div>"
        },
        "status": "final",
        "subject": {
          "reference": "urn:uuid:e1ed303e-76f5-474a-a56f-b996c4a12699",
          "display": "Θεμιστοκλής Λιναρδάκη"
        },
        "effectiveDateTime": "2021-10-06T06:16:00Z",
        "specimen": {
          "reference": "urn:uuid:a8f567a4-3ba7-404d-8ac3-d6c5a083c47f"
        }
      }
    },
    {
      "fullUrl": "urn:uuid:f6d2d347-4c8d-4305-bd2e-396d5292bef5",
      "resource": {
        "resourceType": "Observation",
        "id": "f6d2d347-4c8d-4305-bd2e-396d5292bef5",
        "meta": {
          "profile": [
            "http://hl7.eu/fhir/laboratory/StructureDefinition/Observation-resultslab-eu-lab"
          ]
        },
        "performer": [
          {
            "display": "The Central European Lab"
          }
        ],
        "category": [
          {
            "coding": [
              {
                "system": "http://terminology.hl7.org/CodeSystem/observation-category",
                "code": "laboratory"
              }
            ]
          }
        ],
        "code": {
          "coding": [
            {
              "code": "38483-4",
              "system": "http://loinc.org",
              "display": "Creatinine [Mass/volume] in Blood"
            }
          ],
          "text": "Creatinine [Mass/volume] in Blood"
        },
        "valueQuantity": {
          "system": "http://unitsofmeasure.org",
          "value": 6.1,
          "unit": "mg/dL",
          "code": "mg/dL"
        },
        "referenceRange": [
          {
            "low": {
              "value": 0.6,
              "code": "mg/dL",
              "system": "http://unitsofmeasure.org"
            }
          },
          {
            "high": {
              "value": 1.3,
              "code": "mg/dL",
              "system": "http://unitsofmeasure.org"
            }
          }
        ],
        "interpretation": [
          {
            "coding": [
              {
                "code": "H",
                "system": "http://terminology.hl7.org/CodeSystem/v3-ObservationInterpretation",
                "display": "High"
              }
            ]
          }
        ],
        "text": {
          "status": "generated",
          "div": "<div xmlns=\"http://www.w3.org/1999/xhtml\"><table class=\"hl7__eu__lab__report\"><tr><th>Test</th><th>06-Oct-2021</th><th>Reference&#xA0;Range</th><th>Unit</th></tr><tr><td>Creatinine [Mass/volume] in Blood</td><td>6.1</td><td>0.6 - 1.3</td><td>H</td><td>mg/dL</td></tr></table></div>"
        },
        "status": "final",
        "subject": {
          "reference": "urn:uuid:e1ed303e-76f5-474a-a56f-b996c4a12699",
          "display": "Θεμιστοκλής Λιναρδάκη"
        },
        "effectiveDateTime": "2021-10-06T06:16:00Z",
        "specimen": {
          "reference": "urn:uuid:a8f567a4-3ba7-404d-8ac3-d6c5a083c47f"
        }
      }
    },
    {
      "fullUrl": "urn:uuid:449ec827-d445-4d8b-a72e-588087ff144b",
      "resource": {
        "resourceType": "Observation",
        "id": "449ec827-d445-4d8b-a72e-588087ff144b",
        "meta": {
          "profile": [
            "http://hl7.eu/fhir/laboratory/StructureDefinition/Observation-resultslab-eu-lab"
          ]
        },
        "performer": [
          {
            "display": "The Central European Lab"
          }
        ],
        "category": [
          {
            "coding": [
              {
                "system": "http://terminology.hl7.org/CodeSystem/observation-category",
                "code": "laboratory"
              }
            ]
          }
        ],
        "code": {
          "coding": [
            {
              "code": "49765-1",
              "system": "http://loinc.org",
              "display": "Calcium [Mass/volume] in Blood"
            }
          ],
          "text": "Calcium [Mass/volume] in Blood"
        },
        "valueQuantity": {
          "system": "http://unitsofmeasure.org",
          "value": 9.4,
          "unit": "mg/dL",
          "code": "mg/dL"
        },
        "referenceRange": [
          {
            "low": {
              "value": 8.5,
              "code": "mg/dL",
              "system": "http://unitsofmeasure.org"
            }
          },
          {
            "high": {
              "value": 10.5,
              "code": "mg/dL",
              "system": "http://unitsofmeasure.org"
            }
          }
        ],
        "text": {
          "status": "generated",
          "div": "<div xmlns=\"http://www.w3.org/1999/xhtml\"><table class=\"hl7__eu__lab__report\"><tr><th>Test</th><th>06-Oct-2021</th><th>Reference&#xA0;Range</th><th>Unit</th></tr><tr><td>Calcium [Mass/volume] in Blood</td><td>9.4</td><td>8.5 - 10.5</td><td></td><td>mg/dL</td></tr></table></div>"
        },
        "status": "final",
        "subject": {
          "reference": "urn:uuid:e1ed303e-76f5-474a-a56f-b996c4a12699",
          "display": "Θεμιστοκλής Λιναρδάκη"
        },
        "effectiveDateTime": "2021-10-06T06:16:00Z",
        "specimen": {
          "reference": "urn:uuid:a8f567a4-3ba7-404d-8ac3-d6c5a083c47f"
        }
      }
    },
    {
      "fullUrl": "urn:uuid:61b58ec6-12fb-4b32-ab6a-0440e9adc646",
      "resource": {
        "resourceType": "Observation",
        "id": "61b58ec6-12fb-4b32-ab6a-0440e9adc646",
        "meta": {
          "profile": [
            "http://hl7.eu/fhir/laboratory/StructureDefinition/Observation-resultslab-eu-lab"
          ]
        },
        "performer": [
          {
            "display": "The Central European Lab"
          }
        ],
        "category": [
          {
            "coding": [
              {
                "system": "http://terminology.hl7.org/CodeSystem/observation-category",
                "code": "laboratory"
              }
            ]
          }
        ],
        "code": {
          "coding": [
            {
              "code": "2947-0",
              "system": "http://loinc.org",
              "display": "Sodium [Moles/volume] in Blood"
            }
          ],
          "text": "Sodium [Moles/volume] in Blood"
        },
        "valueQuantity": {
          "system": "http://unitsofmeasure.org",
          "value": 136.5,
          "unit": "mmol/L",
          "code": "mmol/L"
        },
        "referenceRange": [
          {
            "low": {
              "value": 135,
              "code": "mmol/L",
              "system": "http://unitsofmeasure.org"
            }
          },
          {
            "high": {
              "value": 145,
              "code": "mmol/L",
              "system": "http://unitsofmeasure.org"
            }
          }
        ],
        "text": {
          "status": "generated",
          "div": "<div xmlns=\"http://www.w3.org/1999/xhtml\"><table class=\"hl7__eu__lab__report\"><tr><th>Test</th><th>06-Oct-2021</th><th>Reference&#xA0;Range</th><th>Unit</th></tr><tr><td>Sodium [Moles/volume] in Blood</td><td>136.5</td><td>135 - 145</td><td></td><td>mmol/L</td></tr></table></div>"
        },
        "status": "final",
        "subject": {
          "reference": "urn:uuid:e1ed303e-76f5-474a-a56f-b996c4a12699",
          "display": "Θεμιστοκλής Λιναρδάκη"
        },
        "effectiveDateTime": "2021-10-06T06:16:00Z",
        "specimen": {
          "reference": "urn:uuid:a8f567a4-3ba7-404d-8ac3-d6c5a083c47f"
        }
      }
    },
    {
      "fullUrl": "urn:uuid:713aab6b-efee-4834-b866-7317606d04b1",
      "resource": {
        "resourceType": "Observation",
        "id": "713aab6b-efee-4834-b866-7317606d04b1",
        "meta": {
          "profile": [
            "http://hl7.eu/fhir/laboratory/StructureDefinition/Observation-resultslab-eu-lab"
          ]
        },
        "performer": [
          {
            "display": "The Central European Lab"
          }
        ],
        "category": [
          {
            "coding": [
              {
                "system": "http://terminology.hl7.org/CodeSystem/observation-category",
                "code": "laboratory"
              }
            ]
          }
        ],
        "code": {
          "coding": [
            {
              "code": "6298-4",
              "system": "http://loinc.org",
              "display": "Potassium [Moles/volume] in Blood"
            }
          ],
          "text": "Potassium [Moles/volume] in Blood"
        },
        "valueQuantity": {
          "system": "http://unitsofmeasure.org",
          "value": 4.4,
          "unit": "mmol/L",
          "code": "mmol/L"
        },
        "referenceRange": [
          {
            "low": {
              "value": 3.5,
              "code": "mmol/L",
              "system": "http://unitsofmeasure.org"
            }
          },
          {
            "high": {
              "value": 5.3,
              "code": "mmol/L",
              "system": "http://unitsofmeasure.org"
            }
          }
        ],
        "text": {
          "status": "generated",
          "div": "<div xmlns=\"http://www.w3.org/1999/xhtml\"><table class=\"hl7__eu__lab__report\"><tr><th>Test</th><th>06-Oct-2021</th><th>Reference&#xA0;Range</th><th>Unit</th></tr><tr><td>Potassium [Moles/volume] in Blood</td><td>4.4</td><td>3.5 - 5.3</td><td></td><td>mmol/L</td></tr></table></div>"
        },
        "status": "final",
        "subject": {
          "reference": "urn:uuid:e1ed303e-76f5-474a-a56f-b996c4a12699",
          "display": "Θεμιστοκλής Λιναρδάκη"
        },
        "effectiveDateTime": "2021-10-06T06:16:00Z",
        "specimen": {
          "reference": "urn:uuid:a8f567a4-3ba7-404d-8ac3-d6c5a083c47f"
        }
      }
    },
    {
      "fullUrl": "urn:uuid:1cc73a54-f906-43de-b2bd-43e97c1d2466",
      "resource": {
        "resourceType": "Observation",
        "id": "1cc73a54-f906-43de-b2bd-43e97c1d2466",
        "meta": {
          "profile": [
            "http://hl7.eu/fhir/laboratory/StructureDefinition/Observation-resultslab-eu-lab"
          ]
        },
        "performer": [
          {
            "display": "The Central European Lab"
          }
        ],
        "category": [
          {
            "coding": [
              {
                "system": "http://terminology.hl7.org/CodeSystem/observation-category",
                "code": "laboratory"
              }
            ]
          }
        ],
        "code": {
          "coding": [
            {
              "code": "2069-3",
              "system": "http://loinc.org",
              "display": "Chloride [Moles/volume] in Blood"
            }
          ],
          "text": "Chloride [Moles/volume] in Blood"
        },
        "valueQuantity": {
          "system": "http://unitsofmeasure.org",
          "value": 110.1,
          "unit": "mmol/L",
          "code": "mmol/L"
        },
        "referenceRange": [
          {
            "low": {
              "value": 98,
              "code": "mmol/L",
              "system": "http://unitsofmeasure.org"
            }
          },
          {
            "high": {
              "value": 110,
              "code": "mmol/L",
              "system": "http://unitsofmeasure.org"
            }
          }
        ],
        "interpretation": [
          {
            "coding": [
              {
                "code": "H",
                "system": "http://terminology.hl7.org/CodeSystem/v3-ObservationInterpretation",
                "display": "High"
              }
            ]
          }
        ],
        "text": {
          "status": "generated",
          "div": "<div xmlns=\"http://www.w3.org/1999/xhtml\"><table class=\"hl7__eu__lab__report\"><tr><th>Test</th><th>06-Oct-2021</th><th>Reference&#xA0;Range</th><th>Unit</th></tr><tr><td>Chloride [Moles/volume] in Blood</td><td>110.1</td><td>98 - 110</td><td>H</td><td>mmol/L</td></tr></table></div>"
        },
        "status": "final",
        "subject": {
          "reference": "urn:uuid:e1ed303e-76f5-474a-a56f-b996c4a12699",
          "display": "Θεμιστοκλής Λιναρδάκη"
        },
        "effectiveDateTime": "2021-10-06T06:16:00Z",
        "specimen": {
          "reference": "urn:uuid:a8f567a4-3ba7-404d-8ac3-d6c5a083c47f"
        }
      }
    },
    {
      "fullUrl": "urn:uuid:b6255e9c-ac61-486d-adbc-e1abfc774c7f",
      "resource": {
        "resourceType": "Observation",
        "id": "b6255e9c-ac61-486d-adbc-e1abfc774c7f",
        "meta": {
          "profile": [
            "http://hl7.eu/fhir/laboratory/StructureDefinition/Observation-resultslab-eu-lab"
          ]
        },
        "performer": [
          {
            "display": "The Central European Lab"
          }
        ],
        "category": [
          {
            "coding": [
              {
                "system": "http://terminology.hl7.org/CodeSystem/observation-category",
                "code": "laboratory"
              }
            ]
          }
        ],
        "code": {
          "coding": [
            {
              "code": "20565-8",
              "system": "http://loinc.org",
              "display": "Carbon dioxide, total [Moles/volume] in Blood"
            }
          ],
          "text": "Carbon dioxide, total [Moles/volume] in Blood"
        },
        "valueQuantity": {
          "system": "http://unitsofmeasure.org",
          "value": 20.8,
          "unit": "mmol/L",
          "code": "mmol/L"
        },
        "referenceRange": [
          {
            "low": {
              "value": 22,
              "code": "mmol/L",
              "system": "http://unitsofmeasure.org"
            }
          },
          {
            "high": {
              "value": 29,
              "code": "mmol/L",
              "system": "http://unitsofmeasure.org"
            }
          }
        ],
        "interpretation": [
          {
            "coding": [
              {
                "code": "L",
                "system": "http://terminology.hl7.org/CodeSystem/v3-ObservationInterpretation",
                "display": "Low"
              }
            ]
          }
        ],
        "text": {
          "status": "generated",
          "div": "<div xmlns=\"http://www.w3.org/1999/xhtml\"><table class=\"hl7__eu__lab__report\"><tr><th>Test</th><th>06-Oct-2021</th><th>Reference&#xA0;Range</th><th>Unit</th></tr><tr><td>Carbon dioxide, total [Moles/volume] in Blood</td><td>20.8</td><td>22 - 29</td><td>L</td><td>mmol/L</td></tr></table></div>"
        },
        "status": "final",
        "subject": {
          "reference": "urn:uuid:e1ed303e-76f5-474a-a56f-b996c4a12699",
          "display": "Θεμιστοκλής Λιναρδάκη"
        },
        "effectiveDateTime": "2021-10-06T06:16:00Z",
        "specimen": {
          "reference": "urn:uuid:a8f567a4-3ba7-404d-8ac3-d6c5a083c47f"
        }
      }
    },
    {
      "fullUrl": "urn:uuid:2be2c00b-6788-4fff-880d-f512d355d7c3",
      "resource": {
        "resourceType": "Device",
        "id": "2be2c00b-6788-4fff-880d-f512d355d7c3",
        "deviceName": [
          {
            "name": "SYNDERAI Synthetic Generator",
            "type": "manufacturer-name"
          }
        ],
        "version": [
          {
            "value": "5.0"
          }
        ],
        "text": {
          "status": "generated",
          "div": "<div xmlns=\"http://www.w3.org/1999/xhtml\">SYNDERAI Synthetic Generator v5.0</div>"
        },
        "status": "active\"",
        "distinctIdentifier": "synderai-generator-50",
        "manufacturer": "SYNDERAI Project"
      }
    },
    {
      "fullUrl": "urn:uuid:c2f1e1e1-349d-4684-aecf-b0cc56f880d6",
      "resource": {
        "resourceType": "Provenance",
        "id": "c2f1e1e1-349d-4684-aecf-b0cc56f880d6",
        "target": [
          {
            "reference": "Patient/e1ed303e-76f5-474a-a56f-b996c4a12699"
          },
          {
            "reference": "Bundle/cf2bdffc-0615-4e2b-b9f0-bbb41017aec7"
          },
          {
            "reference": "Composition/07223129-0a82-4013-a5d8-30267e022518"
          },
          {
            "reference": "PractitionerRole/78f0e73f-6657-497c-b7d5-3fe3d90da0d6"
          },
          {
            "reference": "Practitioner/a1da9631-7b14-4e54-beaa-8501a3e3c5ea"
          },
          {
            "reference": "PractitionerRole/8fcdd033-fdd9-4160-9fb1-2339254ca6d2"
          },
          {
            "reference": "Organization/e1d65915-1b0a-4ff7-9bd4-5c7e70a34234"
          }
        ],
        "activity": {
          "text": "Synthetic Example Data Generation"
        },
        "policy": [
          "https://synderai.net/synderai-synthetic-data-policy"
        ],
        "agent": [
          {
            "type": {
              "text": "author"
            },
            "who": {
              "reference": "Device/2be2c00b-6788-4fff-880d-f512d355d7c3"
            }
          }
        ],
        "reason": [
          {
            "text": "Interoperability Testing and Training (non-clinical use)"
          }
        ],
        "text": {
          "status": "generated",
          "div": "<div xmlns=\"http://www.w3.org/1999/xhtml\">Provenance for SYNDERAI Synthetic Example Data Resource</div>"
        },
        "recorded": "2021-10-06T08:16:00Z"
      }
    },
    {
      "fullUrl": "urn:uuid:78f0e73f-6657-497c-b7d5-3fe3d90da0d6",
      "resource": {
        "resourceType": "PractitionerRole",
        "id": "78f0e73f-6657-497c-b7d5-3fe3d90da0d6",
        "meta": {
          "profile": [
            "http://hl7.eu/fhir/base/StructureDefinition/practitionerRole-eu"
          ]
        },
        "text": {
          "status": "generated",
          "div": "<div xmlns=\"http://www.w3.org/1999/xhtml\">Laboratory Role Id: 78f0e73f-6657-497c-b7d5-3fe3d90da0d6</div>"
        },
        "practitioner": {
          "reference": "urn:uuid:a1da9631-7b14-4e54-beaa-8501a3e3c5ea"
        }
      }
    },
    {
      "fullUrl": "urn:uuid:a1da9631-7b14-4e54-beaa-8501a3e3c5ea",
      "resource": {
        "resourceType": "Practitioner",
        "id": "a1da9631-7b14-4e54-beaa-8501a3e3c5ea",
        "meta": {
          "profile": [
            "http://hl7.eu/fhir/base/StructureDefinition/practitioner-eu"
          ]
        },
        "identifier": [
          {
            "assigner": {
              "display": "HL7 Europe"
            },
            "system": "urn:oid:2.16.840.1.113883.2.51.999",
            "value": "26abaee4-3f2b-4945-aea2-c6daf5a32957"
          }
        ],
        "name": [
          {
            "prefix": [
              "dr"
            ],
            "given": [
              "Ex"
            ],
            "family": "Ample"
          }
        ],
        "address": [
          {
            "line": [
              "Laboratoire Central Européenne",
              "Boulevard du Jardin Botanique 32"
            ],
            "postalCode": "1000",
            "city": "Brussels",
            "country": "Belgium"
          }
        ],
        "text": {
          "status": "generated",
          "div": "<div xmlns=\"http://www.w3.org/1999/xhtml\">Laboratory: Laboratoire Central Européenne, 1000 Brussels, Belgium</div>"
        }
      }
    }
  ],
  "type": "document",
  "timestamp": "2021-10-06T08:16:00Z"
}
