{
  "resourceType": "Bundle",
  "id": "54f7bab1-4be1-4588-a25c-ecad08dcf638",
  "meta": {
    "profile": [
      "http://hl7.eu/fhir/laboratory/StructureDefinition/Bundle-eu-lab"
    ]
  },
  "identifier": {
    "assigner": {
      "display": "HL7 Europe"
    },
    "system": "urn:oid:2.16.840.1.113883.2.51.999",
    "value": "7528b2bc-9df4-4a5c-b677-85a8c3906630"
  },
  "entry": [
    {
      "fullUrl": "urn:uuid:2ba885bd-b89a-444d-ac27-ab0e5a0234dd",
      "resource": {
        "resourceType": "Composition",
        "id": "2ba885bd-b89a-444d-ac27-ab0e5a0234dd",
        "meta": {
          "profile": [
            "http://hl7.eu/fhir/laboratory/StructureDefinition/Composition-eu-lab"
          ]
        },
        "identifier": {
          "assigner": {
            "display": "HL7 Europe"
          },
          "system": "urn:oid:2.16.840.1.113883.2.51.999",
          "value": "399a2ecd-7176-48b2-bd94-c382e1ce3bc4"
        },
        "author": [
          {
            "reference": "urn:uuid:a0c3fe15-942f-46fc-8107-9601a5508768"
          }
        ],
        "category": [
          {
            "coding": [
              {
                "code": "26436-6",
                "system": "http://loinc.org",
                "display": "Laboratory studies (set)"
              }
            ]
          }
        ],
        "type": {
          "coding": [
            {
              "code": "11502-2",
              "system": "http://loinc.org",
              "display": "Laboratory report"
            }
          ],
          "text": "Laboratory Report"
        },
        "section": [
          {
            "code": {
              "coding": [
                {
                  "code": "26436-6",
                  "system": "http://loinc.org",
                  "display": "Laboratory studies (set)"
                }
              ],
              "text": "Laboratory studies"
            },
            "section": [
              {
                "code": {
                  "coding": [
                    {
                      "code": "$18719-5",
                      "system": "http://loinc.org",
                      "display": "Chemistry studies (set)"
                    }
                  ],
                  "text": "Chemistry"
                },
                "entry": [
                  {
                    "reference": "urn:uuid:45f302e8-9dfc-46cc-85ff-04cca6f47e6e"
                  },
                  {
                    "reference": "urn:uuid:55740205-2f2b-4400-9c34-55ae4f37f859"
                  },
                  {
                    "reference": "urn:uuid:c1031625-10a8-412a-bad3-c2bd89c713cc"
                  },
                  {
                    "reference": "urn:uuid:debf80e2-7e6b-4aa3-b129-9b9acdaf4e72"
                  },
                  {
                    "reference": "urn:uuid:7d7896ed-7570-4bd3-8963-8954e82a10c0"
                  },
                  {
                    "reference": "urn:uuid:c74de074-a282-493e-b080-819916bf3ad3"
                  },
                  {
                    "reference": "urn:uuid:b2e47b72-5d63-4ac5-9fed-f037e1e5fde4"
                  },
                  {
                    "reference": "urn:uuid:5ccbaab4-014e-4e22-96d5-cbe9b596d3f4"
                  },
                  {
                    "reference": "urn:uuid:8bac7c88-892c-4bb2-a688-0febced5f0ff"
                  },
                  {
                    "reference": "urn:uuid:948d44b2-fb2f-4317-94f9-706e1f7defac"
                  },
                  {
                    "reference": "urn:uuid:4c58be9a-30f5-4d6b-9e0f-81b466485e2c"
                  },
                  {
                    "reference": "urn:uuid:19e0afc8-1052-4096-81ab-bac781ddc2be"
                  },
                  {
                    "reference": "urn:uuid:abf124d8-ea1c-4964-970b-345abd76bb67"
                  },
                  {
                    "reference": "urn:uuid:02b402b1-e109-4732-a414-200a156f6bf0"
                  },
                  {
                    "reference": "urn:uuid:dd3a85ac-0cfb-4173-af9e-148a657ce1a6"
                  },
                  {
                    "reference": "urn:uuid:98f103bc-7863-4a69-8975-e09634db6268"
                  },
                  {
                    "reference": "urn:uuid:403776e5-a74a-410f-9836-d0a181c06b52"
                  },
                  {
                    "reference": "urn:uuid:8ab0c94a-7bee-4fc1-90c3-7367b285aef7"
                  },
                  {
                    "reference": "urn:uuid:7d3b13d3-3ab7-4542-b15b-67048078dda3"
                  },
                  {
                    "reference": "urn:uuid:834cbe82-760c-436d-858c-3e7bfd67fcbf"
                  },
                  {
                    "reference": "urn:uuid:1ec9c1bb-37cf-442f-96e1-5cb087085be2"
                  },
                  {
                    "reference": "urn:uuid:b4a12870-c8fa-401c-819a-076014ca8e47"
                  }
                ],
                "text": {
                  "status": "generated",
                  "div": "<div xmlns=\"http://www.w3.org/1999/xhtml\"><h3>Chemistry</h3><table class=\"hl7__eu__lab__report\"><thead><tr><th>Test</th><th>31-DEC-2021</th><th>Reference&#xA0;Range</th><th>Unit</th></tr></thead><tbody><tr><td>Glucose [Mass/volume] in Serum or Plasma</td><td>90.2</td><td>70 - 140</td><td>mg/dL</td></tr><tr><td>Urea nitrogen [Mass/volume] in Serum or Plasma</td><td>18.6</td><td>7 - 20</td><td>mg/dL</td></tr><tr><td>Creatinine [Mass/volume] in Serum or Plasma</td><td><strong>2.0 H</strong></td><td>0.9 - 1.3</td><td>mg/dL</td></tr><tr><td>Calcium [Mass/volume] in Serum or Plasma</td><td>9.6</td><td>8.5 - 10.5</td><td>mg/dL</td></tr><tr><td>Sodium [Moles/volume] in Serum or Plasma</td><td>142.7</td><td>135 - 145</td><td>mmol/L</td></tr><tr><td>Potassium [Moles/volume] in Serum or Plasma</td><td>4.3</td><td>3.5 - 5.3</td><td>mmol/L</td></tr><tr><td>Chloride [Moles/volume] in Serum or Plasma</td><td><strong>110.8 H</strong></td><td>98 - 107</td><td>mmol/L</td></tr><tr><td>Carbon dioxide, total [Moles/volume] in Serum or Plasma</td><td>24.4</td><td>22 - 33</td><td>mmol/L</td></tr><tr><td>Ketones [Presence] in Urine by Test strip</td><td>Urine ketone test = ++</td><td></td><td></td></tr><tr><td>Hemoglobin A1c/Hemoglobin.total in Blood</td><td><strong>3.2 L</strong></td><td>4.3 - 6</td><td>%</td></tr><tr><td>Glucose [Mass/volume] in Blood</td><td>90.2</td><td>70 - 140</td><td>mg/dL</td></tr><tr><td>Urea nitrogen [Mass/volume] in Blood</td><td>18.6</td><td>7 - 20</td><td>mg/dL</td></tr><tr><td>Creatinine [Mass/volume] in Blood</td><td><strong>2.6 H</strong></td><td>0.9 - 1.3</td><td>mg/dL</td></tr><tr><td>Calcium [Mass/volume] in Blood</td><td>9.6</td><td>8.5 - 10.5</td><td>mg/dL</td></tr><tr><td>Sodium [Moles/volume] in Blood</td><td>142.7</td><td>135 - 145</td><td>mmol/L</td></tr><tr><td>Potassium [Moles/volume] in Blood</td><td>4.3</td><td>3.5 - 5.1</td><td>mmol/L</td></tr><tr><td>Chloride [Moles/volume] in Blood</td><td><strong>110.8 H</strong></td><td>98 - 108</td><td>mmol/L</td></tr><tr><td>Carbon dioxide, total [Moles/volume] in Blood</td><td>24.4</td><td>22 - 29</td><td>mmol/L</td></tr><tr><td>Cholesterol [Mass/volume] in Serum or Plasma</td><td>191.6</td><td>0 - 200</td><td>mg/dL</td></tr><tr><td>Triglyceride [Mass/volume] in Serum or Plasma</td><td>102.4</td><td>0 - 199</td><td>mg/dL</td></tr><tr><td>Cholesterol in LDL [Mass/volume] in Serum or Plasma by Direct assay</td><td><strong>135.7 H</strong></td><td>0 - 130</td><td>mg/dL</td></tr><tr><td>Cholesterol in HDL [Mass/volume] in Serum or Plasma</td><td><strong>35.4 L</strong></td><td>40 - 100</td><td>mg/dL</td></tr></tbody></table></div>"
                },
                "title": "Chemistry"
              },
              {
                "code": {
                  "coding": [
                    {
                      "code": "$18729-4",
                      "system": "http://loinc.org",
                      "display": "Urinalysis studies (set)"
                    }
                  ],
                  "text": "Urinalysis"
                },
                "entry": [
                  {
                    "reference": "urn:uuid:f0553f8c-0ea3-4ac6-93c3-d063aa5a1a09"
                  },
                  {
                    "reference": "urn:uuid:f74dbf25-4cc8-4a46-814d-e0ac34f2693b"
                  },
                  {
                    "reference": "urn:uuid:6cb0aff5-33d1-46ba-9aa2-f9da057d67ad"
                  },
                  {
                    "reference": "urn:uuid:8cdaba9b-5f58-42d6-ae89-4e550e4c36ba"
                  },
                  {
                    "reference": "urn:uuid:df432b68-9860-4b62-8d9f-d902f2ebafbe"
                  },
                  {
                    "reference": "urn:uuid:b4fbbdb3-c931-47e6-9dab-de2221bc6e83"
                  },
                  {
                    "reference": "urn:uuid:37202c2d-bd19-4164-9f4a-c64098a93489"
                  },
                  {
                    "reference": "urn:uuid:7c8de8d6-8494-4ecf-a3dc-45d739c195bd"
                  },
                  {
                    "reference": "urn:uuid:76d2af3a-9adf-42f0-97f1-0cb27375ff21"
                  },
                  {
                    "reference": "urn:uuid:0ef3d998-4071-4a65-8898-d316c8d00941"
                  },
                  {
                    "reference": "urn:uuid:526e834f-72c4-425e-b76c-2b0f7886ab37"
                  },
                  {
                    "reference": "urn:uuid:98b6fc5c-797f-430e-a6e6-34c4c1dd440e"
                  }
                ],
                "text": {
                  "status": "generated",
                  "div": "<div xmlns=\"http://www.w3.org/1999/xhtml\"><h3>Urinalysis</h3><table class=\"hl7__eu__lab__report\"><thead><tr><th>Test</th><th>31-DEC-2021</th><th>Reference&#xA0;Range</th><th>Unit</th></tr></thead><tbody><tr><td>Glucose [Mass/volume] in Urine by Test strip</td><td><strong>0.9 H</strong></td><td>0 - 0.8</td><td>mg/dL</td></tr><tr><td>Glucose [Presence] in Urine by Test strip</td><td>++</td><td></td><td></td></tr><tr><td>Bilirubin.total [Mass/volume] in Urine by Test strip</td><td>1.1</td><td>0 - 1.9</td><td>mg/dL</td></tr><tr><td>Bilirubin.total [Presence] in Urine by Test strip</td><td>Finding of bilirubin in urine</td><td></td><td></td></tr><tr><td>Ketones [Mass/volume] in Urine by Test strip</td><td>2.3</td><td>0 - 3</td><td>mg/dL</td></tr><tr><td>Specific gravity of Urine by Test strip</td><td><strong>1.0 L</strong></td><td>1.01 - 1.03</td><td>{nominal}</td></tr><tr><td>pH of Urine by Test strip</td><td>6.0</td><td>4.5 - 7.5</td><td>pH</td></tr><tr><td>Protein [Mass/volume] in Urine by Test strip</td><td><strong>217.5 H</strong></td><td>0 - 149</td><td>mg/dL</td></tr><tr><td>Protein [Presence] in Urine by Test strip</td><td>Urine protein test = ++</td><td></td><td></td></tr><tr><td>Nitrite [Presence] in Urine by Test strip</td><td>Urine nitrite negative</td><td></td><td></td></tr><tr><td>Hemoglobin [Presence] in Urine by Test strip</td><td>Urine blood test = negative</td><td></td><td></td></tr><tr><td>Leukocyte esterase [Presence] in Urine by Test strip</td><td>Urine leukocyte test negative</td><td></td><td></td></tr></tbody></table></div>"
                },
                "title": "Urinalysis"
              },
              {
                "code": {
                  "coding": [
                    {
                      "code": "$LP7846-1",
                      "system": "http://loinc.org",
                      "display": "Specimen information"
                    }
                  ],
                  "text": "Specimen information"
                },
                "entry": [
                  {
                    "reference": "urn:uuid:aae122ec-eb8b-44fb-9d7c-0f94ba674bab"
                  },
                  {
                    "reference": "urn:uuid:3961c549-9404-4045-a08e-68c52563511f"
                  },
                  {
                    "reference": "urn:uuid:9e53ff9e-3d45-49be-9e24-01f9275b0272"
                  },
                  {
                    "reference": "urn:uuid:cadea014-f499-4bca-8f69-941d03c26b6b"
                  }
                ],
                "text": {
                  "status": "generated",
                  "div": "<div xmlns=\"http://www.w3.org/1999/xhtml\"><h3>Specimen information</h3><table class=\"hl7__eu__lab__report\"><thead><tr><th>Test</th><th>31-DEC-2021</th><th>Specimen</th><th></th></tr></thead><tbody><tr><td>Appearance of Urine</td><td>Cloudy urine</td><td>Urine</td><td></td></tr><tr><td>Odor of Urine</td><td>Urine smell ammoniacal</td><td>Urine</td><td></td></tr><tr><td>Clarity of Urine</td><td>Translucent</td><td>Urine</td><td></td></tr><tr><td>Color of Urine</td><td>Brown color</td><td>Urine</td><td></td></tr></tbody></table></div>"
                },
                "title": "Specimen information"
              }
            ],
            "title": "Laboratory Report"
          },
          {
            "text": {
              "status": "generated",
              "div": "<div xmlns=\"http://www.w3.org/1999/xhtml\"><h3>Annotation</h3><table class=\"hl7__eu__lab__report\"><tr><th>Conclusion and Recommendations based on this report and previous findings known to us</th></tr><tr><td>The patient shows elevated creatinine, suggesting impaired renal function, and high chloride. Urinalysis reveals proteinuria, glucosuria, ketonuria, low specific gravity, and abnormal urine appearance, indicating possible renal dysfunction and/or diabetes with poor tubular concentration. HbA1c is low, which may reflect anemia or recent changes in glycemic control. Lipid profile shows high LDL and low HDL, increasing cardiovascular risk. Recommend further evaluation of renal function, diabetes status, and cardiovascular risk management.</td></tr></table></div>"
            },
            "code": {
              "coding": [
                {
                  "system": "http://loinc.org",
                  "code": "48767-8",
                  "display": "Annotation comment"
                }
              ]
            },
            "title": "Annotation comment"
          }
        ],
        "status": "final",
        "subject": {
          "reference": "urn:uuid:967b43cb-dde4-4b4d-b43f-605d3d170c2b",
          "display": "Victor Lagarde"
        },
        "date": "2021-12-31T05:48:18Z",
        "title": "Laboratory Report",
        "confidentiality": "N"
      }
    },
    {
      "fullUrl": "urn:uuid:7079ac3e-be70-40cf-a1c2-b5ac15fb4a2c",
      "resource": {
        "resourceType": "DiagnosticReport",
        "id": "7079ac3e-be70-40cf-a1c2-b5ac15fb4a2c",
        "meta": {
          "profile": [
            "http://hl7.eu/fhir/laboratory/StructureDefinition/DiagnosticReport-eu-lab"
          ]
        },
        "identifier": [
          {
            "assigner": {
              "display": "HL7 Europe"
            },
            "system": "urn:oid:2.16.840.1.113883.2.51.999",
            "value": "1f3b4dcf-e442-492f-af4b-d531793be4f3"
          }
        ],
        "extension": [
          {
            "url": "http://hl7.org/fhir/5.0/StructureDefinition/extension-DiagnosticReport.composition",
            "valueReference": {
              "reference": "urn:uuid:399a2ecd-7176-48b2-bd94-c382e1ce3bc4"
            }
          }
        ],
        "category": [
          {
            "coding": [
              {
                "code": "26436-6",
                "system": "http://loinc.org",
                "display": "Laboratory studies (set)"
              }
            ]
          }
        ],
        "specimen": [
          {
            "reference": "urn:uuid:6f3315c1-5473-47e5-9248-c50b89d1eed2"
          },
          {
            "reference": "urn:uuid:8746a5ec-9955-4b77-8d8b-5f356db1439a"
          },
          {
            "reference": "urn:uuid:4f49a0ae-667e-4dd0-82d6-9b066352401b"
          }
        ],
        "result": [
          {
            "reference": "urn:uuid:45f302e8-9dfc-46cc-85ff-04cca6f47e6e"
          },
          {
            "reference": "urn:uuid:55740205-2f2b-4400-9c34-55ae4f37f859"
          },
          {
            "reference": "urn:uuid:c1031625-10a8-412a-bad3-c2bd89c713cc"
          },
          {
            "reference": "urn:uuid:debf80e2-7e6b-4aa3-b129-9b9acdaf4e72"
          },
          {
            "reference": "urn:uuid:7d7896ed-7570-4bd3-8963-8954e82a10c0"
          },
          {
            "reference": "urn:uuid:c74de074-a282-493e-b080-819916bf3ad3"
          },
          {
            "reference": "urn:uuid:b2e47b72-5d63-4ac5-9fed-f037e1e5fde4"
          },
          {
            "reference": "urn:uuid:5ccbaab4-014e-4e22-96d5-cbe9b596d3f4"
          },
          {
            "reference": "urn:uuid:aae122ec-eb8b-44fb-9d7c-0f94ba674bab"
          },
          {
            "reference": "urn:uuid:3961c549-9404-4045-a08e-68c52563511f"
          },
          {
            "reference": "urn:uuid:9e53ff9e-3d45-49be-9e24-01f9275b0272"
          },
          {
            "reference": "urn:uuid:cadea014-f499-4bca-8f69-941d03c26b6b"
          },
          {
            "reference": "urn:uuid:f0553f8c-0ea3-4ac6-93c3-d063aa5a1a09"
          },
          {
            "reference": "urn:uuid:f74dbf25-4cc8-4a46-814d-e0ac34f2693b"
          },
          {
            "reference": "urn:uuid:6cb0aff5-33d1-46ba-9aa2-f9da057d67ad"
          },
          {
            "reference": "urn:uuid:8cdaba9b-5f58-42d6-ae89-4e550e4c36ba"
          },
          {
            "reference": "urn:uuid:df432b68-9860-4b62-8d9f-d902f2ebafbe"
          },
          {
            "reference": "urn:uuid:8bac7c88-892c-4bb2-a688-0febced5f0ff"
          },
          {
            "reference": "urn:uuid:b4fbbdb3-c931-47e6-9dab-de2221bc6e83"
          },
          {
            "reference": "urn:uuid:37202c2d-bd19-4164-9f4a-c64098a93489"
          },
          {
            "reference": "urn:uuid:7c8de8d6-8494-4ecf-a3dc-45d739c195bd"
          },
          {
            "reference": "urn:uuid:76d2af3a-9adf-42f0-97f1-0cb27375ff21"
          },
          {
            "reference": "urn:uuid:0ef3d998-4071-4a65-8898-d316c8d00941"
          },
          {
            "reference": "urn:uuid:526e834f-72c4-425e-b76c-2b0f7886ab37"
          },
          {
            "reference": "urn:uuid:98b6fc5c-797f-430e-a6e6-34c4c1dd440e"
          },
          {
            "reference": "urn:uuid:948d44b2-fb2f-4317-94f9-706e1f7defac"
          },
          {
            "reference": "urn:uuid:4c58be9a-30f5-4d6b-9e0f-81b466485e2c"
          },
          {
            "reference": "urn:uuid:19e0afc8-1052-4096-81ab-bac781ddc2be"
          },
          {
            "reference": "urn:uuid:abf124d8-ea1c-4964-970b-345abd76bb67"
          },
          {
            "reference": "urn:uuid:02b402b1-e109-4732-a414-200a156f6bf0"
          },
          {
            "reference": "urn:uuid:dd3a85ac-0cfb-4173-af9e-148a657ce1a6"
          },
          {
            "reference": "urn:uuid:98f103bc-7863-4a69-8975-e09634db6268"
          },
          {
            "reference": "urn:uuid:403776e5-a74a-410f-9836-d0a181c06b52"
          },
          {
            "reference": "urn:uuid:8ab0c94a-7bee-4fc1-90c3-7367b285aef7"
          },
          {
            "reference": "urn:uuid:7d3b13d3-3ab7-4542-b15b-67048078dda3"
          },
          {
            "reference": "urn:uuid:834cbe82-760c-436d-858c-3e7bfd67fcbf"
          },
          {
            "reference": "urn:uuid:1ec9c1bb-37cf-442f-96e1-5cb087085be2"
          },
          {
            "reference": "urn:uuid:b4a12870-c8fa-401c-819a-076014ca8e47"
          }
        ],
        "status": "registered",
        "code": {
          "coding": [
            {
              "code": "11502-2",
              "system": "http://loinc.org",
              "display": "Laboratory report"
            }
          ]
        },
        "subject": {
          "reference": "urn:uuid:967b43cb-dde4-4b4d-b43f-605d3d170c2b",
          "display": "Victor Lagarde"
        }
      }
    },
    {
      "fullUrl": "urn:uuid:967b43cb-dde4-4b4d-b43f-605d3d170c2b",
      "resource": {
        "resourceType": "Patient",
        "id": "967b43cb-dde4-4b4d-b43f-605d3d170c2b",
        "meta": {
          "security": [
            {
              "system": "http://terminology.hl7.org/CodeSystem/v3-ActReason",
              "code": "HTEST"
            },
            {
              "system": "http://terminology.hl7.org/CodeSystem/v3-ActReason",
              "code": "TRAIN"
            }
          ],
          "tag": [
            {
              "system": "https://synderai.net/fhir/CodeSystem/tags",
              "code": "synthetic",
              "display": "SYNDERAI Synthetic data"
            }
          ],
          "profile": [
            "http://hl7.eu/fhir/base/StructureDefinition/patient-eu-core"
          ]
        },
        "identifier": [
          {
            "type": {
              "coding": [
                {
                  "code": "PT",
                  "system": "http://terminology.hl7.org/CodeSystem/v2-0203"
                }
              ]
            },
            "system": "http://ec.europa.eu/identifier/eci",
            "value": "9925-001801-9"
          },
          {
            "type": {
              "coding": [
                {
                  "code": "MR",
                  "system": "http://terminology.hl7.org/CodeSystem/v2-0203"
                }
              ]
            },
            "system": "http://local.setting.eu/identifier",
            "value": "22c2dfd0-ac57-8833-2532-848f180896a4"
          }
        ],
        "name": [
          {
            "family": "Lagarde"
          },
          {
            "given": [
              "Victor"
            ]
          },
          {
            "text": "Victor Lagarde"
          }
        ],
        "address": [
          {
            "line": [
              "avenue Robert"
            ],
            "use": "home",
            "type": "physical",
            "postalCode": "80300",
            "city": "Albert",
            "country": "France"
          }
        ],
        "telecom": [
          {
            "system": "phone",
            "value": "0177941801"
          }
        ],
        "extension": [
          {
            "url": "http://hl7.org/fhir/StructureDefinition/patient-nationality",
            "valueCodeableConcept": {
              "coding": [
                {
                  "code": "FR",
                  "system": "http://hl7.org/fhir/ValueSet/country"
                }
              ]
            }
          }
        ],
        "text": {
          "status": "generated",
          "div": "<div xmlns=\"http://www.w3.org/1999/xhtml\"><table class=\"hl7__ips\"><tr><td>Victor Lagarde</td><td>male</td><td>31-Aug-1939</td></tr></table></div>"
        },
        "gender": "male",
        "birthDate": "1939-08-31"
      }
    },
    {
      "fullUrl": "urn:uuid:b2937e68-8d0d-42e5-a35b-952f6e1c82e7",
      "resource": {
        "resourceType": "ServiceRequest",
        "id": "b2937e68-8d0d-42e5-a35b-952f6e1c82e7",
        "meta": {
          "profile": [
            "http://hl7.eu/fhir/laboratory/StructureDefinition/ServiceRequest-eu-lab"
          ]
        },
        "identifier": [
          {
            "system": "http://example.org",
            "value": "c6fa5327-cf2f-4bf2-8d57-37d9ea9d5f53"
          }
        ],
        "specimen": [
          {
            "reference": "urn:uuid:6f3315c1-5473-47e5-9248-c50b89d1eed2"
          },
          {
            "reference": "urn:uuid:8746a5ec-9955-4b77-8d8b-5f356db1439a"
          },
          {
            "reference": "urn:uuid:4f49a0ae-667e-4dd0-82d6-9b066352401b"
          }
        ],
        "reasonCode": [
          {
            "coding": [
              {
                "code": "433144002",
                "system": "http://snomed.info/sct",
                "display": "Chronic kidney disease stage 3"
              }
            ]
          },
          {
            "coding": [
              {
                "code": "157141000119108",
                "system": "http://snomed.info/sct",
                "display": "Proteinuria due to type 2 diabetes mellitus"
              }
            ]
          },
          {
            "coding": [
              {
                "code": "431856006",
                "system": "http://snomed.info/sct",
                "display": "Chronic kidney disease stage 2"
              }
            ]
          },
          {
            "coding": [
              {
                "code": "90781000119102",
                "system": "http://snomed.info/sct",
                "display": "Microalbuminuria due to type 2 diabetes mellitus"
              }
            ]
          },
          {
            "coding": [
              {
                "code": "127013003",
                "system": "http://snomed.info/sct",
                "display": "Disorder of kidney due to diabetes mellitus"
              }
            ]
          },
          {
            "coding": [
              {
                "code": "431855005",
                "system": "http://snomed.info/sct",
                "display": "Chronic kidney disease stage 1"
              }
            ]
          },
          {
            "coding": [
              {
                "code": "55822004",
                "system": "http://snomed.info/sct",
                "display": "Hyperlipidemia"
              }
            ]
          },
          {
            "coding": [
              {
                "code": "59621000",
                "system": "http://snomed.info/sct",
                "display": "Essential hypertension"
              }
            ]
          },
          {
            "coding": [
              {
                "code": "237602007",
                "system": "http://snomed.info/sct",
                "display": "Metabolic syndrome X"
              }
            ]
          },
          {
            "coding": [
              {
                "code": "414545008",
                "system": "http://snomed.info/sct",
                "display": "Ischemic heart disease"
              }
            ]
          },
          {
            "coding": [
              {
                "code": "40055000",
                "system": "http://snomed.info/sct",
                "display": "Chronic sinusitis"
              }
            ]
          },
          {
            "coding": [
              {
                "code": "15777000",
                "system": "http://snomed.info/sct",
                "display": "Prediabetes"
              }
            ]
          },
          {
            "coding": [
              {
                "code": "271737000",
                "system": "http://snomed.info/sct",
                "display": "Anemia"
              }
            ]
          }
        ],
        "status": "active",
        "intent": "order",
        "code": {
          "coding": [
            {
              "code": "108252007",
              "system": "http://snomed.info/sct",
              "display": "Laboratory procedure"
            }
          ]
        },
        "subject": {
          "reference": "urn:uuid:967b43cb-dde4-4b4d-b43f-605d3d170c2b",
          "display": "Victor Lagarde"
        },
        "requester": {
          "reference": "urn:uuid:841b4da1-6739-4605-84cb-27051bc766ae"
        }
      }
    },
    {
      "fullUrl": "urn:uuid:841b4da1-6739-4605-84cb-27051bc766ae",
      "resource": {
        "resourceType": "PractitionerRole",
        "id": "841b4da1-6739-4605-84cb-27051bc766ae",
        "meta": {
          "profile": [
            "http://hl7.eu/fhir/base/StructureDefinition/practitionerRole-eu"
          ]
        },
        "text": {
          "status": "generated",
          "div": "<div xmlns=\"http://www.w3.org/1999/xhtml\">Provider Role Id: 841b4da1-6739-4605-84cb-27051bc766ae</div>"
        },
        "organization": {
          "reference": "urn:uuid:eabd107f-371b-4bd9-84f8-6e2f339063c6"
        }
      }
    },
    {
      "fullUrl": "urn:uuid:eabd107f-371b-4bd9-84f8-6e2f339063c6",
      "resource": {
        "resourceType": "Organization",
        "id": "eabd107f-371b-4bd9-84f8-6e2f339063c6",
        "meta": {
          "profile": [
            "http://hl7.eu/fhir/base/StructureDefinition/organization-eu"
          ]
        },
        "identifier": [
          {
            "assigner": {
              "display": "HL7 Europe"
            },
            "system": "urn:oid:2.16.840.1.113883.2.51.999",
            "value": "a5cbea3a-ff3e-48c4-8983-321dbbcd2f1e"
          }
        ],
        "address": [
          {
            "city": "Auxerre",
            "postalCode": "89000",
            "country": "France"
          }
        ],
        "text": {
          "status": "generated",
          "div": "<div xmlns=\"http://www.w3.org/1999/xhtml\">Provider Organization: Thiriot Didier (Cardiologie)</div>"
        },
        "name": "Thiriot Didier (Cardiologie)"
      }
    },
    {
      "fullUrl": "urn:uuid:6f3315c1-5473-47e5-9248-c50b89d1eed2",
      "resource": {
        "resourceType": "Specimen",
        "id": "6f3315c1-5473-47e5-9248-c50b89d1eed2",
        "meta": {
          "profile": [
            "http://hl7.eu/fhir/laboratory/StructureDefinition/Specimen-eu-lab"
          ]
        },
        "collection": {
          "collectedDateTime": "2021-12-31"
        },
        "text": {
          "status": "generated",
          "div": "<div xmlns=\"http://www.w3.org/1999/xhtml\"><table class=\"hl7__eu__lab__report\"><tr><th>Specimen</th><th>Collection Date</th></tr><tr><td>Acellular blood (serum or plasma) specimen</td><td><span class=\"nb\">31-Dec-2021</span></td></tr></table></div>"
        },
        "type": {
          "coding": [
            {
              "code": "122592007",
              "system": "http://snomed.info/sct",
              "display": "Acellular blood (serum or plasma) specimen"
            }
          ]
        }
      }
    },
    {
      "fullUrl": "urn:uuid:8746a5ec-9955-4b77-8d8b-5f356db1439a",
      "resource": {
        "resourceType": "Specimen",
        "id": "8746a5ec-9955-4b77-8d8b-5f356db1439a",
        "meta": {
          "profile": [
            "http://hl7.eu/fhir/laboratory/StructureDefinition/Specimen-eu-lab"
          ]
        },
        "collection": {
          "collectedDateTime": "2021-12-31"
        },
        "text": {
          "status": "generated",
          "div": "<div xmlns=\"http://www.w3.org/1999/xhtml\"><table class=\"hl7__eu__lab__report\"><tr><th>Specimen</th><th>Collection Date</th></tr><tr><td>Urine specimen</td><td><span class=\"nb\">31-Dec-2021</span></td></tr></table></div>"
        },
        "type": {
          "coding": [
            {
              "code": "122575003",
              "system": "http://snomed.info/sct",
              "display": "Urine specimen"
            }
          ]
        }
      }
    },
    {
      "fullUrl": "urn:uuid:4f49a0ae-667e-4dd0-82d6-9b066352401b",
      "resource": {
        "resourceType": "Specimen",
        "id": "4f49a0ae-667e-4dd0-82d6-9b066352401b",
        "meta": {
          "profile": [
            "http://hl7.eu/fhir/laboratory/StructureDefinition/Specimen-eu-lab"
          ]
        },
        "collection": {
          "collectedDateTime": "2021-12-31"
        },
        "text": {
          "status": "generated",
          "div": "<div xmlns=\"http://www.w3.org/1999/xhtml\"><table class=\"hl7__eu__lab__report\"><tr><th>Specimen</th><th>Collection Date</th></tr><tr><td>Whole blood specimen (specimen)</td><td><span class=\"nb\">31-Dec-2021</span></td></tr></table></div>"
        },
        "type": {
          "coding": [
            {
              "code": "258580003",
              "system": "http://snomed.info/sct",
              "display": "Whole blood specimen (specimen)"
            }
          ]
        }
      }
    },
    {
      "fullUrl": "urn:uuid:45f302e8-9dfc-46cc-85ff-04cca6f47e6e",
      "resource": {
        "resourceType": "Observation",
        "id": "45f302e8-9dfc-46cc-85ff-04cca6f47e6e",
        "meta": {
          "profile": [
            "http://hl7.eu/fhir/laboratory/StructureDefinition/Observation-resultslab-eu-lab"
          ]
        },
        "performer": [
          {
            "display": "The Central European Lab"
          }
        ],
        "category": [
          {
            "coding": [
              {
                "system": "http://terminology.hl7.org/CodeSystem/observation-category",
                "code": "laboratory"
              }
            ]
          }
        ],
        "code": {
          "coding": [
            {
              "code": "2345-7",
              "system": "http://loinc.org",
              "display": "Glucose [Mass/volume] in Serum or Plasma"
            }
          ],
          "text": "Glucose [Mass/volume] in Serum or Plasma"
        },
        "valueQuantity": {
          "system": "http://unitsofmeasure.org",
          "value": 90.2,
          "unit": "mg/dL",
          "code": "mg/dL"
        },
        "referenceRange": [
          {
            "low": {
              "value": 70,
              "code": "mg/dL",
              "system": "http://unitsofmeasure.org"
            }
          },
          {
            "high": {
              "value": 140,
              "code": "mg/dL",
              "system": "http://unitsofmeasure.org"
            }
          }
        ],
        "text": {
          "status": "generated",
          "div": "<div xmlns=\"http://www.w3.org/1999/xhtml\"><table class=\"hl7__eu__lab__report\"><tr><th>Test</th><th>31-Dec-2021</th><th>Reference&#xA0;Range</th><th>Unit</th></tr><tr><td>Glucose [Mass/volume] in Serum or Plasma</td><td>90.2</td><td>70 - 140</td><td></td><td>mg/dL</td></tr></table></div>"
        },
        "status": "final",
        "subject": {
          "reference": "urn:uuid:967b43cb-dde4-4b4d-b43f-605d3d170c2b",
          "display": "Victor Lagarde"
        },
        "effectiveDateTime": "2021-12-31T04:48:18Z",
        "specimen": {
          "reference": "urn:uuid:6f3315c1-5473-47e5-9248-c50b89d1eed2"
        }
      }
    },
    {
      "fullUrl": "urn:uuid:55740205-2f2b-4400-9c34-55ae4f37f859",
      "resource": {
        "resourceType": "Observation",
        "id": "55740205-2f2b-4400-9c34-55ae4f37f859",
        "meta": {
          "profile": [
            "http://hl7.eu/fhir/laboratory/StructureDefinition/Observation-resultslab-eu-lab"
          ]
        },
        "performer": [
          {
            "display": "The Central European Lab"
          }
        ],
        "category": [
          {
            "coding": [
              {
                "system": "http://terminology.hl7.org/CodeSystem/observation-category",
                "code": "laboratory"
              }
            ]
          }
        ],
        "code": {
          "coding": [
            {
              "code": "3094-0",
              "system": "http://loinc.org",
              "display": "Urea nitrogen [Mass/volume] in Serum or Plasma"
            }
          ],
          "text": "Urea nitrogen [Mass/volume] in Serum or Plasma"
        },
        "valueQuantity": {
          "system": "http://unitsofmeasure.org",
          "value": 18.6,
          "unit": "mg/dL",
          "code": "mg/dL"
        },
        "referenceRange": [
          {
            "low": {
              "value": 7,
              "code": "mg/dL",
              "system": "http://unitsofmeasure.org"
            }
          },
          {
            "high": {
              "value": 20,
              "code": "mg/dL",
              "system": "http://unitsofmeasure.org"
            }
          }
        ],
        "text": {
          "status": "generated",
          "div": "<div xmlns=\"http://www.w3.org/1999/xhtml\"><table class=\"hl7__eu__lab__report\"><tr><th>Test</th><th>31-Dec-2021</th><th>Reference&#xA0;Range</th><th>Unit</th></tr><tr><td>Urea nitrogen [Mass/volume] in Serum or Plasma</td><td>18.6</td><td>7 - 20</td><td></td><td>mg/dL</td></tr></table></div>"
        },
        "status": "final",
        "subject": {
          "reference": "urn:uuid:967b43cb-dde4-4b4d-b43f-605d3d170c2b",
          "display": "Victor Lagarde"
        },
        "effectiveDateTime": "2021-12-31T04:48:18Z",
        "specimen": {
          "reference": "urn:uuid:6f3315c1-5473-47e5-9248-c50b89d1eed2"
        }
      }
    },
    {
      "fullUrl": "urn:uuid:c1031625-10a8-412a-bad3-c2bd89c713cc",
      "resource": {
        "resourceType": "Observation",
        "id": "c1031625-10a8-412a-bad3-c2bd89c713cc",
        "meta": {
          "profile": [
            "http://hl7.eu/fhir/laboratory/StructureDefinition/Observation-resultslab-eu-lab"
          ]
        },
        "performer": [
          {
            "display": "The Central European Lab"
          }
        ],
        "category": [
          {
            "coding": [
              {
                "system": "http://terminology.hl7.org/CodeSystem/observation-category",
                "code": "laboratory"
              }
            ]
          }
        ],
        "code": {
          "coding": [
            {
              "code": "2160-0",
              "system": "http://loinc.org",
              "display": "Creatinine [Mass/volume] in Serum or Plasma"
            }
          ],
          "text": "Creatinine [Mass/volume] in Serum or Plasma"
        },
        "valueQuantity": {
          "system": "http://unitsofmeasure.org",
          "value": 2,
          "unit": "mg/dL",
          "code": "mg/dL"
        },
        "referenceRange": [
          {
            "low": {
              "value": 0.9,
              "code": "mg/dL",
              "system": "http://unitsofmeasure.org"
            }
          },
          {
            "high": {
              "value": 1.3,
              "code": "mg/dL",
              "system": "http://unitsofmeasure.org"
            }
          }
        ],
        "interpretation": [
          {
            "coding": [
              {
                "code": "H",
                "system": "http://terminology.hl7.org/CodeSystem/v3-ObservationInterpretation",
                "display": "High"
              }
            ]
          }
        ],
        "text": {
          "status": "generated",
          "div": "<div xmlns=\"http://www.w3.org/1999/xhtml\"><table class=\"hl7__eu__lab__report\"><tr><th>Test</th><th>31-Dec-2021</th><th>Reference&#xA0;Range</th><th>Unit</th></tr><tr><td>Creatinine [Mass/volume] in Serum or Plasma</td><td>2.0</td><td>0.9 - 1.3</td><td>H</td><td>mg/dL</td></tr></table></div>"
        },
        "status": "final",
        "subject": {
          "reference": "urn:uuid:967b43cb-dde4-4b4d-b43f-605d3d170c2b",
          "display": "Victor Lagarde"
        },
        "effectiveDateTime": "2021-12-31T04:48:18Z",
        "specimen": {
          "reference": "urn:uuid:6f3315c1-5473-47e5-9248-c50b89d1eed2"
        }
      }
    },
    {
      "fullUrl": "urn:uuid:debf80e2-7e6b-4aa3-b129-9b9acdaf4e72",
      "resource": {
        "resourceType": "Observation",
        "id": "debf80e2-7e6b-4aa3-b129-9b9acdaf4e72",
        "meta": {
          "profile": [
            "http://hl7.eu/fhir/laboratory/StructureDefinition/Observation-resultslab-eu-lab"
          ]
        },
        "performer": [
          {
            "display": "The Central European Lab"
          }
        ],
        "category": [
          {
            "coding": [
              {
                "system": "http://terminology.hl7.org/CodeSystem/observation-category",
                "code": "laboratory"
              }
            ]
          }
        ],
        "code": {
          "coding": [
            {
              "code": "17861-6",
              "system": "http://loinc.org",
              "display": "Calcium [Mass/volume] in Serum or Plasma"
            }
          ],
          "text": "Calcium [Mass/volume] in Serum or Plasma"
        },
        "valueQuantity": {
          "system": "http://unitsofmeasure.org",
          "value": 9.6,
          "unit": "mg/dL",
          "code": "mg/dL"
        },
        "referenceRange": [
          {
            "low": {
              "value": 8.5,
              "code": "mg/dL",
              "system": "http://unitsofmeasure.org"
            }
          },
          {
            "high": {
              "value": 10.5,
              "code": "mg/dL",
              "system": "http://unitsofmeasure.org"
            }
          }
        ],
        "text": {
          "status": "generated",
          "div": "<div xmlns=\"http://www.w3.org/1999/xhtml\"><table class=\"hl7__eu__lab__report\"><tr><th>Test</th><th>31-Dec-2021</th><th>Reference&#xA0;Range</th><th>Unit</th></tr><tr><td>Calcium [Mass/volume] in Serum or Plasma</td><td>9.6</td><td>8.5 - 10.5</td><td></td><td>mg/dL</td></tr></table></div>"
        },
        "status": "final",
        "subject": {
          "reference": "urn:uuid:967b43cb-dde4-4b4d-b43f-605d3d170c2b",
          "display": "Victor Lagarde"
        },
        "effectiveDateTime": "2021-12-31T04:48:18Z",
        "specimen": {
          "reference": "urn:uuid:6f3315c1-5473-47e5-9248-c50b89d1eed2"
        }
      }
    },
    {
      "fullUrl": "urn:uuid:7d7896ed-7570-4bd3-8963-8954e82a10c0",
      "resource": {
        "resourceType": "Observation",
        "id": "7d7896ed-7570-4bd3-8963-8954e82a10c0",
        "meta": {
          "profile": [
            "http://hl7.eu/fhir/laboratory/StructureDefinition/Observation-resultslab-eu-lab"
          ]
        },
        "performer": [
          {
            "display": "The Central European Lab"
          }
        ],
        "category": [
          {
            "coding": [
              {
                "system": "http://terminology.hl7.org/CodeSystem/observation-category",
                "code": "laboratory"
              }
            ]
          }
        ],
        "code": {
          "coding": [
            {
              "code": "2951-2",
              "system": "http://loinc.org",
              "display": "Sodium [Moles/volume] in Serum or Plasma"
            }
          ],
          "text": "Sodium [Moles/volume] in Serum or Plasma"
        },
        "valueQuantity": {
          "system": "http://unitsofmeasure.org",
          "value": 142.7,
          "unit": "mmol/L",
          "code": "mmol/L"
        },
        "referenceRange": [
          {
            "low": {
              "value": 135,
              "code": "mmol/L",
              "system": "http://unitsofmeasure.org"
            }
          },
          {
            "high": {
              "value": 145,
              "code": "mmol/L",
              "system": "http://unitsofmeasure.org"
            }
          }
        ],
        "text": {
          "status": "generated",
          "div": "<div xmlns=\"http://www.w3.org/1999/xhtml\"><table class=\"hl7__eu__lab__report\"><tr><th>Test</th><th>31-Dec-2021</th><th>Reference&#xA0;Range</th><th>Unit</th></tr><tr><td>Sodium [Moles/volume] in Serum or Plasma</td><td>142.7</td><td>135 - 145</td><td></td><td>mmol/L</td></tr></table></div>"
        },
        "status": "final",
        "subject": {
          "reference": "urn:uuid:967b43cb-dde4-4b4d-b43f-605d3d170c2b",
          "display": "Victor Lagarde"
        },
        "effectiveDateTime": "2021-12-31T04:48:18Z",
        "specimen": {
          "reference": "urn:uuid:6f3315c1-5473-47e5-9248-c50b89d1eed2"
        }
      }
    },
    {
      "fullUrl": "urn:uuid:c74de074-a282-493e-b080-819916bf3ad3",
      "resource": {
        "resourceType": "Observation",
        "id": "c74de074-a282-493e-b080-819916bf3ad3",
        "meta": {
          "profile": [
            "http://hl7.eu/fhir/laboratory/StructureDefinition/Observation-resultslab-eu-lab"
          ]
        },
        "performer": [
          {
            "display": "The Central European Lab"
          }
        ],
        "category": [
          {
            "coding": [
              {
                "system": "http://terminology.hl7.org/CodeSystem/observation-category",
                "code": "laboratory"
              }
            ]
          }
        ],
        "code": {
          "coding": [
            {
              "code": "2823-3",
              "system": "http://loinc.org",
              "display": "Potassium [Moles/volume] in Serum or Plasma"
            }
          ],
          "text": "Potassium [Moles/volume] in Serum or Plasma"
        },
        "valueQuantity": {
          "system": "http://unitsofmeasure.org",
          "value": 4.3,
          "unit": "mmol/L",
          "code": "mmol/L"
        },
        "referenceRange": [
          {
            "low": {
              "value": 3.5,
              "code": "mmol/L",
              "system": "http://unitsofmeasure.org"
            }
          },
          {
            "high": {
              "value": 5.3,
              "code": "mmol/L",
              "system": "http://unitsofmeasure.org"
            }
          }
        ],
        "text": {
          "status": "generated",
          "div": "<div xmlns=\"http://www.w3.org/1999/xhtml\"><table class=\"hl7__eu__lab__report\"><tr><th>Test</th><th>31-Dec-2021</th><th>Reference&#xA0;Range</th><th>Unit</th></tr><tr><td>Potassium [Moles/volume] in Serum or Plasma</td><td>4.3</td><td>3.5 - 5.3</td><td></td><td>mmol/L</td></tr></table></div>"
        },
        "status": "final",
        "subject": {
          "reference": "urn:uuid:967b43cb-dde4-4b4d-b43f-605d3d170c2b",
          "display": "Victor Lagarde"
        },
        "effectiveDateTime": "2021-12-31T04:48:18Z",
        "specimen": {
          "reference": "urn:uuid:6f3315c1-5473-47e5-9248-c50b89d1eed2"
        }
      }
    },
    {
      "fullUrl": "urn:uuid:b2e47b72-5d63-4ac5-9fed-f037e1e5fde4",
      "resource": {
        "resourceType": "Observation",
        "id": "b2e47b72-5d63-4ac5-9fed-f037e1e5fde4",
        "meta": {
          "profile": [
            "http://hl7.eu/fhir/laboratory/StructureDefinition/Observation-resultslab-eu-lab"
          ]
        },
        "performer": [
          {
            "display": "The Central European Lab"
          }
        ],
        "category": [
          {
            "coding": [
              {
                "system": "http://terminology.hl7.org/CodeSystem/observation-category",
                "code": "laboratory"
              }
            ]
          }
        ],
        "code": {
          "coding": [
            {
              "code": "2075-0",
              "system": "http://loinc.org",
              "display": "Chloride [Moles/volume] in Serum or Plasma"
            }
          ],
          "text": "Chloride [Moles/volume] in Serum or Plasma"
        },
        "valueQuantity": {
          "system": "http://unitsofmeasure.org",
          "value": 110.8,
          "unit": "mmol/L",
          "code": "mmol/L"
        },
        "referenceRange": [
          {
            "low": {
              "value": 98,
              "code": "mmol/L",
              "system": "http://unitsofmeasure.org"
            }
          },
          {
            "high": {
              "value": 107,
              "code": "mmol/L",
              "system": "http://unitsofmeasure.org"
            }
          }
        ],
        "interpretation": [
          {
            "coding": [
              {
                "code": "H",
                "system": "http://terminology.hl7.org/CodeSystem/v3-ObservationInterpretation",
                "display": "High"
              }
            ]
          }
        ],
        "text": {
          "status": "generated",
          "div": "<div xmlns=\"http://www.w3.org/1999/xhtml\"><table class=\"hl7__eu__lab__report\"><tr><th>Test</th><th>31-Dec-2021</th><th>Reference&#xA0;Range</th><th>Unit</th></tr><tr><td>Chloride [Moles/volume] in Serum or Plasma</td><td>110.8</td><td>98 - 107</td><td>H</td><td>mmol/L</td></tr></table></div>"
        },
        "status": "final",
        "subject": {
          "reference": "urn:uuid:967b43cb-dde4-4b4d-b43f-605d3d170c2b",
          "display": "Victor Lagarde"
        },
        "effectiveDateTime": "2021-12-31T04:48:18Z",
        "specimen": {
          "reference": "urn:uuid:6f3315c1-5473-47e5-9248-c50b89d1eed2"
        }
      }
    },
    {
      "fullUrl": "urn:uuid:5ccbaab4-014e-4e22-96d5-cbe9b596d3f4",
      "resource": {
        "resourceType": "Observation",
        "id": "5ccbaab4-014e-4e22-96d5-cbe9b596d3f4",
        "meta": {
          "profile": [
            "http://hl7.eu/fhir/laboratory/StructureDefinition/Observation-resultslab-eu-lab"
          ]
        },
        "performer": [
          {
            "display": "The Central European Lab"
          }
        ],
        "category": [
          {
            "coding": [
              {
                "system": "http://terminology.hl7.org/CodeSystem/observation-category",
                "code": "laboratory"
              }
            ]
          }
        ],
        "code": {
          "coding": [
            {
              "code": "2028-9",
              "system": "http://loinc.org",
              "display": "Carbon dioxide, total [Moles/volume] in Serum or Plasma"
            }
          ],
          "text": "Carbon dioxide, total [Moles/volume] in Serum or Plasma"
        },
        "valueQuantity": {
          "system": "http://unitsofmeasure.org",
          "value": 24.4,
          "unit": "mmol/L",
          "code": "mmol/L"
        },
        "referenceRange": [
          {
            "low": {
              "value": 22,
              "code": "mmol/L",
              "system": "http://unitsofmeasure.org"
            }
          },
          {
            "high": {
              "value": 33,
              "code": "mmol/L",
              "system": "http://unitsofmeasure.org"
            }
          }
        ],
        "text": {
          "status": "generated",
          "div": "<div xmlns=\"http://www.w3.org/1999/xhtml\"><table class=\"hl7__eu__lab__report\"><tr><th>Test</th><th>31-Dec-2021</th><th>Reference&#xA0;Range</th><th>Unit</th></tr><tr><td>Carbon dioxide, total [Moles/volume] in Serum or Plasma</td><td>24.4</td><td>22 - 33</td><td></td><td>mmol/L</td></tr></table></div>"
        },
        "status": "final",
        "subject": {
          "reference": "urn:uuid:967b43cb-dde4-4b4d-b43f-605d3d170c2b",
          "display": "Victor Lagarde"
        },
        "effectiveDateTime": "2021-12-31T04:48:18Z",
        "specimen": {
          "reference": "urn:uuid:6f3315c1-5473-47e5-9248-c50b89d1eed2"
        }
      }
    },
    {
      "fullUrl": "urn:uuid:aae122ec-eb8b-44fb-9d7c-0f94ba674bab",
      "resource": {
        "resourceType": "Observation",
        "id": "aae122ec-eb8b-44fb-9d7c-0f94ba674bab",
        "meta": {
          "profile": [
            "http://hl7.eu/fhir/laboratory/StructureDefinition/Observation-resultslab-eu-lab"
          ]
        },
        "performer": [
          {
            "display": "The Central European Lab"
          }
        ],
        "category": [
          {
            "coding": [
              {
                "system": "http://terminology.hl7.org/CodeSystem/observation-category",
                "code": "laboratory"
              }
            ]
          }
        ],
        "code": {
          "coding": [
            {
              "code": "5767-9",
              "system": "http://loinc.org",
              "display": "Appearance of Urine"
            }
          ],
          "text": "Appearance of Urine"
        },
        "text": {
          "status": "generated",
          "div": "<div xmlns=\"http://www.w3.org/1999/xhtml\"><table class=\"hl7__eu__lab__report\"><tr><th>Test</th><th>31-Dec-2021</th><th>Reference&#xA0;Range</th><th>Unit</th></tr><tr><td>Appearance of Urine</td></tr></table></div>"
        },
        "status": "final",
        "subject": {
          "reference": "urn:uuid:967b43cb-dde4-4b4d-b43f-605d3d170c2b",
          "display": "Victor Lagarde"
        },
        "effectiveDateTime": "2021-12-31T04:48:18Z",
        "specimen": {
          "reference": "urn:uuid:8746a5ec-9955-4b77-8d8b-5f356db1439a"
        }
      }
    },
    {
      "fullUrl": "urn:uuid:3961c549-9404-4045-a08e-68c52563511f",
      "resource": {
        "resourceType": "Observation",
        "id": "3961c549-9404-4045-a08e-68c52563511f",
        "meta": {
          "profile": [
            "http://hl7.eu/fhir/laboratory/StructureDefinition/Observation-resultslab-eu-lab"
          ]
        },
        "performer": [
          {
            "display": "The Central European Lab"
          }
        ],
        "category": [
          {
            "coding": [
              {
                "system": "http://terminology.hl7.org/CodeSystem/observation-category",
                "code": "laboratory"
              }
            ]
          }
        ],
        "code": {
          "coding": [
            {
              "code": "34533-0",
              "system": "http://loinc.org",
              "display": "Odor of Urine"
            }
          ],
          "text": "Odor of Urine"
        },
        "text": {
          "status": "generated",
          "div": "<div xmlns=\"http://www.w3.org/1999/xhtml\"><table class=\"hl7__eu__lab__report\"><tr><th>Test</th><th>31-Dec-2021</th><th>Reference&#xA0;Range</th><th>Unit</th></tr><tr><td>Odor of Urine</td></tr></table></div>"
        },
        "status": "final",
        "subject": {
          "reference": "urn:uuid:967b43cb-dde4-4b4d-b43f-605d3d170c2b",
          "display": "Victor Lagarde"
        },
        "effectiveDateTime": "2021-12-31T04:48:18Z",
        "specimen": {
          "reference": "urn:uuid:8746a5ec-9955-4b77-8d8b-5f356db1439a"
        }
      }
    },
    {
      "fullUrl": "urn:uuid:9e53ff9e-3d45-49be-9e24-01f9275b0272",
      "resource": {
        "resourceType": "Observation",
        "id": "9e53ff9e-3d45-49be-9e24-01f9275b0272",
        "meta": {
          "profile": [
            "http://hl7.eu/fhir/laboratory/StructureDefinition/Observation-resultslab-eu-lab"
          ]
        },
        "performer": [
          {
            "display": "The Central European Lab"
          }
        ],
        "category": [
          {
            "coding": [
              {
                "system": "http://terminology.hl7.org/CodeSystem/observation-category",
                "code": "laboratory"
              }
            ]
          }
        ],
        "code": {
          "coding": [
            {
              "code": "32167-9",
              "system": "http://loinc.org",
              "display": "Clarity of Urine"
            }
          ],
          "text": "Clarity of Urine"
        },
        "text": {
          "status": "generated",
          "div": "<div xmlns=\"http://www.w3.org/1999/xhtml\"><table class=\"hl7__eu__lab__report\"><tr><th>Test</th><th>31-Dec-2021</th><th>Reference&#xA0;Range</th><th>Unit</th></tr><tr><td>Clarity of Urine</td></tr></table></div>"
        },
        "status": "final",
        "subject": {
          "reference": "urn:uuid:967b43cb-dde4-4b4d-b43f-605d3d170c2b",
          "display": "Victor Lagarde"
        },
        "effectiveDateTime": "2021-12-31T04:48:18Z",
        "specimen": {
          "reference": "urn:uuid:8746a5ec-9955-4b77-8d8b-5f356db1439a"
        }
      }
    },
    {
      "fullUrl": "urn:uuid:cadea014-f499-4bca-8f69-941d03c26b6b",
      "resource": {
        "resourceType": "Observation",
        "id": "cadea014-f499-4bca-8f69-941d03c26b6b",
        "meta": {
          "profile": [
            "http://hl7.eu/fhir/laboratory/StructureDefinition/Observation-resultslab-eu-lab"
          ]
        },
        "performer": [
          {
            "display": "The Central European Lab"
          }
        ],
        "category": [
          {
            "coding": [
              {
                "system": "http://terminology.hl7.org/CodeSystem/observation-category",
                "code": "laboratory"
              }
            ]
          }
        ],
        "code": {
          "coding": [
            {
              "code": "5778-6",
              "system": "http://loinc.org",
              "display": "Color of Urine"
            }
          ],
          "text": "Color of Urine"
        },
        "text": {
          "status": "generated",
          "div": "<div xmlns=\"http://www.w3.org/1999/xhtml\"><table class=\"hl7__eu__lab__report\"><tr><th>Test</th><th>31-Dec-2021</th><th>Reference&#xA0;Range</th><th>Unit</th></tr><tr><td>Color of Urine</td></tr></table></div>"
        },
        "status": "final",
        "subject": {
          "reference": "urn:uuid:967b43cb-dde4-4b4d-b43f-605d3d170c2b",
          "display": "Victor Lagarde"
        },
        "effectiveDateTime": "2021-12-31T04:48:18Z",
        "specimen": {
          "reference": "urn:uuid:8746a5ec-9955-4b77-8d8b-5f356db1439a"
        }
      }
    },
    {
      "fullUrl": "urn:uuid:f0553f8c-0ea3-4ac6-93c3-d063aa5a1a09",
      "resource": {
        "resourceType": "Observation",
        "id": "f0553f8c-0ea3-4ac6-93c3-d063aa5a1a09",
        "meta": {
          "profile": [
            "http://hl7.eu/fhir/laboratory/StructureDefinition/Observation-resultslab-eu-lab"
          ]
        },
        "performer": [
          {
            "display": "The Central European Lab"
          }
        ],
        "category": [
          {
            "coding": [
              {
                "system": "http://terminology.hl7.org/CodeSystem/observation-category",
                "code": "laboratory"
              }
            ]
          }
        ],
        "code": {
          "coding": [
            {
              "code": "5792-7",
              "system": "http://loinc.org",
              "display": "Glucose [Mass/volume] in Urine by Test strip"
            }
          ],
          "text": "Glucose [Mass/volume] in Urine by Test strip"
        },
        "valueQuantity": {
          "system": "http://unitsofmeasure.org",
          "value": 0.9,
          "unit": "mg/dL",
          "code": "mg/dL"
        },
        "referenceRange": [
          {
            "low": {
              "value": 0,
              "code": "mg/dL",
              "system": "http://unitsofmeasure.org"
            }
          },
          {
            "high": {
              "value": 0.8,
              "code": "mg/dL",
              "system": "http://unitsofmeasure.org"
            }
          }
        ],
        "interpretation": [
          {
            "coding": [
              {
                "code": "H",
                "system": "http://terminology.hl7.org/CodeSystem/v3-ObservationInterpretation",
                "display": "High"
              }
            ]
          }
        ],
        "text": {
          "status": "generated",
          "div": "<div xmlns=\"http://www.w3.org/1999/xhtml\"><table class=\"hl7__eu__lab__report\"><tr><th>Test</th><th>31-Dec-2021</th><th>Reference&#xA0;Range</th><th>Unit</th></tr><tr><td>Glucose [Mass/volume] in Urine by Test strip</td><td>0.9</td><td>0 - 0.8</td><td>H</td><td>mg/dL</td></tr></table></div>"
        },
        "status": "final",
        "subject": {
          "reference": "urn:uuid:967b43cb-dde4-4b4d-b43f-605d3d170c2b",
          "display": "Victor Lagarde"
        },
        "effectiveDateTime": "2021-12-31T04:48:18Z",
        "specimen": {
          "reference": "urn:uuid:8746a5ec-9955-4b77-8d8b-5f356db1439a"
        }
      }
    },
    {
      "fullUrl": "urn:uuid:f74dbf25-4cc8-4a46-814d-e0ac34f2693b",
      "resource": {
        "resourceType": "Observation",
        "id": "f74dbf25-4cc8-4a46-814d-e0ac34f2693b",
        "meta": {
          "profile": [
            "http://hl7.eu/fhir/laboratory/StructureDefinition/Observation-resultslab-eu-lab"
          ]
        },
        "performer": [
          {
            "display": "The Central European Lab"
          }
        ],
        "category": [
          {
            "coding": [
              {
                "system": "http://terminology.hl7.org/CodeSystem/observation-category",
                "code": "laboratory"
              }
            ]
          }
        ],
        "code": {
          "coding": [
            {
              "code": "25428-4",
              "system": "http://loinc.org",
              "display": "Glucose [Presence] in Urine by Test strip"
            }
          ],
          "text": "Glucose [Presence] in Urine by Test strip"
        },
        "text": {
          "status": "generated",
          "div": "<div xmlns=\"http://www.w3.org/1999/xhtml\"><table class=\"hl7__eu__lab__report\"><tr><th>Test</th><th>31-Dec-2021</th><th>Reference&#xA0;Range</th><th>Unit</th></tr><tr><td>Glucose [Presence] in Urine by Test strip</td></tr></table></div>"
        },
        "status": "final",
        "subject": {
          "reference": "urn:uuid:967b43cb-dde4-4b4d-b43f-605d3d170c2b",
          "display": "Victor Lagarde"
        },
        "effectiveDateTime": "2021-12-31T04:48:18Z",
        "specimen": {
          "reference": "urn:uuid:8746a5ec-9955-4b77-8d8b-5f356db1439a"
        }
      }
    },
    {
      "fullUrl": "urn:uuid:6cb0aff5-33d1-46ba-9aa2-f9da057d67ad",
      "resource": {
        "resourceType": "Observation",
        "id": "6cb0aff5-33d1-46ba-9aa2-f9da057d67ad",
        "meta": {
          "profile": [
            "http://hl7.eu/fhir/laboratory/StructureDefinition/Observation-resultslab-eu-lab"
          ]
        },
        "performer": [
          {
            "display": "The Central European Lab"
          }
        ],
        "category": [
          {
            "coding": [
              {
                "system": "http://terminology.hl7.org/CodeSystem/observation-category",
                "code": "laboratory"
              }
            ]
          }
        ],
        "code": {
          "coding": [
            {
              "code": "20505-4",
              "system": "http://loinc.org",
              "display": "Bilirubin.total [Mass/volume] in Urine by Test strip"
            }
          ],
          "text": "Bilirubin.total [Mass/volume] in Urine by Test strip"
        },
        "valueQuantity": {
          "system": "http://unitsofmeasure.org",
          "value": 1.1,
          "unit": "mg/dL",
          "code": "mg/dL"
        },
        "referenceRange": [
          {
            "low": {
              "value": 0,
              "code": "mg/dL",
              "system": "http://unitsofmeasure.org"
            }
          },
          {
            "high": {
              "value": 1.9,
              "code": "mg/dL",
              "system": "http://unitsofmeasure.org"
            }
          }
        ],
        "text": {
          "status": "generated",
          "div": "<div xmlns=\"http://www.w3.org/1999/xhtml\"><table class=\"hl7__eu__lab__report\"><tr><th>Test</th><th>31-Dec-2021</th><th>Reference&#xA0;Range</th><th>Unit</th></tr><tr><td>Bilirubin.total [Mass/volume] in Urine by Test strip</td><td>1.1</td><td>0 - 1.9</td><td></td><td>mg/dL</td></tr></table></div>"
        },
        "status": "final",
        "subject": {
          "reference": "urn:uuid:967b43cb-dde4-4b4d-b43f-605d3d170c2b",
          "display": "Victor Lagarde"
        },
        "effectiveDateTime": "2021-12-31T04:48:18Z",
        "specimen": {
          "reference": "urn:uuid:8746a5ec-9955-4b77-8d8b-5f356db1439a"
        }
      }
    },
    {
      "fullUrl": "urn:uuid:8cdaba9b-5f58-42d6-ae89-4e550e4c36ba",
      "resource": {
        "resourceType": "Observation",
        "id": "8cdaba9b-5f58-42d6-ae89-4e550e4c36ba",
        "meta": {
          "profile": [
            "http://hl7.eu/fhir/laboratory/StructureDefinition/Observation-resultslab-eu-lab"
          ]
        },
        "performer": [
          {
            "display": "The Central European Lab"
          }
        ],
        "category": [
          {
            "coding": [
              {
                "system": "http://terminology.hl7.org/CodeSystem/observation-category",
                "code": "laboratory"
              }
            ]
          }
        ],
        "code": {
          "coding": [
            {
              "code": "5770-3",
              "system": "http://loinc.org",
              "display": "Bilirubin.total [Presence] in Urine by Test strip"
            }
          ],
          "text": "Bilirubin.total [Presence] in Urine by Test strip"
        },
        "text": {
          "status": "generated",
          "div": "<div xmlns=\"http://www.w3.org/1999/xhtml\"><table class=\"hl7__eu__lab__report\"><tr><th>Test</th><th>31-Dec-2021</th><th>Reference&#xA0;Range</th><th>Unit</th></tr><tr><td>Bilirubin.total [Presence] in Urine by Test strip</td></tr></table></div>"
        },
        "status": "final",
        "subject": {
          "reference": "urn:uuid:967b43cb-dde4-4b4d-b43f-605d3d170c2b",
          "display": "Victor Lagarde"
        },
        "effectiveDateTime": "2021-12-31T04:48:18Z",
        "specimen": {
          "reference": "urn:uuid:8746a5ec-9955-4b77-8d8b-5f356db1439a"
        }
      }
    },
    {
      "fullUrl": "urn:uuid:df432b68-9860-4b62-8d9f-d902f2ebafbe",
      "resource": {
        "resourceType": "Observation",
        "id": "df432b68-9860-4b62-8d9f-d902f2ebafbe",
        "meta": {
          "profile": [
            "http://hl7.eu/fhir/laboratory/StructureDefinition/Observation-resultslab-eu-lab"
          ]
        },
        "performer": [
          {
            "display": "The Central European Lab"
          }
        ],
        "category": [
          {
            "coding": [
              {
                "system": "http://terminology.hl7.org/CodeSystem/observation-category",
                "code": "laboratory"
              }
            ]
          }
        ],
        "code": {
          "coding": [
            {
              "code": "5797-6",
              "system": "http://loinc.org",
              "display": "Ketones [Mass/volume] in Urine by Test strip"
            }
          ],
          "text": "Ketones [Mass/volume] in Urine by Test strip"
        },
        "valueQuantity": {
          "system": "http://unitsofmeasure.org",
          "value": 2.3,
          "unit": "mg/dL",
          "code": "mg/dL"
        },
        "referenceRange": [
          {
            "low": {
              "value": 0,
              "code": "mg/dL",
              "system": "http://unitsofmeasure.org"
            }
          },
          {
            "high": {
              "value": 3,
              "code": "mg/dL",
              "system": "http://unitsofmeasure.org"
            }
          }
        ],
        "text": {
          "status": "generated",
          "div": "<div xmlns=\"http://www.w3.org/1999/xhtml\"><table class=\"hl7__eu__lab__report\"><tr><th>Test</th><th>31-Dec-2021</th><th>Reference&#xA0;Range</th><th>Unit</th></tr><tr><td>Ketones [Mass/volume] in Urine by Test strip</td><td>2.3</td><td>0 - 3</td><td></td><td>mg/dL</td></tr></table></div>"
        },
        "status": "final",
        "subject": {
          "reference": "urn:uuid:967b43cb-dde4-4b4d-b43f-605d3d170c2b",
          "display": "Victor Lagarde"
        },
        "effectiveDateTime": "2021-12-31T04:48:18Z",
        "specimen": {
          "reference": "urn:uuid:8746a5ec-9955-4b77-8d8b-5f356db1439a"
        }
      }
    },
    {
      "fullUrl": "urn:uuid:8bac7c88-892c-4bb2-a688-0febced5f0ff",
      "resource": {
        "resourceType": "Observation",
        "id": "8bac7c88-892c-4bb2-a688-0febced5f0ff",
        "meta": {
          "profile": [
            "http://hl7.eu/fhir/laboratory/StructureDefinition/Observation-resultslab-eu-lab"
          ]
        },
        "performer": [
          {
            "display": "The Central European Lab"
          }
        ],
        "category": [
          {
            "coding": [
              {
                "system": "http://terminology.hl7.org/CodeSystem/observation-category",
                "code": "laboratory"
              }
            ]
          }
        ],
        "code": {
          "coding": [
            {
              "code": "2514-8",
              "system": "http://loinc.org",
              "display": "Ketones [Presence] in Urine by Test strip"
            }
          ],
          "text": "Ketones [Presence] in Urine by Test strip"
        },
        "text": {
          "status": "generated",
          "div": "<div xmlns=\"http://www.w3.org/1999/xhtml\"><table class=\"hl7__eu__lab__report\"><tr><th>Test</th><th>31-Dec-2021</th><th>Reference&#xA0;Range</th><th>Unit</th></tr><tr><td>Ketones [Presence] in Urine by Test strip</td></tr></table></div>"
        },
        "status": "final",
        "subject": {
          "reference": "urn:uuid:967b43cb-dde4-4b4d-b43f-605d3d170c2b",
          "display": "Victor Lagarde"
        },
        "effectiveDateTime": "2021-12-31T04:48:18Z",
        "specimen": {
          "reference": "urn:uuid:8746a5ec-9955-4b77-8d8b-5f356db1439a"
        }
      }
    },
    {
      "fullUrl": "urn:uuid:b4fbbdb3-c931-47e6-9dab-de2221bc6e83",
      "resource": {
        "resourceType": "Observation",
        "id": "b4fbbdb3-c931-47e6-9dab-de2221bc6e83",
        "meta": {
          "profile": [
            "http://hl7.eu/fhir/laboratory/StructureDefinition/Observation-resultslab-eu-lab"
          ]
        },
        "performer": [
          {
            "display": "The Central European Lab"
          }
        ],
        "category": [
          {
            "coding": [
              {
                "system": "http://terminology.hl7.org/CodeSystem/observation-category",
                "code": "laboratory"
              }
            ]
          }
        ],
        "code": {
          "coding": [
            {
              "code": "5811-5",
              "system": "http://loinc.org",
              "display": "Specific gravity of Urine by Test strip"
            }
          ],
          "text": "Specific gravity of Urine by Test strip"
        },
        "valueQuantity": {
          "system": "http://unitsofmeasure.org",
          "value": 1,
          "unit": "{nominal}",
          "code": "{nominal}"
        },
        "referenceRange": [
          {
            "low": {
              "value": 1.01,
              "code": "g/mL",
              "system": "http://unitsofmeasure.org"
            }
          },
          {
            "high": {
              "value": 1.03,
              "code": "g/mL",
              "system": "http://unitsofmeasure.org"
            }
          }
        ],
        "interpretation": [
          {
            "coding": [
              {
                "code": "L",
                "system": "http://terminology.hl7.org/CodeSystem/v3-ObservationInterpretation",
                "display": "Low"
              }
            ]
          }
        ],
        "text": {
          "status": "generated",
          "div": "<div xmlns=\"http://www.w3.org/1999/xhtml\"><table class=\"hl7__eu__lab__report\"><tr><th>Test</th><th>31-Dec-2021</th><th>Reference&#xA0;Range</th><th>Unit</th></tr><tr><td>Specific gravity of Urine by Test strip</td><td>1.0</td><td>1.01 - 1.03</td><td>L</td><td>{nominal}</td></tr></table></div>"
        },
        "status": "final",
        "subject": {
          "reference": "urn:uuid:967b43cb-dde4-4b4d-b43f-605d3d170c2b",
          "display": "Victor Lagarde"
        },
        "effectiveDateTime": "2021-12-31T04:48:18Z",
        "specimen": {
          "reference": "urn:uuid:8746a5ec-9955-4b77-8d8b-5f356db1439a"
        }
      }
    },
    {
      "fullUrl": "urn:uuid:37202c2d-bd19-4164-9f4a-c64098a93489",
      "resource": {
        "resourceType": "Observation",
        "id": "37202c2d-bd19-4164-9f4a-c64098a93489",
        "meta": {
          "profile": [
            "http://hl7.eu/fhir/laboratory/StructureDefinition/Observation-resultslab-eu-lab"
          ]
        },
        "performer": [
          {
            "display": "The Central European Lab"
          }
        ],
        "category": [
          {
            "coding": [
              {
                "system": "http://terminology.hl7.org/CodeSystem/observation-category",
                "code": "laboratory"
              }
            ]
          }
        ],
        "code": {
          "coding": [
            {
              "code": "5803-2",
              "system": "http://loinc.org",
              "display": "pH of Urine by Test strip"
            }
          ],
          "text": "pH of Urine by Test strip"
        },
        "valueQuantity": {
          "system": "http://unitsofmeasure.org",
          "value": 6,
          "unit": "pH",
          "code": "pH"
        },
        "referenceRange": [
          {
            "low": {
              "value": 4.5,
              "code": "pH",
              "system": "http://unitsofmeasure.org"
            }
          },
          {
            "high": {
              "value": 7.5,
              "code": "pH",
              "system": "http://unitsofmeasure.org"
            }
          }
        ],
        "text": {
          "status": "generated",
          "div": "<div xmlns=\"http://www.w3.org/1999/xhtml\"><table class=\"hl7__eu__lab__report\"><tr><th>Test</th><th>31-Dec-2021</th><th>Reference&#xA0;Range</th><th>Unit</th></tr><tr><td>pH of Urine by Test strip</td><td>6.0</td><td>4.5 - 7.5</td><td></td><td>pH</td></tr></table></div>"
        },
        "status": "final",
        "subject": {
          "reference": "urn:uuid:967b43cb-dde4-4b4d-b43f-605d3d170c2b",
          "display": "Victor Lagarde"
        },
        "effectiveDateTime": "2021-12-31T04:48:18Z",
        "specimen": {
          "reference": "urn:uuid:8746a5ec-9955-4b77-8d8b-5f356db1439a"
        }
      }
    },
    {
      "fullUrl": "urn:uuid:7c8de8d6-8494-4ecf-a3dc-45d739c195bd",
      "resource": {
        "resourceType": "Observation",
        "id": "7c8de8d6-8494-4ecf-a3dc-45d739c195bd",
        "meta": {
          "profile": [
            "http://hl7.eu/fhir/laboratory/StructureDefinition/Observation-resultslab-eu-lab"
          ]
        },
        "performer": [
          {
            "display": "The Central European Lab"
          }
        ],
        "category": [
          {
            "coding": [
              {
                "system": "http://terminology.hl7.org/CodeSystem/observation-category",
                "code": "laboratory"
              }
            ]
          }
        ],
        "code": {
          "coding": [
            {
              "code": "5804-0",
              "system": "http://loinc.org",
              "display": "Protein [Mass/volume] in Urine by Test strip"
            }
          ],
          "text": "Protein [Mass/volume] in Urine by Test strip"
        },
        "valueQuantity": {
          "system": "http://unitsofmeasure.org",
          "value": 217.5,
          "unit": "mg/dL",
          "code": "mg/dL"
        },
        "referenceRange": [
          {
            "low": {
              "value": 0,
              "code": "mg/dL",
              "system": "http://unitsofmeasure.org"
            }
          },
          {
            "high": {
              "value": 149,
              "code": "mg/dL",
              "system": "http://unitsofmeasure.org"
            }
          }
        ],
        "interpretation": [
          {
            "coding": [
              {
                "code": "H",
                "system": "http://terminology.hl7.org/CodeSystem/v3-ObservationInterpretation",
                "display": "High"
              }
            ]
          }
        ],
        "text": {
          "status": "generated",
          "div": "<div xmlns=\"http://www.w3.org/1999/xhtml\"><table class=\"hl7__eu__lab__report\"><tr><th>Test</th><th>31-Dec-2021</th><th>Reference&#xA0;Range</th><th>Unit</th></tr><tr><td>Protein [Mass/volume] in Urine by Test strip</td><td>217.5</td><td>0 - 149</td><td>H</td><td>mg/dL</td></tr></table></div>"
        },
        "status": "final",
        "subject": {
          "reference": "urn:uuid:967b43cb-dde4-4b4d-b43f-605d3d170c2b",
          "display": "Victor Lagarde"
        },
        "effectiveDateTime": "2021-12-31T04:48:18Z",
        "specimen": {
          "reference": "urn:uuid:8746a5ec-9955-4b77-8d8b-5f356db1439a"
        }
      }
    },
    {
      "fullUrl": "urn:uuid:76d2af3a-9adf-42f0-97f1-0cb27375ff21",
      "resource": {
        "resourceType": "Observation",
        "id": "76d2af3a-9adf-42f0-97f1-0cb27375ff21",
        "meta": {
          "profile": [
            "http://hl7.eu/fhir/laboratory/StructureDefinition/Observation-resultslab-eu-lab"
          ]
        },
        "performer": [
          {
            "display": "The Central European Lab"
          }
        ],
        "category": [
          {
            "coding": [
              {
                "system": "http://terminology.hl7.org/CodeSystem/observation-category",
                "code": "laboratory"
              }
            ]
          }
        ],
        "code": {
          "coding": [
            {
              "code": "20454-5",
              "system": "http://loinc.org",
              "display": "Protein [Presence] in Urine by Test strip"
            }
          ],
          "text": "Protein [Presence] in Urine by Test strip"
        },
        "text": {
          "status": "generated",
          "div": "<div xmlns=\"http://www.w3.org/1999/xhtml\"><table class=\"hl7__eu__lab__report\"><tr><th>Test</th><th>31-Dec-2021</th><th>Reference&#xA0;Range</th><th>Unit</th></tr><tr><td>Protein [Presence] in Urine by Test strip</td></tr></table></div>"
        },
        "status": "final",
        "subject": {
          "reference": "urn:uuid:967b43cb-dde4-4b4d-b43f-605d3d170c2b",
          "display": "Victor Lagarde"
        },
        "effectiveDateTime": "2021-12-31T04:48:18Z",
        "specimen": {
          "reference": "urn:uuid:8746a5ec-9955-4b77-8d8b-5f356db1439a"
        }
      }
    },
    {
      "fullUrl": "urn:uuid:0ef3d998-4071-4a65-8898-d316c8d00941",
      "resource": {
        "resourceType": "Observation",
        "id": "0ef3d998-4071-4a65-8898-d316c8d00941",
        "meta": {
          "profile": [
            "http://hl7.eu/fhir/laboratory/StructureDefinition/Observation-resultslab-eu-lab"
          ]
        },
        "performer": [
          {
            "display": "The Central European Lab"
          }
        ],
        "category": [
          {
            "coding": [
              {
                "system": "http://terminology.hl7.org/CodeSystem/observation-category",
                "code": "laboratory"
              }
            ]
          }
        ],
        "code": {
          "coding": [
            {
              "code": "5802-4",
              "system": "http://loinc.org",
              "display": "Nitrite [Presence] in Urine by Test strip"
            }
          ],
          "text": "Nitrite [Presence] in Urine by Test strip"
        },
        "text": {
          "status": "generated",
          "div": "<div xmlns=\"http://www.w3.org/1999/xhtml\"><table class=\"hl7__eu__lab__report\"><tr><th>Test</th><th>31-Dec-2021</th><th>Reference&#xA0;Range</th><th>Unit</th></tr><tr><td>Nitrite [Presence] in Urine by Test strip</td></tr></table></div>"
        },
        "status": "final",
        "subject": {
          "reference": "urn:uuid:967b43cb-dde4-4b4d-b43f-605d3d170c2b",
          "display": "Victor Lagarde"
        },
        "effectiveDateTime": "2021-12-31T04:48:18Z",
        "specimen": {
          "reference": "urn:uuid:8746a5ec-9955-4b77-8d8b-5f356db1439a"
        }
      }
    },
    {
      "fullUrl": "urn:uuid:526e834f-72c4-425e-b76c-2b0f7886ab37",
      "resource": {
        "resourceType": "Observation",
        "id": "526e834f-72c4-425e-b76c-2b0f7886ab37",
        "meta": {
          "profile": [
            "http://hl7.eu/fhir/laboratory/StructureDefinition/Observation-resultslab-eu-lab"
          ]
        },
        "performer": [
          {
            "display": "The Central European Lab"
          }
        ],
        "category": [
          {
            "coding": [
              {
                "system": "http://terminology.hl7.org/CodeSystem/observation-category",
                "code": "laboratory"
              }
            ]
          }
        ],
        "code": {
          "coding": [
            {
              "code": "5794-3",
              "system": "http://loinc.org",
              "display": "Hemoglobin [Presence] in Urine by Test strip"
            }
          ],
          "text": "Hemoglobin [Presence] in Urine by Test strip"
        },
        "text": {
          "status": "generated",
          "div": "<div xmlns=\"http://www.w3.org/1999/xhtml\"><table class=\"hl7__eu__lab__report\"><tr><th>Test</th><th>31-Dec-2021</th><th>Reference&#xA0;Range</th><th>Unit</th></tr><tr><td>Hemoglobin [Presence] in Urine by Test strip</td></tr></table></div>"
        },
        "status": "final",
        "subject": {
          "reference": "urn:uuid:967b43cb-dde4-4b4d-b43f-605d3d170c2b",
          "display": "Victor Lagarde"
        },
        "effectiveDateTime": "2021-12-31T04:48:18Z",
        "specimen": {
          "reference": "urn:uuid:8746a5ec-9955-4b77-8d8b-5f356db1439a"
        }
      }
    },
    {
      "fullUrl": "urn:uuid:98b6fc5c-797f-430e-a6e6-34c4c1dd440e",
      "resource": {
        "resourceType": "Observation",
        "id": "98b6fc5c-797f-430e-a6e6-34c4c1dd440e",
        "meta": {
          "profile": [
            "http://hl7.eu/fhir/laboratory/StructureDefinition/Observation-resultslab-eu-lab"
          ]
        },
        "performer": [
          {
            "display": "The Central European Lab"
          }
        ],
        "category": [
          {
            "coding": [
              {
                "system": "http://terminology.hl7.org/CodeSystem/observation-category",
                "code": "laboratory"
              }
            ]
          }
        ],
        "code": {
          "coding": [
            {
              "code": "5799-2",
              "system": "http://loinc.org",
              "display": "Leukocyte esterase [Presence] in Urine by Test strip"
            }
          ],
          "text": "Leukocyte esterase [Presence] in Urine by Test strip"
        },
        "text": {
          "status": "generated",
          "div": "<div xmlns=\"http://www.w3.org/1999/xhtml\"><table class=\"hl7__eu__lab__report\"><tr><th>Test</th><th>31-Dec-2021</th><th>Reference&#xA0;Range</th><th>Unit</th></tr><tr><td>Leukocyte esterase [Presence] in Urine by Test strip</td></tr></table></div>"
        },
        "status": "final",
        "subject": {
          "reference": "urn:uuid:967b43cb-dde4-4b4d-b43f-605d3d170c2b",
          "display": "Victor Lagarde"
        },
        "effectiveDateTime": "2021-12-31T04:48:18Z",
        "specimen": {
          "reference": "urn:uuid:8746a5ec-9955-4b77-8d8b-5f356db1439a"
        }
      }
    },
    {
      "fullUrl": "urn:uuid:948d44b2-fb2f-4317-94f9-706e1f7defac",
      "resource": {
        "resourceType": "Observation",
        "id": "948d44b2-fb2f-4317-94f9-706e1f7defac",
        "meta": {
          "profile": [
            "http://hl7.eu/fhir/laboratory/StructureDefinition/Observation-resultslab-eu-lab"
          ]
        },
        "performer": [
          {
            "display": "The Central European Lab"
          }
        ],
        "category": [
          {
            "coding": [
              {
                "system": "http://terminology.hl7.org/CodeSystem/observation-category",
                "code": "laboratory"
              }
            ]
          }
        ],
        "code": {
          "coding": [
            {
              "code": "4548-4",
              "system": "http://loinc.org",
              "display": "Hemoglobin A1c/Hemoglobin.total in Blood"
            }
          ],
          "text": "Hemoglobin A1c/Hemoglobin.total in Blood"
        },
        "valueQuantity": {
          "system": "http://unitsofmeasure.org",
          "value": 3.2,
          "unit": "%",
          "code": "%"
        },
        "referenceRange": [
          {
            "low": {
              "value": 4.3,
              "code": "%",
              "system": "http://unitsofmeasure.org"
            }
          },
          {
            "high": {
              "value": 6,
              "code": "%",
              "system": "http://unitsofmeasure.org"
            }
          }
        ],
        "interpretation": [
          {
            "coding": [
              {
                "code": "L",
                "system": "http://terminology.hl7.org/CodeSystem/v3-ObservationInterpretation",
                "display": "Low"
              }
            ]
          }
        ],
        "text": {
          "status": "generated",
          "div": "<div xmlns=\"http://www.w3.org/1999/xhtml\"><table class=\"hl7__eu__lab__report\"><tr><th>Test</th><th>31-Dec-2021</th><th>Reference&#xA0;Range</th><th>Unit</th></tr><tr><td>Hemoglobin A1c/Hemoglobin.total in Blood</td><td>3.2</td><td>4.3 - 6</td><td>L</td><td>%</td></tr></table></div>"
        },
        "status": "final",
        "subject": {
          "reference": "urn:uuid:967b43cb-dde4-4b4d-b43f-605d3d170c2b",
          "display": "Victor Lagarde"
        },
        "effectiveDateTime": "2021-12-31T04:48:18Z",
        "specimen": {
          "reference": "urn:uuid:4f49a0ae-667e-4dd0-82d6-9b066352401b"
        }
      }
    },
    {
      "fullUrl": "urn:uuid:4c58be9a-30f5-4d6b-9e0f-81b466485e2c",
      "resource": {
        "resourceType": "Observation",
        "id": "4c58be9a-30f5-4d6b-9e0f-81b466485e2c",
        "meta": {
          "profile": [
            "http://hl7.eu/fhir/laboratory/StructureDefinition/Observation-resultslab-eu-lab"
          ]
        },
        "performer": [
          {
            "display": "The Central European Lab"
          }
        ],
        "category": [
          {
            "coding": [
              {
                "system": "http://terminology.hl7.org/CodeSystem/observation-category",
                "code": "laboratory"
              }
            ]
          }
        ],
        "code": {
          "coding": [
            {
              "code": "2339-0",
              "system": "http://loinc.org",
              "display": "Glucose [Mass/volume] in Blood"
            }
          ],
          "text": "Glucose [Mass/volume] in Blood"
        },
        "valueQuantity": {
          "system": "http://unitsofmeasure.org",
          "value": 90.2,
          "unit": "mg/dL",
          "code": "mg/dL"
        },
        "referenceRange": [
          {
            "low": {
              "value": 70,
              "code": "mg/dL",
              "system": "http://unitsofmeasure.org"
            }
          },
          {
            "high": {
              "value": 140,
              "code": "mg/dL",
              "system": "http://unitsofmeasure.org"
            }
          }
        ],
        "text": {
          "status": "generated",
          "div": "<div xmlns=\"http://www.w3.org/1999/xhtml\"><table class=\"hl7__eu__lab__report\"><tr><th>Test</th><th>31-Dec-2021</th><th>Reference&#xA0;Range</th><th>Unit</th></tr><tr><td>Glucose [Mass/volume] in Blood</td><td>90.2</td><td>70 - 140</td><td></td><td>mg/dL</td></tr></table></div>"
        },
        "status": "final",
        "subject": {
          "reference": "urn:uuid:967b43cb-dde4-4b4d-b43f-605d3d170c2b",
          "display": "Victor Lagarde"
        },
        "effectiveDateTime": "2021-12-31T04:48:18Z",
        "specimen": {
          "reference": "urn:uuid:4f49a0ae-667e-4dd0-82d6-9b066352401b"
        }
      }
    },
    {
      "fullUrl": "urn:uuid:19e0afc8-1052-4096-81ab-bac781ddc2be",
      "resource": {
        "resourceType": "Observation",
        "id": "19e0afc8-1052-4096-81ab-bac781ddc2be",
        "meta": {
          "profile": [
            "http://hl7.eu/fhir/laboratory/StructureDefinition/Observation-resultslab-eu-lab"
          ]
        },
        "performer": [
          {
            "display": "The Central European Lab"
          }
        ],
        "category": [
          {
            "coding": [
              {
                "system": "http://terminology.hl7.org/CodeSystem/observation-category",
                "code": "laboratory"
              }
            ]
          }
        ],
        "code": {
          "coding": [
            {
              "code": "6299-2",
              "system": "http://loinc.org",
              "display": "Urea nitrogen [Mass/volume] in Blood"
            }
          ],
          "text": "Urea nitrogen [Mass/volume] in Blood"
        },
        "valueQuantity": {
          "system": "http://unitsofmeasure.org",
          "value": 18.6,
          "unit": "mg/dL",
          "code": "mg/dL"
        },
        "referenceRange": [
          {
            "low": {
              "value": 7,
              "code": "mg/dL",
              "system": "http://unitsofmeasure.org"
            }
          },
          {
            "high": {
              "value": 20,
              "code": "mg/dL",
              "system": "http://unitsofmeasure.org"
            }
          }
        ],
        "text": {
          "status": "generated",
          "div": "<div xmlns=\"http://www.w3.org/1999/xhtml\"><table class=\"hl7__eu__lab__report\"><tr><th>Test</th><th>31-Dec-2021</th><th>Reference&#xA0;Range</th><th>Unit</th></tr><tr><td>Urea nitrogen [Mass/volume] in Blood</td><td>18.6</td><td>7 - 20</td><td></td><td>mg/dL</td></tr></table></div>"
        },
        "status": "final",
        "subject": {
          "reference": "urn:uuid:967b43cb-dde4-4b4d-b43f-605d3d170c2b",
          "display": "Victor Lagarde"
        },
        "effectiveDateTime": "2021-12-31T04:48:18Z",
        "specimen": {
          "reference": "urn:uuid:4f49a0ae-667e-4dd0-82d6-9b066352401b"
        }
      }
    },
    {
      "fullUrl": "urn:uuid:abf124d8-ea1c-4964-970b-345abd76bb67",
      "resource": {
        "resourceType": "Observation",
        "id": "abf124d8-ea1c-4964-970b-345abd76bb67",
        "meta": {
          "profile": [
            "http://hl7.eu/fhir/laboratory/StructureDefinition/Observation-resultslab-eu-lab"
          ]
        },
        "performer": [
          {
            "display": "The Central European Lab"
          }
        ],
        "category": [
          {
            "coding": [
              {
                "system": "http://terminology.hl7.org/CodeSystem/observation-category",
                "code": "laboratory"
              }
            ]
          }
        ],
        "code": {
          "coding": [
            {
              "code": "38483-4",
              "system": "http://loinc.org",
              "display": "Creatinine [Mass/volume] in Blood"
            }
          ],
          "text": "Creatinine [Mass/volume] in Blood"
        },
        "valueQuantity": {
          "system": "http://unitsofmeasure.org",
          "value": 2.6,
          "unit": "mg/dL",
          "code": "mg/dL"
        },
        "referenceRange": [
          {
            "low": {
              "value": 0.9,
              "code": "mg/dL",
              "system": "http://unitsofmeasure.org"
            }
          },
          {
            "high": {
              "value": 1.3,
              "code": "mg/dL",
              "system": "http://unitsofmeasure.org"
            }
          }
        ],
        "interpretation": [
          {
            "coding": [
              {
                "code": "H",
                "system": "http://terminology.hl7.org/CodeSystem/v3-ObservationInterpretation",
                "display": "High"
              }
            ]
          }
        ],
        "text": {
          "status": "generated",
          "div": "<div xmlns=\"http://www.w3.org/1999/xhtml\"><table class=\"hl7__eu__lab__report\"><tr><th>Test</th><th>31-Dec-2021</th><th>Reference&#xA0;Range</th><th>Unit</th></tr><tr><td>Creatinine [Mass/volume] in Blood</td><td>2.6</td><td>0.9 - 1.3</td><td>H</td><td>mg/dL</td></tr></table></div>"
        },
        "status": "final",
        "subject": {
          "reference": "urn:uuid:967b43cb-dde4-4b4d-b43f-605d3d170c2b",
          "display": "Victor Lagarde"
        },
        "effectiveDateTime": "2021-12-31T04:48:18Z",
        "specimen": {
          "reference": "urn:uuid:4f49a0ae-667e-4dd0-82d6-9b066352401b"
        }
      }
    },
    {
      "fullUrl": "urn:uuid:02b402b1-e109-4732-a414-200a156f6bf0",
      "resource": {
        "resourceType": "Observation",
        "id": "02b402b1-e109-4732-a414-200a156f6bf0",
        "meta": {
          "profile": [
            "http://hl7.eu/fhir/laboratory/StructureDefinition/Observation-resultslab-eu-lab"
          ]
        },
        "performer": [
          {
            "display": "The Central European Lab"
          }
        ],
        "category": [
          {
            "coding": [
              {
                "system": "http://terminology.hl7.org/CodeSystem/observation-category",
                "code": "laboratory"
              }
            ]
          }
        ],
        "code": {
          "coding": [
            {
              "code": "49765-1",
              "system": "http://loinc.org",
              "display": "Calcium [Mass/volume] in Blood"
            }
          ],
          "text": "Calcium [Mass/volume] in Blood"
        },
        "valueQuantity": {
          "system": "http://unitsofmeasure.org",
          "value": 9.6,
          "unit": "mg/dL",
          "code": "mg/dL"
        },
        "referenceRange": [
          {
            "low": {
              "value": 8.5,
              "code": "mg/dL",
              "system": "http://unitsofmeasure.org"
            }
          },
          {
            "high": {
              "value": 10.5,
              "code": "mg/dL",
              "system": "http://unitsofmeasure.org"
            }
          }
        ],
        "text": {
          "status": "generated",
          "div": "<div xmlns=\"http://www.w3.org/1999/xhtml\"><table class=\"hl7__eu__lab__report\"><tr><th>Test</th><th>31-Dec-2021</th><th>Reference&#xA0;Range</th><th>Unit</th></tr><tr><td>Calcium [Mass/volume] in Blood</td><td>9.6</td><td>8.5 - 10.5</td><td></td><td>mg/dL</td></tr></table></div>"
        },
        "status": "final",
        "subject": {
          "reference": "urn:uuid:967b43cb-dde4-4b4d-b43f-605d3d170c2b",
          "display": "Victor Lagarde"
        },
        "effectiveDateTime": "2021-12-31T04:48:18Z",
        "specimen": {
          "reference": "urn:uuid:4f49a0ae-667e-4dd0-82d6-9b066352401b"
        }
      }
    },
    {
      "fullUrl": "urn:uuid:dd3a85ac-0cfb-4173-af9e-148a657ce1a6",
      "resource": {
        "resourceType": "Observation",
        "id": "dd3a85ac-0cfb-4173-af9e-148a657ce1a6",
        "meta": {
          "profile": [
            "http://hl7.eu/fhir/laboratory/StructureDefinition/Observation-resultslab-eu-lab"
          ]
        },
        "performer": [
          {
            "display": "The Central European Lab"
          }
        ],
        "category": [
          {
            "coding": [
              {
                "system": "http://terminology.hl7.org/CodeSystem/observation-category",
                "code": "laboratory"
              }
            ]
          }
        ],
        "code": {
          "coding": [
            {
              "code": "2947-0",
              "system": "http://loinc.org",
              "display": "Sodium [Moles/volume] in Blood"
            }
          ],
          "text": "Sodium [Moles/volume] in Blood"
        },
        "valueQuantity": {
          "system": "http://unitsofmeasure.org",
          "value": 142.7,
          "unit": "mmol/L",
          "code": "mmol/L"
        },
        "referenceRange": [
          {
            "low": {
              "value": 135,
              "code": "mmol/L",
              "system": "http://unitsofmeasure.org"
            }
          },
          {
            "high": {
              "value": 145,
              "code": "mmol/L",
              "system": "http://unitsofmeasure.org"
            }
          }
        ],
        "text": {
          "status": "generated",
          "div": "<div xmlns=\"http://www.w3.org/1999/xhtml\"><table class=\"hl7__eu__lab__report\"><tr><th>Test</th><th>31-Dec-2021</th><th>Reference&#xA0;Range</th><th>Unit</th></tr><tr><td>Sodium [Moles/volume] in Blood</td><td>142.7</td><td>135 - 145</td><td></td><td>mmol/L</td></tr></table></div>"
        },
        "status": "final",
        "subject": {
          "reference": "urn:uuid:967b43cb-dde4-4b4d-b43f-605d3d170c2b",
          "display": "Victor Lagarde"
        },
        "effectiveDateTime": "2021-12-31T04:48:18Z",
        "specimen": {
          "reference": "urn:uuid:4f49a0ae-667e-4dd0-82d6-9b066352401b"
        }
      }
    },
    {
      "fullUrl": "urn:uuid:98f103bc-7863-4a69-8975-e09634db6268",
      "resource": {
        "resourceType": "Observation",
        "id": "98f103bc-7863-4a69-8975-e09634db6268",
        "meta": {
          "profile": [
            "http://hl7.eu/fhir/laboratory/StructureDefinition/Observation-resultslab-eu-lab"
          ]
        },
        "performer": [
          {
            "display": "The Central European Lab"
          }
        ],
        "category": [
          {
            "coding": [
              {
                "system": "http://terminology.hl7.org/CodeSystem/observation-category",
                "code": "laboratory"
              }
            ]
          }
        ],
        "code": {
          "coding": [
            {
              "code": "6298-4",
              "system": "http://loinc.org",
              "display": "Potassium [Moles/volume] in Blood"
            }
          ],
          "text": "Potassium [Moles/volume] in Blood"
        },
        "valueQuantity": {
          "system": "http://unitsofmeasure.org",
          "value": 4.3,
          "unit": "mmol/L",
          "code": "mmol/L"
        },
        "referenceRange": [
          {
            "low": {
              "value": 3.5,
              "code": "mmol/L",
              "system": "http://unitsofmeasure.org"
            }
          },
          {
            "high": {
              "value": 5.1,
              "code": "mmol/L",
              "system": "http://unitsofmeasure.org"
            }
          }
        ],
        "text": {
          "status": "generated",
          "div": "<div xmlns=\"http://www.w3.org/1999/xhtml\"><table class=\"hl7__eu__lab__report\"><tr><th>Test</th><th>31-Dec-2021</th><th>Reference&#xA0;Range</th><th>Unit</th></tr><tr><td>Potassium [Moles/volume] in Blood</td><td>4.3</td><td>3.5 - 5.1</td><td></td><td>mmol/L</td></tr></table></div>"
        },
        "status": "final",
        "subject": {
          "reference": "urn:uuid:967b43cb-dde4-4b4d-b43f-605d3d170c2b",
          "display": "Victor Lagarde"
        },
        "effectiveDateTime": "2021-12-31T04:48:18Z",
        "specimen": {
          "reference": "urn:uuid:4f49a0ae-667e-4dd0-82d6-9b066352401b"
        }
      }
    },
    {
      "fullUrl": "urn:uuid:403776e5-a74a-410f-9836-d0a181c06b52",
      "resource": {
        "resourceType": "Observation",
        "id": "403776e5-a74a-410f-9836-d0a181c06b52",
        "meta": {
          "profile": [
            "http://hl7.eu/fhir/laboratory/StructureDefinition/Observation-resultslab-eu-lab"
          ]
        },
        "performer": [
          {
            "display": "The Central European Lab"
          }
        ],
        "category": [
          {
            "coding": [
              {
                "system": "http://terminology.hl7.org/CodeSystem/observation-category",
                "code": "laboratory"
              }
            ]
          }
        ],
        "code": {
          "coding": [
            {
              "code": "2069-3",
              "system": "http://loinc.org",
              "display": "Chloride [Moles/volume] in Blood"
            }
          ],
          "text": "Chloride [Moles/volume] in Blood"
        },
        "valueQuantity": {
          "system": "http://unitsofmeasure.org",
          "value": 110.8,
          "unit": "mmol/L",
          "code": "mmol/L"
        },
        "referenceRange": [
          {
            "low": {
              "value": 98,
              "code": "mmol/L",
              "system": "http://unitsofmeasure.org"
            }
          },
          {
            "high": {
              "value": 108,
              "code": "mmol/L",
              "system": "http://unitsofmeasure.org"
            }
          }
        ],
        "interpretation": [
          {
            "coding": [
              {
                "code": "H",
                "system": "http://terminology.hl7.org/CodeSystem/v3-ObservationInterpretation",
                "display": "High"
              }
            ]
          }
        ],
        "text": {
          "status": "generated",
          "div": "<div xmlns=\"http://www.w3.org/1999/xhtml\"><table class=\"hl7__eu__lab__report\"><tr><th>Test</th><th>31-Dec-2021</th><th>Reference&#xA0;Range</th><th>Unit</th></tr><tr><td>Chloride [Moles/volume] in Blood</td><td>110.8</td><td>98 - 108</td><td>H</td><td>mmol/L</td></tr></table></div>"
        },
        "status": "final",
        "subject": {
          "reference": "urn:uuid:967b43cb-dde4-4b4d-b43f-605d3d170c2b",
          "display": "Victor Lagarde"
        },
        "effectiveDateTime": "2021-12-31T04:48:18Z",
        "specimen": {
          "reference": "urn:uuid:4f49a0ae-667e-4dd0-82d6-9b066352401b"
        }
      }
    },
    {
      "fullUrl": "urn:uuid:8ab0c94a-7bee-4fc1-90c3-7367b285aef7",
      "resource": {
        "resourceType": "Observation",
        "id": "8ab0c94a-7bee-4fc1-90c3-7367b285aef7",
        "meta": {
          "profile": [
            "http://hl7.eu/fhir/laboratory/StructureDefinition/Observation-resultslab-eu-lab"
          ]
        },
        "performer": [
          {
            "display": "The Central European Lab"
          }
        ],
        "category": [
          {
            "coding": [
              {
                "system": "http://terminology.hl7.org/CodeSystem/observation-category",
                "code": "laboratory"
              }
            ]
          }
        ],
        "code": {
          "coding": [
            {
              "code": "20565-8",
              "system": "http://loinc.org",
              "display": "Carbon dioxide, total [Moles/volume] in Blood"
            }
          ],
          "text": "Carbon dioxide, total [Moles/volume] in Blood"
        },
        "valueQuantity": {
          "system": "http://unitsofmeasure.org",
          "value": 24.4,
          "unit": "mmol/L",
          "code": "mmol/L"
        },
        "referenceRange": [
          {
            "low": {
              "value": 22,
              "code": "mmol/L",
              "system": "http://unitsofmeasure.org"
            }
          },
          {
            "high": {
              "value": 29,
              "code": "mmol/L",
              "system": "http://unitsofmeasure.org"
            }
          }
        ],
        "text": {
          "status": "generated",
          "div": "<div xmlns=\"http://www.w3.org/1999/xhtml\"><table class=\"hl7__eu__lab__report\"><tr><th>Test</th><th>31-Dec-2021</th><th>Reference&#xA0;Range</th><th>Unit</th></tr><tr><td>Carbon dioxide, total [Moles/volume] in Blood</td><td>24.4</td><td>22 - 29</td><td></td><td>mmol/L</td></tr></table></div>"
        },
        "status": "final",
        "subject": {
          "reference": "urn:uuid:967b43cb-dde4-4b4d-b43f-605d3d170c2b",
          "display": "Victor Lagarde"
        },
        "effectiveDateTime": "2021-12-31T04:48:18Z",
        "specimen": {
          "reference": "urn:uuid:4f49a0ae-667e-4dd0-82d6-9b066352401b"
        }
      }
    },
    {
      "fullUrl": "urn:uuid:7d3b13d3-3ab7-4542-b15b-67048078dda3",
      "resource": {
        "resourceType": "Observation",
        "id": "7d3b13d3-3ab7-4542-b15b-67048078dda3",
        "meta": {
          "profile": [
            "http://hl7.eu/fhir/laboratory/StructureDefinition/Observation-resultslab-eu-lab"
          ]
        },
        "performer": [
          {
            "display": "The Central European Lab"
          }
        ],
        "category": [
          {
            "coding": [
              {
                "system": "http://terminology.hl7.org/CodeSystem/observation-category",
                "code": "laboratory"
              }
            ]
          }
        ],
        "code": {
          "coding": [
            {
              "code": "2093-3",
              "system": "http://loinc.org",
              "display": "Cholesterol [Mass/volume] in Serum or Plasma"
            }
          ],
          "text": "Cholesterol [Mass/volume] in Serum or Plasma"
        },
        "valueQuantity": {
          "system": "http://unitsofmeasure.org",
          "value": 191.6,
          "unit": "mg/dL",
          "code": "mg/dL"
        },
        "referenceRange": [
          {
            "low": {
              "value": 0,
              "code": "mg/dL",
              "system": "http://unitsofmeasure.org"
            }
          },
          {
            "high": {
              "value": 200,
              "code": "mg/dL",
              "system": "http://unitsofmeasure.org"
            }
          }
        ],
        "text": {
          "status": "generated",
          "div": "<div xmlns=\"http://www.w3.org/1999/xhtml\"><table class=\"hl7__eu__lab__report\"><tr><th>Test</th><th>31-Dec-2021</th><th>Reference&#xA0;Range</th><th>Unit</th></tr><tr><td>Cholesterol [Mass/volume] in Serum or Plasma</td><td>191.6</td><td>0 - 200</td><td></td><td>mg/dL</td></tr></table></div>"
        },
        "status": "final",
        "subject": {
          "reference": "urn:uuid:967b43cb-dde4-4b4d-b43f-605d3d170c2b",
          "display": "Victor Lagarde"
        },
        "effectiveDateTime": "2021-12-31T04:48:18Z",
        "specimen": {
          "reference": "urn:uuid:6f3315c1-5473-47e5-9248-c50b89d1eed2"
        }
      }
    },
    {
      "fullUrl": "urn:uuid:834cbe82-760c-436d-858c-3e7bfd67fcbf",
      "resource": {
        "resourceType": "Observation",
        "id": "834cbe82-760c-436d-858c-3e7bfd67fcbf",
        "meta": {
          "profile": [
            "http://hl7.eu/fhir/laboratory/StructureDefinition/Observation-resultslab-eu-lab"
          ]
        },
        "performer": [
          {
            "display": "The Central European Lab"
          }
        ],
        "category": [
          {
            "coding": [
              {
                "system": "http://terminology.hl7.org/CodeSystem/observation-category",
                "code": "laboratory"
              }
            ]
          }
        ],
        "code": {
          "coding": [
            {
              "code": "2571-8",
              "system": "http://loinc.org",
              "display": "Triglyceride [Mass/volume] in Serum or Plasma"
            }
          ],
          "text": "Triglyceride [Mass/volume] in Serum or Plasma"
        },
        "valueQuantity": {
          "system": "http://unitsofmeasure.org",
          "value": 102.4,
          "unit": "mg/dL",
          "code": "mg/dL"
        },
        "referenceRange": [
          {
            "low": {
              "value": 0,
              "code": "mg/dL",
              "system": "http://unitsofmeasure.org"
            }
          },
          {
            "high": {
              "value": 199,
              "code": "mg/dL",
              "system": "http://unitsofmeasure.org"
            }
          }
        ],
        "text": {
          "status": "generated",
          "div": "<div xmlns=\"http://www.w3.org/1999/xhtml\"><table class=\"hl7__eu__lab__report\"><tr><th>Test</th><th>31-Dec-2021</th><th>Reference&#xA0;Range</th><th>Unit</th></tr><tr><td>Triglyceride [Mass/volume] in Serum or Plasma</td><td>102.4</td><td>0 - 199</td><td></td><td>mg/dL</td></tr></table></div>"
        },
        "status": "final",
        "subject": {
          "reference": "urn:uuid:967b43cb-dde4-4b4d-b43f-605d3d170c2b",
          "display": "Victor Lagarde"
        },
        "effectiveDateTime": "2021-12-31T04:48:18Z",
        "specimen": {
          "reference": "urn:uuid:6f3315c1-5473-47e5-9248-c50b89d1eed2"
        }
      }
    },
    {
      "fullUrl": "urn:uuid:1ec9c1bb-37cf-442f-96e1-5cb087085be2",
      "resource": {
        "resourceType": "Observation",
        "id": "1ec9c1bb-37cf-442f-96e1-5cb087085be2",
        "meta": {
          "profile": [
            "http://hl7.eu/fhir/laboratory/StructureDefinition/Observation-resultslab-eu-lab"
          ]
        },
        "performer": [
          {
            "display": "The Central European Lab"
          }
        ],
        "category": [
          {
            "coding": [
              {
                "system": "http://terminology.hl7.org/CodeSystem/observation-category",
                "code": "laboratory"
              }
            ]
          }
        ],
        "code": {
          "coding": [
            {
              "code": "18262-6",
              "system": "http://loinc.org",
              "display": "Cholesterol in LDL [Mass/volume] in Serum or Plasma by Direct assay"
            }
          ],
          "text": "Cholesterol in LDL [Mass/volume] in Serum or Plasma by Direct assay"
        },
        "valueQuantity": {
          "system": "http://unitsofmeasure.org",
          "value": 135.7,
          "unit": "mg/dL",
          "code": "mg/dL"
        },
        "referenceRange": [
          {
            "low": {
              "value": 0,
              "code": "mg/dL",
              "system": "http://unitsofmeasure.org"
            }
          },
          {
            "high": {
              "value": 130,
              "code": "mg/dL",
              "system": "http://unitsofmeasure.org"
            }
          }
        ],
        "interpretation": [
          {
            "coding": [
              {
                "code": "H",
                "system": "http://terminology.hl7.org/CodeSystem/v3-ObservationInterpretation",
                "display": "High"
              }
            ]
          }
        ],
        "text": {
          "status": "generated",
          "div": "<div xmlns=\"http://www.w3.org/1999/xhtml\"><table class=\"hl7__eu__lab__report\"><tr><th>Test</th><th>31-Dec-2021</th><th>Reference&#xA0;Range</th><th>Unit</th></tr><tr><td>Cholesterol in LDL [Mass/volume] in Serum or Plasma by Direct assay</td><td>135.7</td><td>0 - 130</td><td>H</td><td>mg/dL</td></tr></table></div>"
        },
        "status": "final",
        "subject": {
          "reference": "urn:uuid:967b43cb-dde4-4b4d-b43f-605d3d170c2b",
          "display": "Victor Lagarde"
        },
        "effectiveDateTime": "2021-12-31T04:48:18Z",
        "specimen": {
          "reference": "urn:uuid:6f3315c1-5473-47e5-9248-c50b89d1eed2"
        }
      }
    },
    {
      "fullUrl": "urn:uuid:b4a12870-c8fa-401c-819a-076014ca8e47",
      "resource": {
        "resourceType": "Observation",
        "id": "b4a12870-c8fa-401c-819a-076014ca8e47",
        "meta": {
          "profile": [
            "http://hl7.eu/fhir/laboratory/StructureDefinition/Observation-resultslab-eu-lab"
          ]
        },
        "performer": [
          {
            "display": "The Central European Lab"
          }
        ],
        "category": [
          {
            "coding": [
              {
                "system": "http://terminology.hl7.org/CodeSystem/observation-category",
                "code": "laboratory"
              }
            ]
          }
        ],
        "code": {
          "coding": [
            {
              "code": "2085-9",
              "system": "http://loinc.org",
              "display": "Cholesterol in HDL [Mass/volume] in Serum or Plasma"
            }
          ],
          "text": "Cholesterol in HDL [Mass/volume] in Serum or Plasma"
        },
        "valueQuantity": {
          "system": "http://unitsofmeasure.org",
          "value": 35.4,
          "unit": "mg/dL",
          "code": "mg/dL"
        },
        "referenceRange": [
          {
            "low": {
              "value": 40,
              "code": "mg/dL",
              "system": "http://unitsofmeasure.org"
            }
          },
          {
            "high": {
              "value": 100,
              "code": "mg/dL",
              "system": "http://unitsofmeasure.org"
            }
          }
        ],
        "interpretation": [
          {
            "coding": [
              {
                "code": "L",
                "system": "http://terminology.hl7.org/CodeSystem/v3-ObservationInterpretation",
                "display": "Low"
              }
            ]
          }
        ],
        "text": {
          "status": "generated",
          "div": "<div xmlns=\"http://www.w3.org/1999/xhtml\"><table class=\"hl7__eu__lab__report\"><tr><th>Test</th><th>31-Dec-2021</th><th>Reference&#xA0;Range</th><th>Unit</th></tr><tr><td>Cholesterol in HDL [Mass/volume] in Serum or Plasma</td><td>35.4</td><td>40 - 100</td><td>L</td><td>mg/dL</td></tr></table></div>"
        },
        "status": "final",
        "subject": {
          "reference": "urn:uuid:967b43cb-dde4-4b4d-b43f-605d3d170c2b",
          "display": "Victor Lagarde"
        },
        "effectiveDateTime": "2021-12-31T04:48:18Z",
        "specimen": {
          "reference": "urn:uuid:6f3315c1-5473-47e5-9248-c50b89d1eed2"
        }
      }
    },
    {
      "fullUrl": "urn:uuid:9caea60c-b0f8-4c31-9c9f-32f5c70ee21b",
      "resource": {
        "resourceType": "Device",
        "id": "9caea60c-b0f8-4c31-9c9f-32f5c70ee21b",
        "deviceName": [
          {
            "name": "SYNDERAI Synthetic Generator",
            "type": "manufacturer-name"
          }
        ],
        "version": [
          {
            "value": "5.0"
          }
        ],
        "text": {
          "status": "generated",
          "div": "<div xmlns=\"http://www.w3.org/1999/xhtml\">SYNDERAI Synthetic Generator v5.0</div>"
        },
        "status": "active\"",
        "distinctIdentifier": "synderai-generator-50",
        "manufacturer": "SYNDERAI Project"
      }
    },
    {
      "fullUrl": "urn:uuid:c545dba0-c15f-409b-bfde-8bac5fdd1816",
      "resource": {
        "resourceType": "Provenance",
        "id": "c545dba0-c15f-409b-bfde-8bac5fdd1816",
        "target": [
          {
            "reference": "Patient/967b43cb-dde4-4b4d-b43f-605d3d170c2b"
          },
          {
            "reference": "Bundle/54f7bab1-4be1-4588-a25c-ecad08dcf638"
          },
          {
            "reference": "Composition/2ba885bd-b89a-444d-ac27-ab0e5a0234dd"
          },
          {
            "reference": "PractitionerRole/a0c3fe15-942f-46fc-8107-9601a5508768"
          },
          {
            "reference": "Practitioner/02beb478-8710-43dd-a2c3-8f85f6d384aa"
          },
          {
            "reference": "PractitionerRole/841b4da1-6739-4605-84cb-27051bc766ae"
          },
          {
            "reference": "Organization/eabd107f-371b-4bd9-84f8-6e2f339063c6"
          }
        ],
        "activity": {
          "text": "Synthetic Example Data Generation"
        },
        "policy": [
          "https://synderai.net/synderai-synthetic-data-policy"
        ],
        "agent": [
          {
            "type": {
              "text": "author"
            },
            "who": {
              "reference": "Device/9caea60c-b0f8-4c31-9c9f-32f5c70ee21b"
            }
          }
        ],
        "reason": [
          {
            "text": "Interoperability Testing and Training (non-clinical use)"
          }
        ],
        "text": {
          "status": "generated",
          "div": "<div xmlns=\"http://www.w3.org/1999/xhtml\">Provenance for SYNDERAI Synthetic Example Data Resource</div>"
        },
        "recorded": "2021-12-31T05:48:18Z"
      }
    },
    {
      "fullUrl": "urn:uuid:a0c3fe15-942f-46fc-8107-9601a5508768",
      "resource": {
        "resourceType": "PractitionerRole",
        "id": "a0c3fe15-942f-46fc-8107-9601a5508768",
        "meta": {
          "profile": [
            "http://hl7.eu/fhir/base/StructureDefinition/practitionerRole-eu"
          ]
        },
        "text": {
          "status": "generated",
          "div": "<div xmlns=\"http://www.w3.org/1999/xhtml\">Laboratory Role Id: a0c3fe15-942f-46fc-8107-9601a5508768</div>"
        },
        "practitioner": {
          "reference": "urn:uuid:02beb478-8710-43dd-a2c3-8f85f6d384aa"
        }
      }
    },
    {
      "fullUrl": "urn:uuid:02beb478-8710-43dd-a2c3-8f85f6d384aa",
      "resource": {
        "resourceType": "Practitioner",
        "id": "02beb478-8710-43dd-a2c3-8f85f6d384aa",
        "meta": {
          "profile": [
            "http://hl7.eu/fhir/base/StructureDefinition/practitioner-eu"
          ]
        },
        "identifier": [
          {
            "assigner": {
              "display": "HL7 Europe"
            },
            "system": "urn:oid:2.16.840.1.113883.2.51.999",
            "value": "63d6cc5f-ed63-440c-a5fa-b9cc85a200e5"
          }
        ],
        "name": [
          {
            "prefix": [
              "dr"
            ],
            "given": [
              "Ex"
            ],
            "family": "Ample"
          }
        ],
        "address": [
          {
            "line": [
              "Laboratoire Central Européenne",
              "Boulevard du Jardin Botanique 32"
            ],
            "postalCode": "1000",
            "city": "Brussels",
            "country": "Belgium"
          }
        ],
        "text": {
          "status": "generated",
          "div": "<div xmlns=\"http://www.w3.org/1999/xhtml\">Laboratory: Laboratoire Central Européenne, 1000 Brussels, Belgium</div>"
        }
      }
    }
  ],
  "type": "document",
  "timestamp": "2021-12-31T05:48:18Z"
}
