{
  "resourceType": "Bundle",
  "id": "4358444f-8f6a-4613-8343-c452be09590f",
  "meta": {
    "profile": [
      "http://hl7.eu/fhir/laboratory/StructureDefinition/Bundle-eu-lab"
    ]
  },
  "identifier": {
    "assigner": {
      "display": "HL7 Europe"
    },
    "system": "urn:oid:2.16.840.1.113883.2.51.999",
    "value": "5e18512d-a804-4810-8942-581d66a6d198"
  },
  "entry": [
    {
      "fullUrl": "urn:uuid:dc772274-dbb0-4bb0-b2a0-7ba453846019",
      "resource": {
        "resourceType": "Composition",
        "id": "dc772274-dbb0-4bb0-b2a0-7ba453846019",
        "meta": {
          "profile": [
            "http://hl7.eu/fhir/laboratory/StructureDefinition/Composition-eu-lab"
          ]
        },
        "identifier": {
          "assigner": {
            "display": "HL7 Europe"
          },
          "system": "urn:oid:2.16.840.1.113883.2.51.999",
          "value": "2f86ab2a-cc06-4114-9a38-8e848f6aa775"
        },
        "author": [
          {
            "reference": "urn:uuid:165eb044-b276-45bb-b7d5-fdc56fcb3283"
          }
        ],
        "category": [
          {
            "coding": [
              {
                "code": "26436-6",
                "system": "http://loinc.org",
                "display": "Laboratory studies (set)"
              }
            ]
          }
        ],
        "type": {
          "coding": [
            {
              "code": "11502-2",
              "system": "http://loinc.org",
              "display": "Laboratory report"
            }
          ],
          "text": "Laboratory Report"
        },
        "section": [
          {
            "code": {
              "coding": [
                {
                  "code": "26436-6",
                  "system": "http://loinc.org",
                  "display": "Laboratory studies (set)"
                }
              ],
              "text": "Laboratory studies"
            },
            "section": [
              {
                "code": {
                  "coding": [
                    {
                      "code": "$18719-5",
                      "system": "http://loinc.org",
                      "display": "Chemistry studies (set)"
                    }
                  ],
                  "text": "Chemistry"
                },
                "entry": [
                  {
                    "reference": "urn:uuid:71c0b093-b1c4-4abc-ad1d-2590af255158"
                  },
                  {
                    "reference": "urn:uuid:9d234782-fd2b-458d-8021-101c93d3b69b"
                  },
                  {
                    "reference": "urn:uuid:4a06a8e4-dba2-4e86-9a4f-e4553baf76e5"
                  },
                  {
                    "reference": "urn:uuid:5120c45a-9a53-4eb0-a8c0-53a8b98ba409"
                  },
                  {
                    "reference": "urn:uuid:826ce474-c1ab-4e49-b507-52b6ad547dd7"
                  },
                  {
                    "reference": "urn:uuid:93156b0b-4ff8-4fec-9268-609093cbca3a"
                  },
                  {
                    "reference": "urn:uuid:5f41fd8e-cbac-4be0-8456-1d6ace3a742f"
                  },
                  {
                    "reference": "urn:uuid:5fbcb27e-bae8-46d3-aa5e-3dce9696e08e"
                  },
                  {
                    "reference": "urn:uuid:6d96331c-9977-4fac-84a0-76bd5c4edd07"
                  }
                ],
                "text": {
                  "status": "generated",
                  "div": "<div xmlns=\"http://www.w3.org/1999/xhtml\"><h3>Chemistry</h3><table class=\"hl7__eu__lab__report\"><thead><tr><th>Test</th><th>16-DEC-2016</th><th>Reference&#xA0;Range</th><th>Unit</th></tr></thead><tbody><tr><td>Hemoglobin A1c/Hemoglobin.total in Blood</td><td><strong>4.0 L</strong></td><td>4.6 - 6.4</td><td>%</td></tr><tr><td>Glucose [Mass/volume] in Blood</td><td>94.6</td><td>70 - 110</td><td>mg/dL</td></tr><tr><td>Urea nitrogen [Mass/volume] in Blood</td><td>16.4</td><td>7 - 43</td><td>mg/dL</td></tr><tr><td>Creatinine [Mass/volume] in Blood</td><td>1.0</td><td>0.9 - 1.3</td><td>mg/dL</td></tr><tr><td>Calcium [Mass/volume] in Blood</td><td>8.7</td><td>8.5 - 10.5</td><td>mg/dL</td></tr><tr><td>Sodium [Moles/volume] in Blood</td><td>139.5</td><td>135 - 145</td><td>mmol/L</td></tr><tr><td>Potassium [Moles/volume] in Blood</td><td>4.4</td><td>3.5 - 5.3</td><td>mmol/L</td></tr><tr><td>Chloride [Moles/volume] in Blood</td><td>101.5</td><td>98 - 108</td><td>mmol/L</td></tr><tr><td>Carbon dioxide, total [Moles/volume] in Blood</td><td>24.6</td><td>22 - 29</td><td>mmol/L</td></tr></tbody></table></div>"
                },
                "title": "Chemistry"
              }
            ],
            "title": "Laboratory Report"
          },
          {
            "text": {
              "status": "generated",
              "div": "<div xmlns=\"http://www.w3.org/1999/xhtml\"><h3>Annotation</h3><table class=\"hl7__eu__lab__report\"><tr><th>Conclusion and Recommendations based on this report and previous findings known to us</th></tr><tr><td>All measured parameters are within normal limits except for a mildly decreased HbA1c (4.0%), which may suggest recent hypoglycemia, low average glucose, or possible analytical/physiological variation. No evidence of renal, electrolyte, or metabolic disturbances. Correlate HbA1c finding with clinical context and consider repeat if clinically indicated.</td></tr></table></div>"
            },
            "code": {
              "coding": [
                {
                  "system": "http://loinc.org",
                  "code": "48767-8",
                  "display": "Annotation comment"
                }
              ]
            },
            "title": "Annotation comment"
          }
        ],
        "status": "final",
        "subject": {
          "reference": "urn:uuid:5f0de837-d099-496d-880b-d807062616bb",
          "display": "Gabrielius Gaičiūnas"
        },
        "date": "2016-12-16T17:05:46Z",
        "title": "Laboratory Report",
        "confidentiality": "N"
      }
    },
    {
      "fullUrl": "urn:uuid:bb8541e0-5be1-45af-8481-2f1721dd54e0",
      "resource": {
        "resourceType": "DiagnosticReport",
        "id": "bb8541e0-5be1-45af-8481-2f1721dd54e0",
        "meta": {
          "profile": [
            "http://hl7.eu/fhir/laboratory/StructureDefinition/DiagnosticReport-eu-lab"
          ]
        },
        "identifier": [
          {
            "assigner": {
              "display": "HL7 Europe"
            },
            "system": "urn:oid:2.16.840.1.113883.2.51.999",
            "value": "e0a2e253-89fe-473a-ba19-85903469ed6a"
          }
        ],
        "extension": [
          {
            "url": "http://hl7.org/fhir/5.0/StructureDefinition/extension-DiagnosticReport.composition",
            "valueReference": {
              "reference": "urn:uuid:2f86ab2a-cc06-4114-9a38-8e848f6aa775"
            }
          }
        ],
        "category": [
          {
            "coding": [
              {
                "code": "26436-6",
                "system": "http://loinc.org",
                "display": "Laboratory studies (set)"
              }
            ]
          }
        ],
        "specimen": [
          {
            "reference": "urn:uuid:258a0e62-d719-4e1f-ab32-f563fa7afeb0"
          }
        ],
        "result": [
          {
            "reference": "urn:uuid:71c0b093-b1c4-4abc-ad1d-2590af255158"
          },
          {
            "reference": "urn:uuid:9d234782-fd2b-458d-8021-101c93d3b69b"
          },
          {
            "reference": "urn:uuid:4a06a8e4-dba2-4e86-9a4f-e4553baf76e5"
          },
          {
            "reference": "urn:uuid:5120c45a-9a53-4eb0-a8c0-53a8b98ba409"
          },
          {
            "reference": "urn:uuid:826ce474-c1ab-4e49-b507-52b6ad547dd7"
          },
          {
            "reference": "urn:uuid:93156b0b-4ff8-4fec-9268-609093cbca3a"
          },
          {
            "reference": "urn:uuid:5f41fd8e-cbac-4be0-8456-1d6ace3a742f"
          },
          {
            "reference": "urn:uuid:5fbcb27e-bae8-46d3-aa5e-3dce9696e08e"
          },
          {
            "reference": "urn:uuid:6d96331c-9977-4fac-84a0-76bd5c4edd07"
          }
        ],
        "status": "registered",
        "code": {
          "coding": [
            {
              "code": "11502-2",
              "system": "http://loinc.org",
              "display": "Laboratory report"
            }
          ]
        },
        "subject": {
          "reference": "urn:uuid:5f0de837-d099-496d-880b-d807062616bb",
          "display": "Gabrielius Gaičiūnas"
        }
      }
    },
    {
      "fullUrl": "urn:uuid:5f0de837-d099-496d-880b-d807062616bb",
      "resource": {
        "resourceType": "Patient",
        "id": "5f0de837-d099-496d-880b-d807062616bb",
        "meta": {
          "security": [
            {
              "system": "http://terminology.hl7.org/CodeSystem/v3-ActReason",
              "code": "HTEST"
            },
            {
              "system": "http://terminology.hl7.org/CodeSystem/v3-ActReason",
              "code": "TRAIN"
            }
          ],
          "tag": [
            {
              "system": "https://synderai.net/fhir/CodeSystem/tags",
              "code": "synthetic",
              "display": "SYNDERAI Synthetic data"
            }
          ],
          "profile": [
            "http://hl7.eu/fhir/base/StructureDefinition/patient-eu-core"
          ]
        },
        "identifier": [
          {
            "type": {
              "coding": [
                {
                  "code": "PT",
                  "system": "http://terminology.hl7.org/CodeSystem/v2-0203"
                }
              ]
            },
            "system": "http://ec.europa.eu/identifier/eci",
            "value": "5711-320329-3"
          },
          {
            "type": {
              "coding": [
                {
                  "code": "MR",
                  "system": "http://terminology.hl7.org/CodeSystem/v2-0203"
                }
              ]
            },
            "system": "http://local.setting.eu/identifier",
            "value": "b2cdf95b-c12d-3f56-84e4-d085f70edd0c"
          }
        ],
        "name": [
          {
            "family": "Gaičiūnas"
          },
          {
            "given": [
              "Gabrielius"
            ]
          },
          {
            "text": "Gabrielius Gaičiūnas"
          }
        ],
        "address": [
          {
            "line": [
              "5951 Monika Rapid"
            ],
            "use": "home",
            "type": "physical",
            "postalCode": "97190",
            "city": "Poškaton",
            "country": "Lithuania"
          }
        ],
        "telecom": [
          {
            "system": "phone",
            "value": "+370 71605146"
          }
        ],
        "extension": [
          {
            "url": "http://hl7.org/fhir/StructureDefinition/patient-nationality",
            "valueCodeableConcept": {
              "coding": [
                {
                  "code": "LT",
                  "system": "http://hl7.org/fhir/ValueSet/country"
                }
              ]
            }
          }
        ],
        "text": {
          "status": "generated",
          "div": "<div xmlns=\"http://www.w3.org/1999/xhtml\"><table class=\"hl7__ips\"><tr><td>Gabrielius Gaičiūnas</td><td>male</td><td>19-May-1948</td></tr></table></div>"
        },
        "gender": "male",
        "birthDate": "1948-05-19"
      }
    },
    {
      "fullUrl": "urn:uuid:af57b423-f171-4a52-8997-d8f9edec4f70",
      "resource": {
        "resourceType": "ServiceRequest",
        "id": "af57b423-f171-4a52-8997-d8f9edec4f70",
        "meta": {
          "profile": [
            "http://hl7.eu/fhir/laboratory/StructureDefinition/ServiceRequest-eu-lab"
          ]
        },
        "identifier": [
          {
            "system": "http://example.org",
            "value": "d36f8393-f073-4fbc-8da7-f6bda5356d35"
          }
        ],
        "specimen": [
          {
            "reference": "urn:uuid:258a0e62-d719-4e1f-ab32-f563fa7afeb0"
          }
        ],
        "reasonCode": [
          {
            "coding": [
              {
                "code": "414545008",
                "system": "http://snomed.info/sct",
                "display": "Ischemic heart disease"
              }
            ]
          },
          {
            "coding": [
              {
                "code": "157141000119108",
                "system": "http://snomed.info/sct",
                "display": "Proteinuria due to type 2 diabetes mellitus"
              }
            ]
          },
          {
            "coding": [
              {
                "code": "401303003",
                "system": "http://snomed.info/sct",
                "display": "Acute ST segment elevation myocardial infarction"
              }
            ]
          },
          {
            "coding": [
              {
                "code": "40055000",
                "system": "http://snomed.info/sct",
                "display": "Chronic sinusitis"
              }
            ]
          },
          {
            "coding": [
              {
                "code": "90781000119102",
                "system": "http://snomed.info/sct",
                "display": "Microalbuminuria due to type 2 diabetes mellitus"
              }
            ]
          },
          {
            "coding": [
              {
                "code": "127013003",
                "system": "http://snomed.info/sct",
                "display": "Disorder of kidney due to diabetes mellitus"
              }
            ]
          },
          {
            "coding": [
              {
                "code": "59621000",
                "system": "http://snomed.info/sct",
                "display": "Essential hypertension"
              }
            ]
          },
          {
            "coding": [
              {
                "code": "15777000",
                "system": "http://snomed.info/sct",
                "display": "Prediabetes"
              }
            ]
          },
          {
            "coding": [
              {
                "code": "271737000",
                "system": "http://snomed.info/sct",
                "display": "Anemia"
              }
            ]
          }
        ],
        "status": "active",
        "intent": "order",
        "code": {
          "coding": [
            {
              "code": "108252007",
              "system": "http://snomed.info/sct",
              "display": "Laboratory procedure"
            }
          ]
        },
        "subject": {
          "reference": "urn:uuid:5f0de837-d099-496d-880b-d807062616bb",
          "display": "Gabrielius Gaičiūnas"
        },
        "requester": {
          "reference": "urn:uuid:264d2888-d7eb-4b63-b6f1-e0d5dfd6af9e"
        }
      }
    },
    {
      "fullUrl": "urn:uuid:264d2888-d7eb-4b63-b6f1-e0d5dfd6af9e",
      "resource": {
        "resourceType": "PractitionerRole",
        "id": "264d2888-d7eb-4b63-b6f1-e0d5dfd6af9e",
        "meta": {
          "profile": [
            "http://hl7.eu/fhir/base/StructureDefinition/practitionerRole-eu"
          ]
        },
        "text": {
          "status": "generated",
          "div": "<div xmlns=\"http://www.w3.org/1999/xhtml\">Provider Role Id: 264d2888-d7eb-4b63-b6f1-e0d5dfd6af9e</div>"
        },
        "organization": {
          "reference": "urn:uuid:1e5d3483-6bb2-4099-b67e-dcde5f50440f"
        }
      }
    },
    {
      "fullUrl": "urn:uuid:1e5d3483-6bb2-4099-b67e-dcde5f50440f",
      "resource": {
        "resourceType": "Organization",
        "id": "1e5d3483-6bb2-4099-b67e-dcde5f50440f",
        "meta": {
          "profile": [
            "http://hl7.eu/fhir/base/StructureDefinition/organization-eu"
          ]
        },
        "identifier": [
          {
            "assigner": {
              "display": "HL7 Europe"
            },
            "system": "urn:oid:2.16.840.1.113883.2.51.999",
            "value": "a372b43b-9ca3-4eb7-8fea-0bc7626b985e"
          }
        ],
        "address": [
          {
            "line": [
              "182 Savanorių pr."
            ],
            "city": "Klaipėda",
            "postalCode": "LT-91200",
            "country": "Lithuania"
          }
        ],
        "text": {
          "status": "generated",
          "div": "<div xmlns=\"http://www.w3.org/1999/xhtml\">Provider Organization: Dr. Tomas Bakas</div>"
        },
        "name": "Dr. Tomas Bakas"
      }
    },
    {
      "fullUrl": "urn:uuid:258a0e62-d719-4e1f-ab32-f563fa7afeb0",
      "resource": {
        "resourceType": "Specimen",
        "id": "258a0e62-d719-4e1f-ab32-f563fa7afeb0",
        "meta": {
          "profile": [
            "http://hl7.eu/fhir/laboratory/StructureDefinition/Specimen-eu-lab"
          ]
        },
        "collection": {
          "collectedDateTime": "2016-12-16"
        },
        "text": {
          "status": "generated",
          "div": "<div xmlns=\"http://www.w3.org/1999/xhtml\"><table class=\"hl7__eu__lab__report\"><tr><th>Specimen</th><th>Collection Date</th></tr><tr><td>Whole blood specimen (specimen)</td><td><span class=\"nb\">16-Dec-2016</span></td></tr></table></div>"
        },
        "type": {
          "coding": [
            {
              "code": "258580003",
              "system": "http://snomed.info/sct",
              "display": "Whole blood specimen (specimen)"
            }
          ]
        }
      }
    },
    {
      "fullUrl": "urn:uuid:71c0b093-b1c4-4abc-ad1d-2590af255158",
      "resource": {
        "resourceType": "Observation",
        "id": "71c0b093-b1c4-4abc-ad1d-2590af255158",
        "meta": {
          "profile": [
            "http://hl7.eu/fhir/laboratory/StructureDefinition/Observation-resultslab-eu-lab"
          ]
        },
        "performer": [
          {
            "display": "The Central European Lab"
          }
        ],
        "category": [
          {
            "coding": [
              {
                "system": "http://terminology.hl7.org/CodeSystem/observation-category",
                "code": "laboratory"
              }
            ]
          }
        ],
        "code": {
          "coding": [
            {
              "code": "4548-4",
              "system": "http://loinc.org",
              "display": "Hemoglobin A1c/Hemoglobin.total in Blood"
            }
          ],
          "text": "Hemoglobin A1c/Hemoglobin.total in Blood"
        },
        "valueQuantity": {
          "system": "http://unitsofmeasure.org",
          "value": 4,
          "unit": "%",
          "code": "%"
        },
        "referenceRange": [
          {
            "low": {
              "value": 4.6,
              "code": "%",
              "system": "http://unitsofmeasure.org"
            }
          },
          {
            "high": {
              "value": 6.4,
              "code": "%",
              "system": "http://unitsofmeasure.org"
            }
          }
        ],
        "interpretation": [
          {
            "coding": [
              {
                "code": "L",
                "system": "http://terminology.hl7.org/CodeSystem/v3-ObservationInterpretation",
                "display": "Low"
              }
            ]
          }
        ],
        "text": {
          "status": "generated",
          "div": "<div xmlns=\"http://www.w3.org/1999/xhtml\"><table class=\"hl7__eu__lab__report\"><tr><th>Test</th><th>16-Dec-2016</th><th>Reference&#xA0;Range</th><th>Unit</th></tr><tr><td>Hemoglobin A1c/Hemoglobin.total in Blood</td><td>4.0</td><td>4.6 - 6.4</td><td>L</td><td>%</td></tr></table></div>"
        },
        "status": "final",
        "subject": {
          "reference": "urn:uuid:5f0de837-d099-496d-880b-d807062616bb",
          "display": "Gabrielius Gaičiūnas"
        },
        "effectiveDateTime": "2016-12-16T16:05:46Z",
        "specimen": {
          "reference": "urn:uuid:258a0e62-d719-4e1f-ab32-f563fa7afeb0"
        }
      }
    },
    {
      "fullUrl": "urn:uuid:9d234782-fd2b-458d-8021-101c93d3b69b",
      "resource": {
        "resourceType": "Observation",
        "id": "9d234782-fd2b-458d-8021-101c93d3b69b",
        "meta": {
          "profile": [
            "http://hl7.eu/fhir/laboratory/StructureDefinition/Observation-resultslab-eu-lab"
          ]
        },
        "performer": [
          {
            "display": "The Central European Lab"
          }
        ],
        "category": [
          {
            "coding": [
              {
                "system": "http://terminology.hl7.org/CodeSystem/observation-category",
                "code": "laboratory"
              }
            ]
          }
        ],
        "code": {
          "coding": [
            {
              "code": "2339-0",
              "system": "http://loinc.org",
              "display": "Glucose [Mass/volume] in Blood"
            }
          ],
          "text": "Glucose [Mass/volume] in Blood"
        },
        "valueQuantity": {
          "system": "http://unitsofmeasure.org",
          "value": 94.6,
          "unit": "mg/dL",
          "code": "mg/dL"
        },
        "referenceRange": [
          {
            "low": {
              "value": 70,
              "code": "mg/dL",
              "system": "http://unitsofmeasure.org"
            }
          },
          {
            "high": {
              "value": 110,
              "code": "mg/dL",
              "system": "http://unitsofmeasure.org"
            }
          }
        ],
        "text": {
          "status": "generated",
          "div": "<div xmlns=\"http://www.w3.org/1999/xhtml\"><table class=\"hl7__eu__lab__report\"><tr><th>Test</th><th>16-Dec-2016</th><th>Reference&#xA0;Range</th><th>Unit</th></tr><tr><td>Glucose [Mass/volume] in Blood</td><td>94.6</td><td>70 - 110</td><td></td><td>mg/dL</td></tr></table></div>"
        },
        "status": "final",
        "subject": {
          "reference": "urn:uuid:5f0de837-d099-496d-880b-d807062616bb",
          "display": "Gabrielius Gaičiūnas"
        },
        "effectiveDateTime": "2016-12-16T16:05:46Z",
        "specimen": {
          "reference": "urn:uuid:258a0e62-d719-4e1f-ab32-f563fa7afeb0"
        }
      }
    },
    {
      "fullUrl": "urn:uuid:4a06a8e4-dba2-4e86-9a4f-e4553baf76e5",
      "resource": {
        "resourceType": "Observation",
        "id": "4a06a8e4-dba2-4e86-9a4f-e4553baf76e5",
        "meta": {
          "profile": [
            "http://hl7.eu/fhir/laboratory/StructureDefinition/Observation-resultslab-eu-lab"
          ]
        },
        "performer": [
          {
            "display": "The Central European Lab"
          }
        ],
        "category": [
          {
            "coding": [
              {
                "system": "http://terminology.hl7.org/CodeSystem/observation-category",
                "code": "laboratory"
              }
            ]
          }
        ],
        "code": {
          "coding": [
            {
              "code": "6299-2",
              "system": "http://loinc.org",
              "display": "Urea nitrogen [Mass/volume] in Blood"
            }
          ],
          "text": "Urea nitrogen [Mass/volume] in Blood"
        },
        "valueQuantity": {
          "system": "http://unitsofmeasure.org",
          "value": 16.4,
          "unit": "mg/dL",
          "code": "mg/dL"
        },
        "referenceRange": [
          {
            "low": {
              "value": 7,
              "code": "mg/dL",
              "system": "http://unitsofmeasure.org"
            }
          },
          {
            "high": {
              "value": 43,
              "code": "mg/dL",
              "system": "http://unitsofmeasure.org"
            }
          }
        ],
        "text": {
          "status": "generated",
          "div": "<div xmlns=\"http://www.w3.org/1999/xhtml\"><table class=\"hl7__eu__lab__report\"><tr><th>Test</th><th>16-Dec-2016</th><th>Reference&#xA0;Range</th><th>Unit</th></tr><tr><td>Urea nitrogen [Mass/volume] in Blood</td><td>16.4</td><td>7 - 43</td><td></td><td>mg/dL</td></tr></table></div>"
        },
        "status": "final",
        "subject": {
          "reference": "urn:uuid:5f0de837-d099-496d-880b-d807062616bb",
          "display": "Gabrielius Gaičiūnas"
        },
        "effectiveDateTime": "2016-12-16T16:05:46Z",
        "specimen": {
          "reference": "urn:uuid:258a0e62-d719-4e1f-ab32-f563fa7afeb0"
        }
      }
    },
    {
      "fullUrl": "urn:uuid:5120c45a-9a53-4eb0-a8c0-53a8b98ba409",
      "resource": {
        "resourceType": "Observation",
        "id": "5120c45a-9a53-4eb0-a8c0-53a8b98ba409",
        "meta": {
          "profile": [
            "http://hl7.eu/fhir/laboratory/StructureDefinition/Observation-resultslab-eu-lab"
          ]
        },
        "performer": [
          {
            "display": "The Central European Lab"
          }
        ],
        "category": [
          {
            "coding": [
              {
                "system": "http://terminology.hl7.org/CodeSystem/observation-category",
                "code": "laboratory"
              }
            ]
          }
        ],
        "code": {
          "coding": [
            {
              "code": "38483-4",
              "system": "http://loinc.org",
              "display": "Creatinine [Mass/volume] in Blood"
            }
          ],
          "text": "Creatinine [Mass/volume] in Blood"
        },
        "valueQuantity": {
          "system": "http://unitsofmeasure.org",
          "value": 1,
          "unit": "mg/dL",
          "code": "mg/dL"
        },
        "referenceRange": [
          {
            "low": {
              "value": 0.9,
              "code": "mg/dL",
              "system": "http://unitsofmeasure.org"
            }
          },
          {
            "high": {
              "value": 1.3,
              "code": "mg/dL",
              "system": "http://unitsofmeasure.org"
            }
          }
        ],
        "text": {
          "status": "generated",
          "div": "<div xmlns=\"http://www.w3.org/1999/xhtml\"><table class=\"hl7__eu__lab__report\"><tr><th>Test</th><th>16-Dec-2016</th><th>Reference&#xA0;Range</th><th>Unit</th></tr><tr><td>Creatinine [Mass/volume] in Blood</td><td>1.0</td><td>0.9 - 1.3</td><td></td><td>mg/dL</td></tr></table></div>"
        },
        "status": "final",
        "subject": {
          "reference": "urn:uuid:5f0de837-d099-496d-880b-d807062616bb",
          "display": "Gabrielius Gaičiūnas"
        },
        "effectiveDateTime": "2016-12-16T16:05:46Z",
        "specimen": {
          "reference": "urn:uuid:258a0e62-d719-4e1f-ab32-f563fa7afeb0"
        }
      }
    },
    {
      "fullUrl": "urn:uuid:826ce474-c1ab-4e49-b507-52b6ad547dd7",
      "resource": {
        "resourceType": "Observation",
        "id": "826ce474-c1ab-4e49-b507-52b6ad547dd7",
        "meta": {
          "profile": [
            "http://hl7.eu/fhir/laboratory/StructureDefinition/Observation-resultslab-eu-lab"
          ]
        },
        "performer": [
          {
            "display": "The Central European Lab"
          }
        ],
        "category": [
          {
            "coding": [
              {
                "system": "http://terminology.hl7.org/CodeSystem/observation-category",
                "code": "laboratory"
              }
            ]
          }
        ],
        "code": {
          "coding": [
            {
              "code": "49765-1",
              "system": "http://loinc.org",
              "display": "Calcium [Mass/volume] in Blood"
            }
          ],
          "text": "Calcium [Mass/volume] in Blood"
        },
        "valueQuantity": {
          "system": "http://unitsofmeasure.org",
          "value": 8.7,
          "unit": "mg/dL",
          "code": "mg/dL"
        },
        "referenceRange": [
          {
            "low": {
              "value": 8.5,
              "code": "mg/dL",
              "system": "http://unitsofmeasure.org"
            }
          },
          {
            "high": {
              "value": 10.5,
              "code": "mg/dL",
              "system": "http://unitsofmeasure.org"
            }
          }
        ],
        "text": {
          "status": "generated",
          "div": "<div xmlns=\"http://www.w3.org/1999/xhtml\"><table class=\"hl7__eu__lab__report\"><tr><th>Test</th><th>16-Dec-2016</th><th>Reference&#xA0;Range</th><th>Unit</th></tr><tr><td>Calcium [Mass/volume] in Blood</td><td>8.7</td><td>8.5 - 10.5</td><td></td><td>mg/dL</td></tr></table></div>"
        },
        "status": "final",
        "subject": {
          "reference": "urn:uuid:5f0de837-d099-496d-880b-d807062616bb",
          "display": "Gabrielius Gaičiūnas"
        },
        "effectiveDateTime": "2016-12-16T16:05:46Z",
        "specimen": {
          "reference": "urn:uuid:258a0e62-d719-4e1f-ab32-f563fa7afeb0"
        }
      }
    },
    {
      "fullUrl": "urn:uuid:93156b0b-4ff8-4fec-9268-609093cbca3a",
      "resource": {
        "resourceType": "Observation",
        "id": "93156b0b-4ff8-4fec-9268-609093cbca3a",
        "meta": {
          "profile": [
            "http://hl7.eu/fhir/laboratory/StructureDefinition/Observation-resultslab-eu-lab"
          ]
        },
        "performer": [
          {
            "display": "The Central European Lab"
          }
        ],
        "category": [
          {
            "coding": [
              {
                "system": "http://terminology.hl7.org/CodeSystem/observation-category",
                "code": "laboratory"
              }
            ]
          }
        ],
        "code": {
          "coding": [
            {
              "code": "2947-0",
              "system": "http://loinc.org",
              "display": "Sodium [Moles/volume] in Blood"
            }
          ],
          "text": "Sodium [Moles/volume] in Blood"
        },
        "valueQuantity": {
          "system": "http://unitsofmeasure.org",
          "value": 139.5,
          "unit": "mmol/L",
          "code": "mmol/L"
        },
        "referenceRange": [
          {
            "low": {
              "value": 135,
              "code": "mmol/L",
              "system": "http://unitsofmeasure.org"
            }
          },
          {
            "high": {
              "value": 145,
              "code": "mmol/L",
              "system": "http://unitsofmeasure.org"
            }
          }
        ],
        "text": {
          "status": "generated",
          "div": "<div xmlns=\"http://www.w3.org/1999/xhtml\"><table class=\"hl7__eu__lab__report\"><tr><th>Test</th><th>16-Dec-2016</th><th>Reference&#xA0;Range</th><th>Unit</th></tr><tr><td>Sodium [Moles/volume] in Blood</td><td>139.5</td><td>135 - 145</td><td></td><td>mmol/L</td></tr></table></div>"
        },
        "status": "final",
        "subject": {
          "reference": "urn:uuid:5f0de837-d099-496d-880b-d807062616bb",
          "display": "Gabrielius Gaičiūnas"
        },
        "effectiveDateTime": "2016-12-16T16:05:46Z",
        "specimen": {
          "reference": "urn:uuid:258a0e62-d719-4e1f-ab32-f563fa7afeb0"
        }
      }
    },
    {
      "fullUrl": "urn:uuid:5f41fd8e-cbac-4be0-8456-1d6ace3a742f",
      "resource": {
        "resourceType": "Observation",
        "id": "5f41fd8e-cbac-4be0-8456-1d6ace3a742f",
        "meta": {
          "profile": [
            "http://hl7.eu/fhir/laboratory/StructureDefinition/Observation-resultslab-eu-lab"
          ]
        },
        "performer": [
          {
            "display": "The Central European Lab"
          }
        ],
        "category": [
          {
            "coding": [
              {
                "system": "http://terminology.hl7.org/CodeSystem/observation-category",
                "code": "laboratory"
              }
            ]
          }
        ],
        "code": {
          "coding": [
            {
              "code": "6298-4",
              "system": "http://loinc.org",
              "display": "Potassium [Moles/volume] in Blood"
            }
          ],
          "text": "Potassium [Moles/volume] in Blood"
        },
        "valueQuantity": {
          "system": "http://unitsofmeasure.org",
          "value": 4.4,
          "unit": "mmol/L",
          "code": "mmol/L"
        },
        "referenceRange": [
          {
            "low": {
              "value": 3.5,
              "code": "mmol/L",
              "system": "http://unitsofmeasure.org"
            }
          },
          {
            "high": {
              "value": 5.3,
              "code": "mmol/L",
              "system": "http://unitsofmeasure.org"
            }
          }
        ],
        "text": {
          "status": "generated",
          "div": "<div xmlns=\"http://www.w3.org/1999/xhtml\"><table class=\"hl7__eu__lab__report\"><tr><th>Test</th><th>16-Dec-2016</th><th>Reference&#xA0;Range</th><th>Unit</th></tr><tr><td>Potassium [Moles/volume] in Blood</td><td>4.4</td><td>3.5 - 5.3</td><td></td><td>mmol/L</td></tr></table></div>"
        },
        "status": "final",
        "subject": {
          "reference": "urn:uuid:5f0de837-d099-496d-880b-d807062616bb",
          "display": "Gabrielius Gaičiūnas"
        },
        "effectiveDateTime": "2016-12-16T16:05:46Z",
        "specimen": {
          "reference": "urn:uuid:258a0e62-d719-4e1f-ab32-f563fa7afeb0"
        }
      }
    },
    {
      "fullUrl": "urn:uuid:5fbcb27e-bae8-46d3-aa5e-3dce9696e08e",
      "resource": {
        "resourceType": "Observation",
        "id": "5fbcb27e-bae8-46d3-aa5e-3dce9696e08e",
        "meta": {
          "profile": [
            "http://hl7.eu/fhir/laboratory/StructureDefinition/Observation-resultslab-eu-lab"
          ]
        },
        "performer": [
          {
            "display": "The Central European Lab"
          }
        ],
        "category": [
          {
            "coding": [
              {
                "system": "http://terminology.hl7.org/CodeSystem/observation-category",
                "code": "laboratory"
              }
            ]
          }
        ],
        "code": {
          "coding": [
            {
              "code": "2069-3",
              "system": "http://loinc.org",
              "display": "Chloride [Moles/volume] in Blood"
            }
          ],
          "text": "Chloride [Moles/volume] in Blood"
        },
        "valueQuantity": {
          "system": "http://unitsofmeasure.org",
          "value": 101.5,
          "unit": "mmol/L",
          "code": "mmol/L"
        },
        "referenceRange": [
          {
            "low": {
              "value": 98,
              "code": "mmol/L",
              "system": "http://unitsofmeasure.org"
            }
          },
          {
            "high": {
              "value": 108,
              "code": "mmol/L",
              "system": "http://unitsofmeasure.org"
            }
          }
        ],
        "text": {
          "status": "generated",
          "div": "<div xmlns=\"http://www.w3.org/1999/xhtml\"><table class=\"hl7__eu__lab__report\"><tr><th>Test</th><th>16-Dec-2016</th><th>Reference&#xA0;Range</th><th>Unit</th></tr><tr><td>Chloride [Moles/volume] in Blood</td><td>101.5</td><td>98 - 108</td><td></td><td>mmol/L</td></tr></table></div>"
        },
        "status": "final",
        "subject": {
          "reference": "urn:uuid:5f0de837-d099-496d-880b-d807062616bb",
          "display": "Gabrielius Gaičiūnas"
        },
        "effectiveDateTime": "2016-12-16T16:05:46Z",
        "specimen": {
          "reference": "urn:uuid:258a0e62-d719-4e1f-ab32-f563fa7afeb0"
        }
      }
    },
    {
      "fullUrl": "urn:uuid:6d96331c-9977-4fac-84a0-76bd5c4edd07",
      "resource": {
        "resourceType": "Observation",
        "id": "6d96331c-9977-4fac-84a0-76bd5c4edd07",
        "meta": {
          "profile": [
            "http://hl7.eu/fhir/laboratory/StructureDefinition/Observation-resultslab-eu-lab"
          ]
        },
        "performer": [
          {
            "display": "The Central European Lab"
          }
        ],
        "category": [
          {
            "coding": [
              {
                "system": "http://terminology.hl7.org/CodeSystem/observation-category",
                "code": "laboratory"
              }
            ]
          }
        ],
        "code": {
          "coding": [
            {
              "code": "20565-8",
              "system": "http://loinc.org",
              "display": "Carbon dioxide, total [Moles/volume] in Blood"
            }
          ],
          "text": "Carbon dioxide, total [Moles/volume] in Blood"
        },
        "valueQuantity": {
          "system": "http://unitsofmeasure.org",
          "value": 24.6,
          "unit": "mmol/L",
          "code": "mmol/L"
        },
        "referenceRange": [
          {
            "low": {
              "value": 22,
              "code": "mmol/L",
              "system": "http://unitsofmeasure.org"
            }
          },
          {
            "high": {
              "value": 29,
              "code": "mmol/L",
              "system": "http://unitsofmeasure.org"
            }
          }
        ],
        "text": {
          "status": "generated",
          "div": "<div xmlns=\"http://www.w3.org/1999/xhtml\"><table class=\"hl7__eu__lab__report\"><tr><th>Test</th><th>16-Dec-2016</th><th>Reference&#xA0;Range</th><th>Unit</th></tr><tr><td>Carbon dioxide, total [Moles/volume] in Blood</td><td>24.6</td><td>22 - 29</td><td></td><td>mmol/L</td></tr></table></div>"
        },
        "status": "final",
        "subject": {
          "reference": "urn:uuid:5f0de837-d099-496d-880b-d807062616bb",
          "display": "Gabrielius Gaičiūnas"
        },
        "effectiveDateTime": "2016-12-16T16:05:46Z",
        "specimen": {
          "reference": "urn:uuid:258a0e62-d719-4e1f-ab32-f563fa7afeb0"
        }
      }
    },
    {
      "fullUrl": "urn:uuid:cad4b29d-356c-4f41-ae21-db9bc80e5e66",
      "resource": {
        "resourceType": "Device",
        "id": "cad4b29d-356c-4f41-ae21-db9bc80e5e66",
        "deviceName": [
          {
            "name": "SYNDERAI Synthetic Generator",
            "type": "manufacturer-name"
          }
        ],
        "version": [
          {
            "value": "5.0"
          }
        ],
        "text": {
          "status": "generated",
          "div": "<div xmlns=\"http://www.w3.org/1999/xhtml\">SYNDERAI Synthetic Generator v5.0</div>"
        },
        "status": "active\"",
        "distinctIdentifier": "synderai-generator-50",
        "manufacturer": "SYNDERAI Project"
      }
    },
    {
      "fullUrl": "urn:uuid:eca6504a-2889-4d3c-9cc5-4e7722a0f81a",
      "resource": {
        "resourceType": "Provenance",
        "id": "eca6504a-2889-4d3c-9cc5-4e7722a0f81a",
        "target": [
          {
            "reference": "Patient/5f0de837-d099-496d-880b-d807062616bb"
          },
          {
            "reference": "Bundle/4358444f-8f6a-4613-8343-c452be09590f"
          },
          {
            "reference": "Composition/dc772274-dbb0-4bb0-b2a0-7ba453846019"
          },
          {
            "reference": "PractitionerRole/165eb044-b276-45bb-b7d5-fdc56fcb3283"
          },
          {
            "reference": "Practitioner/b1dad03f-8fc8-44f5-9019-753711932a4d"
          },
          {
            "reference": "PractitionerRole/264d2888-d7eb-4b63-b6f1-e0d5dfd6af9e"
          },
          {
            "reference": "Organization/1e5d3483-6bb2-4099-b67e-dcde5f50440f"
          }
        ],
        "activity": {
          "text": "Synthetic Example Data Generation"
        },
        "policy": [
          "https://synderai.net/synderai-synthetic-data-policy"
        ],
        "agent": [
          {
            "type": {
              "text": "author"
            },
            "who": {
              "reference": "Device/cad4b29d-356c-4f41-ae21-db9bc80e5e66"
            }
          }
        ],
        "reason": [
          {
            "text": "Interoperability Testing and Training (non-clinical use)"
          }
        ],
        "text": {
          "status": "generated",
          "div": "<div xmlns=\"http://www.w3.org/1999/xhtml\">Provenance for SYNDERAI Synthetic Example Data Resource</div>"
        },
        "recorded": "2016-12-16T17:05:46Z"
      }
    },
    {
      "fullUrl": "urn:uuid:165eb044-b276-45bb-b7d5-fdc56fcb3283",
      "resource": {
        "resourceType": "PractitionerRole",
        "id": "165eb044-b276-45bb-b7d5-fdc56fcb3283",
        "meta": {
          "profile": [
            "http://hl7.eu/fhir/base/StructureDefinition/practitionerRole-eu"
          ]
        },
        "text": {
          "status": "generated",
          "div": "<div xmlns=\"http://www.w3.org/1999/xhtml\">Laboratory Role Id: 165eb044-b276-45bb-b7d5-fdc56fcb3283</div>"
        },
        "practitioner": {
          "reference": "urn:uuid:b1dad03f-8fc8-44f5-9019-753711932a4d"
        }
      }
    },
    {
      "fullUrl": "urn:uuid:b1dad03f-8fc8-44f5-9019-753711932a4d",
      "resource": {
        "resourceType": "Practitioner",
        "id": "b1dad03f-8fc8-44f5-9019-753711932a4d",
        "meta": {
          "profile": [
            "http://hl7.eu/fhir/base/StructureDefinition/practitioner-eu"
          ]
        },
        "identifier": [
          {
            "assigner": {
              "display": "HL7 Europe"
            },
            "system": "urn:oid:2.16.840.1.113883.2.51.999",
            "value": "48d43fb8-3c0c-4f8c-9db1-e1ba27235bf0"
          }
        ],
        "name": [
          {
            "prefix": [
              "dr"
            ],
            "given": [
              "Ex"
            ],
            "family": "Ample"
          }
        ],
        "address": [
          {
            "line": [
              "Laboratoire Central Européenne",
              "Boulevard du Jardin Botanique 32"
            ],
            "postalCode": "1000",
            "city": "Brussels",
            "country": "Belgium"
          }
        ],
        "text": {
          "status": "generated",
          "div": "<div xmlns=\"http://www.w3.org/1999/xhtml\">Laboratory: Laboratoire Central Européenne, 1000 Brussels, Belgium</div>"
        }
      }
    }
  ],
  "type": "document",
  "timestamp": "2016-12-16T17:05:46Z"
}
