{
  "resourceType": "Bundle",
  "id": "a3ecdc6e-d8ce-4cb9-99aa-ff32e796199f",
  "meta": {
    "profile": [
      "http://hl7.eu/fhir/laboratory/StructureDefinition/Bundle-eu-lab"
    ]
  },
  "identifier": {
    "assigner": {
      "display": "HL7 Europe"
    },
    "system": "urn:oid:2.16.840.1.113883.2.51.999",
    "value": "1c3db6b4-9e46-45d8-a2ea-b3f1fd8e9b9e"
  },
  "entry": [
    {
      "fullUrl": "urn:uuid:5a16dfbf-7e5d-418d-84b2-dddc03ff42ef",
      "resource": {
        "resourceType": "Composition",
        "id": "5a16dfbf-7e5d-418d-84b2-dddc03ff42ef",
        "meta": {
          "profile": [
            "http://hl7.eu/fhir/laboratory/StructureDefinition/Composition-eu-lab"
          ]
        },
        "identifier": {
          "assigner": {
            "display": "HL7 Europe"
          },
          "system": "urn:oid:2.16.840.1.113883.2.51.999",
          "value": "e52961bc-e480-4519-b8fb-437cb9e92aa0"
        },
        "author": [
          {
            "reference": "urn:uuid:4eef61a3-5ee9-4163-8879-f56c64f6b597"
          }
        ],
        "category": [
          {
            "coding": [
              {
                "code": "26436-6",
                "system": "http://loinc.org",
                "display": "Laboratory studies (set)"
              }
            ]
          }
        ],
        "type": {
          "coding": [
            {
              "code": "11502-2",
              "system": "http://loinc.org",
              "display": "Laboratory report"
            }
          ],
          "text": "Laboratory Report"
        },
        "section": [
          {
            "code": {
              "coding": [
                {
                  "code": "26436-6",
                  "system": "http://loinc.org",
                  "display": "Laboratory studies (set)"
                }
              ],
              "text": "Laboratory studies"
            },
            "section": [
              {
                "code": {
                  "coding": [
                    {
                      "code": "$18719-5",
                      "system": "http://loinc.org",
                      "display": "Chemistry studies (set)"
                    }
                  ],
                  "text": "Chemistry"
                },
                "entry": [
                  {
                    "reference": "urn:uuid:9f30a137-9814-4140-b539-8c93849ae655"
                  },
                  {
                    "reference": "urn:uuid:2cb0cab1-209f-490c-b932-9ab04fb0c761"
                  },
                  {
                    "reference": "urn:uuid:842fc602-df49-4859-bc72-7faefe81460e"
                  },
                  {
                    "reference": "urn:uuid:be122cbe-de2f-4df0-aa38-15cf5845483d"
                  },
                  {
                    "reference": "urn:uuid:0685a55c-8e4f-4c6c-ab81-3e6324bf42cc"
                  },
                  {
                    "reference": "urn:uuid:fa506a5e-a8e0-4f8e-9ab3-1ac51911b89c"
                  },
                  {
                    "reference": "urn:uuid:5032fe1a-7fcd-4310-a576-f3daeeffd65d"
                  },
                  {
                    "reference": "urn:uuid:1cb3a119-90e7-4238-9d0d-2f37b4032a56"
                  },
                  {
                    "reference": "urn:uuid:f72dafca-e4da-4f78-ae69-f9abbaa2202f"
                  },
                  {
                    "reference": "urn:uuid:03b53232-6e7d-4ff4-a510-640e86a409be"
                  },
                  {
                    "reference": "urn:uuid:6390a218-3959-466d-8148-9e8e4ab27a77"
                  },
                  {
                    "reference": "urn:uuid:5af495e9-6518-47b6-9271-e1c391ca7573"
                  },
                  {
                    "reference": "urn:uuid:7b370a1a-783e-438e-a904-24cbe950c190"
                  },
                  {
                    "reference": "urn:uuid:6a8c9b07-e28e-4ced-bbab-10a661e69bfe"
                  },
                  {
                    "reference": "urn:uuid:8aea97a8-3de1-421c-91e0-5a7c2c25240e"
                  },
                  {
                    "reference": "urn:uuid:3b1863ca-7361-4539-972f-eee98faa5d5d"
                  },
                  {
                    "reference": "urn:uuid:a53c0637-7aba-4a4b-85bc-b7bdd291d86b"
                  },
                  {
                    "reference": "urn:uuid:ab2ba85e-ead1-460b-98ce-8f6ea5608c85"
                  }
                ],
                "text": {
                  "status": "generated",
                  "div": "<div xmlns=\"http://www.w3.org/1999/xhtml\"><h3>Chemistry</h3><table class=\"hl7__eu__lab__report\"><thead><tr><th>Test</th><th>03-JAN-2018</th><th>Reference&#xA0;Range</th><th>Unit</th></tr></thead><tbody><tr><td>Glucose [Mass/volume] in Serum or Plasma</td><td>90.5</td><td>70 - 140</td><td>mg/dL</td></tr><tr><td>Urea nitrogen [Mass/volume] in Serum or Plasma</td><td>12.1</td><td>7 - 20</td><td>mg/dL</td></tr><tr><td>Creatinine [Mass/volume] in Serum or Plasma</td><td><strong>2.3 H</strong></td><td>0.6 - 1.3</td><td>mg/dL</td></tr><tr><td>Calcium [Mass/volume] in Serum or Plasma</td><td>9.7</td><td>8.6 - 10.4</td><td>mg/dL</td></tr><tr><td>Sodium [Moles/volume] in Serum or Plasma</td><td>138.1</td><td>135 - 145</td><td>mmol/L</td></tr><tr><td>Potassium [Moles/volume] in Serum or Plasma</td><td>5.0</td><td>3.5 - 5.1</td><td>mmol/L</td></tr><tr><td>Chloride [Moles/volume] in Serum or Plasma</td><td><strong>109.4 H</strong></td><td>98 - 108</td><td>mmol/L</td></tr><tr><td>Carbon dioxide, total [Moles/volume] in Serum or Plasma</td><td>23.4</td><td>22 - 32</td><td>mmol/L</td></tr><tr><td>Ketones [Presence] in Urine by Test strip</td><td>Urine ketone test = +++</td><td></td><td></td></tr><tr><td>Hemoglobin A1c/Hemoglobin.total in Blood</td><td><strong>3.1 L</strong></td><td>4.5 - 6.4</td><td>%</td></tr><tr><td>Glucose [Mass/volume] in Blood</td><td>90.5</td><td>70 - 140</td><td>mg/dL</td></tr><tr><td>Urea nitrogen [Mass/volume] in Blood</td><td>12.1</td><td>7 - 30</td><td>mg/dL</td></tr><tr><td>Creatinine [Mass/volume] in Blood</td><td><strong>16.0 H</strong></td><td>0.5 - 1.3</td><td>mg/dL</td></tr><tr><td>Calcium [Mass/volume] in Blood</td><td>9.7</td><td>8.6 - 10.2</td><td>mg/dL</td></tr><tr><td>Sodium [Moles/volume] in Blood</td><td>138.1</td><td>135 - 145</td><td>mmol/L</td></tr><tr><td>Potassium [Moles/volume] in Blood</td><td>5.0</td><td>3.5 - 5.1</td><td>mmol/L</td></tr><tr><td>Chloride [Moles/volume] in Blood</td><td>109.4</td><td>98 - 114</td><td>mmol/L</td></tr><tr><td>Carbon dioxide, total [Moles/volume] in Blood</td><td>23.4</td><td>22 - 32</td><td>mmol/L</td></tr></tbody></table></div>"
                },
                "title": "Chemistry"
              },
              {
                "code": {
                  "coding": [
                    {
                      "code": "$18729-4",
                      "system": "http://loinc.org",
                      "display": "Urinalysis studies (set)"
                    }
                  ],
                  "text": "Urinalysis"
                },
                "entry": [
                  {
                    "reference": "urn:uuid:5897aff3-6f9e-44b9-8bff-b7853757fe6c"
                  },
                  {
                    "reference": "urn:uuid:87e83f4a-7c6f-40d6-acc3-5834185b8db6"
                  },
                  {
                    "reference": "urn:uuid:a17c5cf4-d86f-43dc-bf3c-1097117d8df8"
                  },
                  {
                    "reference": "urn:uuid:c91d031f-0a02-49e4-ab08-93b6d70683a3"
                  },
                  {
                    "reference": "urn:uuid:ab6b52a9-e693-45ea-a9de-a15551fd4806"
                  },
                  {
                    "reference": "urn:uuid:94a44db2-7c55-4d64-b527-2091a7164aab"
                  },
                  {
                    "reference": "urn:uuid:4da33067-3bae-493a-90da-f30680450bf2"
                  },
                  {
                    "reference": "urn:uuid:750c3832-0cb1-437a-98ab-3fe35578cb87"
                  },
                  {
                    "reference": "urn:uuid:03a58228-098f-4a01-bda4-5de22662a836"
                  },
                  {
                    "reference": "urn:uuid:77d24e23-3163-4b17-9b2c-3bc95afb6051"
                  },
                  {
                    "reference": "urn:uuid:05964371-712e-4a54-953d-54ce65d21bb6"
                  },
                  {
                    "reference": "urn:uuid:db7b2414-6cd0-472e-8ed1-9deffc209780"
                  }
                ],
                "text": {
                  "status": "generated",
                  "div": "<div xmlns=\"http://www.w3.org/1999/xhtml\"><h3>Urinalysis</h3><table class=\"hl7__eu__lab__report\"><thead><tr><th>Test</th><th>03-JAN-2018</th><th>Reference&#xA0;Range</th><th>Unit</th></tr></thead><tbody><tr><td>Glucose [Mass/volume] in Urine by Test strip</td><td><strong>1.4 H</strong></td><td>0.8 - 0</td><td>mg/dL</td></tr><tr><td>Glucose [Presence] in Urine by Test strip</td><td>++</td><td></td><td></td></tr><tr><td>Bilirubin.total [Mass/volume] in Urine by Test strip</td><td>0.8</td><td>0 - 1.5</td><td>mg/dL</td></tr><tr><td>Bilirubin.total [Presence] in Urine by Test strip</td><td>Finding of bilirubin in urine</td><td></td><td></td></tr><tr><td>Ketones [Mass/volume] in Urine by Test strip</td><td>0.9</td><td>0 - 8</td><td>mg/dL</td></tr><tr><td>Specific gravity of Urine by Test strip</td><td><strong>1.0 L</strong></td><td>1.01 - 1.03</td><td>{nominal}</td></tr><tr><td>pH of Urine by Test strip</td><td>5.7</td><td>4.6 - 7.5</td><td>pH</td></tr><tr><td>Protein [Mass/volume] in Urine by Test strip</td><td><strong>278.0 H</strong></td><td>0 - 14</td><td>mg/dL</td></tr><tr><td>Protein [Presence] in Urine by Test strip</td><td>Urine protein test = +++</td><td></td><td></td></tr><tr><td>Nitrite [Presence] in Urine by Test strip</td><td>Urine nitrite negative</td><td></td><td></td></tr><tr><td>Hemoglobin [Presence] in Urine by Test strip</td><td>Urine blood test = negative</td><td></td><td></td></tr><tr><td>Leukocyte esterase [Presence] in Urine by Test strip</td><td>Urine leukocyte test negative</td><td></td><td></td></tr></tbody></table></div>"
                },
                "title": "Urinalysis"
              },
              {
                "code": {
                  "coding": [
                    {
                      "code": "$LP7846-1",
                      "system": "http://loinc.org",
                      "display": "Specimen information"
                    }
                  ],
                  "text": "Specimen information"
                },
                "entry": [
                  {
                    "reference": "urn:uuid:34d5359a-5498-4f00-a56c-1c19a8d0ab25"
                  },
                  {
                    "reference": "urn:uuid:3f991e66-4476-4429-8d1a-6e0ed877151a"
                  },
                  {
                    "reference": "urn:uuid:5da9ceeb-38a8-4323-88b6-d3f551c7c619"
                  },
                  {
                    "reference": "urn:uuid:06cf3ae9-9eac-4eff-9a18-a548a326fa43"
                  }
                ],
                "text": {
                  "status": "generated",
                  "div": "<div xmlns=\"http://www.w3.org/1999/xhtml\"><h3>Specimen information</h3><table class=\"hl7__eu__lab__report\"><thead><tr><th>Test</th><th>03-JAN-2018</th><th>Specimen</th><th></th></tr></thead><tbody><tr><td>Appearance of Urine</td><td>Cloudy urine</td><td>Urine</td><td></td></tr><tr><td>Odor of Urine</td><td>Urine smell ammoniacal</td><td>Urine</td><td></td></tr><tr><td>Clarity of Urine</td><td>Translucent</td><td>Urine</td><td></td></tr><tr><td>Color of Urine</td><td>Brown color</td><td>Urine</td><td></td></tr></tbody></table></div>"
                },
                "title": "Specimen information"
              }
            ],
            "title": "Laboratory Report"
          },
          {
            "text": {
              "status": "generated",
              "div": "<div xmlns=\"http://www.w3.org/1999/xhtml\"><h3>Annotation</h3><table class=\"hl7__eu__lab__report\"><tr><th>Conclusion and Recommendations based on this report and previous findings known to us</th></tr><tr><td>The patient shows markedly elevated creatinine, proteinuria, glucosuria, ketonuria, low urine specific gravity, and abnormal urine appearance, suggesting significant renal dysfunction, likely acute or chronic kidney disease with possible nephrotic features. Blood glucose is normal but HbA1c is low, possibly due to anemia or recent changes in glycemic control. No evidence of urinary tract infection. Immediate nephrology evaluation is recommended.</td></tr></table></div>"
            },
            "code": {
              "coding": [
                {
                  "system": "http://loinc.org",
                  "code": "48767-8",
                  "display": "Annotation comment"
                }
              ]
            },
            "title": "Annotation comment"
          }
        ],
        "status": "final",
        "subject": {
          "reference": "urn:uuid:a9eb0623-9075-4b10-a7cd-e58cf92eacc9",
          "display": "Maria Nohlmans"
        },
        "date": "2018-01-03T12:02:39Z",
        "title": "Laboratory Report",
        "confidentiality": "N"
      }
    },
    {
      "fullUrl": "urn:uuid:9821b14d-3ad6-4205-97a1-735cea792b95",
      "resource": {
        "resourceType": "DiagnosticReport",
        "id": "9821b14d-3ad6-4205-97a1-735cea792b95",
        "meta": {
          "profile": [
            "http://hl7.eu/fhir/laboratory/StructureDefinition/DiagnosticReport-eu-lab"
          ]
        },
        "identifier": [
          {
            "assigner": {
              "display": "HL7 Europe"
            },
            "system": "urn:oid:2.16.840.1.113883.2.51.999",
            "value": "54f49d75-6033-4a0f-998f-23e7278f7869"
          }
        ],
        "extension": [
          {
            "url": "http://hl7.org/fhir/5.0/StructureDefinition/extension-DiagnosticReport.composition",
            "valueReference": {
              "reference": "urn:uuid:e52961bc-e480-4519-b8fb-437cb9e92aa0"
            }
          }
        ],
        "category": [
          {
            "coding": [
              {
                "code": "26436-6",
                "system": "http://loinc.org",
                "display": "Laboratory studies (set)"
              }
            ]
          }
        ],
        "specimen": [
          {
            "reference": "urn:uuid:47adf1a0-43d1-4f9e-9128-688cba841138"
          },
          {
            "reference": "urn:uuid:cdc2b44d-e489-4433-b15d-52d498437f9a"
          },
          {
            "reference": "urn:uuid:328e36e8-2f60-4d81-a3f4-ac376d8cbe18"
          }
        ],
        "result": [
          {
            "reference": "urn:uuid:9f30a137-9814-4140-b539-8c93849ae655"
          },
          {
            "reference": "urn:uuid:2cb0cab1-209f-490c-b932-9ab04fb0c761"
          },
          {
            "reference": "urn:uuid:842fc602-df49-4859-bc72-7faefe81460e"
          },
          {
            "reference": "urn:uuid:be122cbe-de2f-4df0-aa38-15cf5845483d"
          },
          {
            "reference": "urn:uuid:0685a55c-8e4f-4c6c-ab81-3e6324bf42cc"
          },
          {
            "reference": "urn:uuid:fa506a5e-a8e0-4f8e-9ab3-1ac51911b89c"
          },
          {
            "reference": "urn:uuid:5032fe1a-7fcd-4310-a576-f3daeeffd65d"
          },
          {
            "reference": "urn:uuid:1cb3a119-90e7-4238-9d0d-2f37b4032a56"
          },
          {
            "reference": "urn:uuid:34d5359a-5498-4f00-a56c-1c19a8d0ab25"
          },
          {
            "reference": "urn:uuid:3f991e66-4476-4429-8d1a-6e0ed877151a"
          },
          {
            "reference": "urn:uuid:5da9ceeb-38a8-4323-88b6-d3f551c7c619"
          },
          {
            "reference": "urn:uuid:06cf3ae9-9eac-4eff-9a18-a548a326fa43"
          },
          {
            "reference": "urn:uuid:5897aff3-6f9e-44b9-8bff-b7853757fe6c"
          },
          {
            "reference": "urn:uuid:87e83f4a-7c6f-40d6-acc3-5834185b8db6"
          },
          {
            "reference": "urn:uuid:a17c5cf4-d86f-43dc-bf3c-1097117d8df8"
          },
          {
            "reference": "urn:uuid:c91d031f-0a02-49e4-ab08-93b6d70683a3"
          },
          {
            "reference": "urn:uuid:ab6b52a9-e693-45ea-a9de-a15551fd4806"
          },
          {
            "reference": "urn:uuid:f72dafca-e4da-4f78-ae69-f9abbaa2202f"
          },
          {
            "reference": "urn:uuid:94a44db2-7c55-4d64-b527-2091a7164aab"
          },
          {
            "reference": "urn:uuid:4da33067-3bae-493a-90da-f30680450bf2"
          },
          {
            "reference": "urn:uuid:750c3832-0cb1-437a-98ab-3fe35578cb87"
          },
          {
            "reference": "urn:uuid:03a58228-098f-4a01-bda4-5de22662a836"
          },
          {
            "reference": "urn:uuid:77d24e23-3163-4b17-9b2c-3bc95afb6051"
          },
          {
            "reference": "urn:uuid:05964371-712e-4a54-953d-54ce65d21bb6"
          },
          {
            "reference": "urn:uuid:db7b2414-6cd0-472e-8ed1-9deffc209780"
          },
          {
            "reference": "urn:uuid:03b53232-6e7d-4ff4-a510-640e86a409be"
          },
          {
            "reference": "urn:uuid:6390a218-3959-466d-8148-9e8e4ab27a77"
          },
          {
            "reference": "urn:uuid:5af495e9-6518-47b6-9271-e1c391ca7573"
          },
          {
            "reference": "urn:uuid:7b370a1a-783e-438e-a904-24cbe950c190"
          },
          {
            "reference": "urn:uuid:6a8c9b07-e28e-4ced-bbab-10a661e69bfe"
          },
          {
            "reference": "urn:uuid:8aea97a8-3de1-421c-91e0-5a7c2c25240e"
          },
          {
            "reference": "urn:uuid:3b1863ca-7361-4539-972f-eee98faa5d5d"
          },
          {
            "reference": "urn:uuid:a53c0637-7aba-4a4b-85bc-b7bdd291d86b"
          },
          {
            "reference": "urn:uuid:ab2ba85e-ead1-460b-98ce-8f6ea5608c85"
          }
        ],
        "status": "registered",
        "code": {
          "coding": [
            {
              "code": "11502-2",
              "system": "http://loinc.org",
              "display": "Laboratory report"
            }
          ]
        },
        "subject": {
          "reference": "urn:uuid:a9eb0623-9075-4b10-a7cd-e58cf92eacc9",
          "display": "Maria Nohlmans"
        }
      }
    },
    {
      "fullUrl": "urn:uuid:a9eb0623-9075-4b10-a7cd-e58cf92eacc9",
      "resource": {
        "resourceType": "Patient",
        "id": "a9eb0623-9075-4b10-a7cd-e58cf92eacc9",
        "meta": {
          "security": [
            {
              "system": "http://terminology.hl7.org/CodeSystem/v3-ActReason",
              "code": "HTEST"
            },
            {
              "system": "http://terminology.hl7.org/CodeSystem/v3-ActReason",
              "code": "TRAIN"
            }
          ],
          "tag": [
            {
              "system": "https://synderai.net/fhir/CodeSystem/tags",
              "code": "synthetic",
              "display": "SYNDERAI Synthetic data"
            }
          ],
          "profile": [
            "http://hl7.eu/fhir/base/StructureDefinition/patient-eu-core"
          ]
        },
        "identifier": [
          {
            "type": {
              "coding": [
                {
                  "code": "PT",
                  "system": "http://terminology.hl7.org/CodeSystem/v2-0203"
                }
              ]
            },
            "system": "http://ec.europa.eu/identifier/eci",
            "value": "6886-506417-1"
          },
          {
            "type": {
              "coding": [
                {
                  "code": "MR",
                  "system": "http://terminology.hl7.org/CodeSystem/v2-0203"
                }
              ]
            },
            "system": "http://local.setting.eu/identifier",
            "value": "2cb21ed6-b617-b1f3-2290-589a710de5ee"
          }
        ],
        "name": [
          {
            "family": "Nohlmans"
          },
          {
            "given": [
              "Maria"
            ]
          },
          {
            "text": "Maria Nohlmans"
          }
        ],
        "address": [
          {
            "line": [
              "Alfons-Wulff-Weg 1"
            ],
            "use": "home",
            "type": "physical",
            "postalCode": "25813",
            "city": "Husum",
            "country": "Germany"
          }
        ],
        "telecom": [
          {
            "system": "phone",
            "value": "+49(0)1911 105501"
          }
        ],
        "extension": [
          {
            "url": "http://hl7.org/fhir/StructureDefinition/patient-nationality",
            "valueCodeableConcept": {
              "coding": [
                {
                  "code": "DE",
                  "system": "http://hl7.org/fhir/ValueSet/country"
                }
              ]
            }
          }
        ],
        "text": {
          "status": "generated",
          "div": "<div xmlns=\"http://www.w3.org/1999/xhtml\"><table class=\"hl7__ips\"><tr><td>Maria Nohlmans</td><td>female</td><td>11-Jun-1947</td></tr></table></div>"
        },
        "gender": "female",
        "birthDate": "1947-06-11"
      }
    },
    {
      "fullUrl": "urn:uuid:e180eec2-5a58-4a90-80a6-ffe261606d3c",
      "resource": {
        "resourceType": "ServiceRequest",
        "id": "e180eec2-5a58-4a90-80a6-ffe261606d3c",
        "meta": {
          "profile": [
            "http://hl7.eu/fhir/laboratory/StructureDefinition/ServiceRequest-eu-lab"
          ]
        },
        "identifier": [
          {
            "system": "http://example.org",
            "value": "8f593a9d-9e37-4454-aa78-e9d481f07655"
          }
        ],
        "specimen": [
          {
            "reference": "urn:uuid:47adf1a0-43d1-4f9e-9128-688cba841138"
          },
          {
            "reference": "urn:uuid:cdc2b44d-e489-4433-b15d-52d498437f9a"
          },
          {
            "reference": "urn:uuid:328e36e8-2f60-4d81-a3f4-ac376d8cbe18"
          }
        ],
        "reasonCode": [
          {
            "coding": [
              {
                "code": "401314000",
                "system": "http://snomed.info/sct",
                "display": "Acute non-ST segment elevation myocardial infarction"
              }
            ]
          },
          {
            "coding": [
              {
                "code": "157141000119108",
                "system": "http://snomed.info/sct",
                "display": "Proteinuria due to type 2 diabetes mellitus"
              }
            ]
          },
          {
            "coding": [
              {
                "code": "237602007",
                "system": "http://snomed.info/sct",
                "display": "Metabolic syndrome X"
              }
            ]
          },
          {
            "coding": [
              {
                "code": "90781000119102",
                "system": "http://snomed.info/sct",
                "display": "Microalbuminuria due to type 2 diabetes mellitus"
              }
            ]
          },
          {
            "coding": [
              {
                "code": "127013003",
                "system": "http://snomed.info/sct",
                "display": "Disorder of kidney due to diabetes mellitus"
              }
            ]
          },
          {
            "coding": [
              {
                "code": "59621000",
                "system": "http://snomed.info/sct",
                "display": "Essential hypertension"
              }
            ]
          },
          {
            "coding": [
              {
                "code": "271737000",
                "system": "http://snomed.info/sct",
                "display": "Anemia"
              }
            ]
          },
          {
            "coding": [
              {
                "code": "15777000",
                "system": "http://snomed.info/sct",
                "display": "Prediabetes"
              }
            ]
          }
        ],
        "status": "active",
        "intent": "order",
        "code": {
          "coding": [
            {
              "code": "108252007",
              "system": "http://snomed.info/sct",
              "display": "Laboratory procedure"
            }
          ]
        },
        "subject": {
          "reference": "urn:uuid:a9eb0623-9075-4b10-a7cd-e58cf92eacc9",
          "display": "Maria Nohlmans"
        },
        "requester": {
          "reference": "urn:uuid:72553dfc-ff35-47f8-b44b-201a5837682d"
        }
      }
    },
    {
      "fullUrl": "urn:uuid:72553dfc-ff35-47f8-b44b-201a5837682d",
      "resource": {
        "resourceType": "PractitionerRole",
        "id": "72553dfc-ff35-47f8-b44b-201a5837682d",
        "meta": {
          "profile": [
            "http://hl7.eu/fhir/base/StructureDefinition/practitionerRole-eu"
          ]
        },
        "text": {
          "status": "generated",
          "div": "<div xmlns=\"http://www.w3.org/1999/xhtml\">Provider Role Id: 72553dfc-ff35-47f8-b44b-201a5837682d</div>"
        },
        "organization": {
          "reference": "urn:uuid:40edfa9b-97e2-466d-8526-b2000677edb9"
        }
      }
    },
    {
      "fullUrl": "urn:uuid:40edfa9b-97e2-466d-8526-b2000677edb9",
      "resource": {
        "resourceType": "Organization",
        "id": "40edfa9b-97e2-466d-8526-b2000677edb9",
        "meta": {
          "profile": [
            "http://hl7.eu/fhir/base/StructureDefinition/organization-eu"
          ]
        },
        "identifier": [
          {
            "assigner": {
              "display": "HL7 Europe"
            },
            "system": "urn:oid:2.16.840.1.113883.2.51.999",
            "value": "530223a8-76ff-4ef4-b4dd-4e1b9f8cf052"
          }
        ],
        "address": [
          {
            "line": [
              "Brinckmannstraße 35"
            ],
            "city": "Husum",
            "postalCode": "25813",
            "country": "Germany"
          }
        ],
        "text": {
          "status": "generated",
          "div": "<div xmlns=\"http://www.w3.org/1999/xhtml\">Provider Organization: Dr. Wolfram Hussels Kieferorthopäde</div>"
        },
        "name": "Dr. Wolfram Hussels Kieferorthopäde"
      }
    },
    {
      "fullUrl": "urn:uuid:47adf1a0-43d1-4f9e-9128-688cba841138",
      "resource": {
        "resourceType": "Specimen",
        "id": "47adf1a0-43d1-4f9e-9128-688cba841138",
        "meta": {
          "profile": [
            "http://hl7.eu/fhir/laboratory/StructureDefinition/Specimen-eu-lab"
          ]
        },
        "collection": {
          "collectedDateTime": "2018-01-03"
        },
        "text": {
          "status": "generated",
          "div": "<div xmlns=\"http://www.w3.org/1999/xhtml\"><table class=\"hl7__eu__lab__report\"><tr><th>Specimen</th><th>Collection Date</th></tr><tr><td>Acellular blood (serum or plasma) specimen</td><td><span class=\"nb\">03-Jan-2018</span></td></tr></table></div>"
        },
        "type": {
          "coding": [
            {
              "code": "122592007",
              "system": "http://snomed.info/sct",
              "display": "Acellular blood (serum or plasma) specimen"
            }
          ]
        }
      }
    },
    {
      "fullUrl": "urn:uuid:cdc2b44d-e489-4433-b15d-52d498437f9a",
      "resource": {
        "resourceType": "Specimen",
        "id": "cdc2b44d-e489-4433-b15d-52d498437f9a",
        "meta": {
          "profile": [
            "http://hl7.eu/fhir/laboratory/StructureDefinition/Specimen-eu-lab"
          ]
        },
        "collection": {
          "collectedDateTime": "2018-01-03"
        },
        "text": {
          "status": "generated",
          "div": "<div xmlns=\"http://www.w3.org/1999/xhtml\"><table class=\"hl7__eu__lab__report\"><tr><th>Specimen</th><th>Collection Date</th></tr><tr><td>Urine specimen</td><td><span class=\"nb\">03-Jan-2018</span></td></tr></table></div>"
        },
        "type": {
          "coding": [
            {
              "code": "122575003",
              "system": "http://snomed.info/sct",
              "display": "Urine specimen"
            }
          ]
        }
      }
    },
    {
      "fullUrl": "urn:uuid:328e36e8-2f60-4d81-a3f4-ac376d8cbe18",
      "resource": {
        "resourceType": "Specimen",
        "id": "328e36e8-2f60-4d81-a3f4-ac376d8cbe18",
        "meta": {
          "profile": [
            "http://hl7.eu/fhir/laboratory/StructureDefinition/Specimen-eu-lab"
          ]
        },
        "collection": {
          "collectedDateTime": "2018-01-03"
        },
        "text": {
          "status": "generated",
          "div": "<div xmlns=\"http://www.w3.org/1999/xhtml\"><table class=\"hl7__eu__lab__report\"><tr><th>Specimen</th><th>Collection Date</th></tr><tr><td>Whole blood specimen (specimen)</td><td><span class=\"nb\">03-Jan-2018</span></td></tr></table></div>"
        },
        "type": {
          "coding": [
            {
              "code": "258580003",
              "system": "http://snomed.info/sct",
              "display": "Whole blood specimen (specimen)"
            }
          ]
        }
      }
    },
    {
      "fullUrl": "urn:uuid:9f30a137-9814-4140-b539-8c93849ae655",
      "resource": {
        "resourceType": "Observation",
        "id": "9f30a137-9814-4140-b539-8c93849ae655",
        "meta": {
          "profile": [
            "http://hl7.eu/fhir/laboratory/StructureDefinition/Observation-resultslab-eu-lab"
          ]
        },
        "performer": [
          {
            "display": "The Central European Lab"
          }
        ],
        "category": [
          {
            "coding": [
              {
                "system": "http://terminology.hl7.org/CodeSystem/observation-category",
                "code": "laboratory"
              }
            ]
          }
        ],
        "code": {
          "coding": [
            {
              "code": "2345-7",
              "system": "http://loinc.org",
              "display": "Glucose [Mass/volume] in Serum or Plasma"
            }
          ],
          "text": "Glucose [Mass/volume] in Serum or Plasma"
        },
        "valueQuantity": {
          "system": "http://unitsofmeasure.org",
          "value": 90.5,
          "unit": "mg/dL",
          "code": "mg/dL"
        },
        "referenceRange": [
          {
            "low": {
              "value": 70,
              "code": "mg/dL",
              "system": "http://unitsofmeasure.org"
            }
          },
          {
            "high": {
              "value": 140,
              "code": "mg/dL",
              "system": "http://unitsofmeasure.org"
            }
          }
        ],
        "text": {
          "status": "generated",
          "div": "<div xmlns=\"http://www.w3.org/1999/xhtml\"><table class=\"hl7__eu__lab__report\"><tr><th>Test</th><th>03-Jan-2018</th><th>Reference&#xA0;Range</th><th>Unit</th></tr><tr><td>Glucose [Mass/volume] in Serum or Plasma</td><td>90.5</td><td>70 - 140</td><td></td><td>mg/dL</td></tr></table></div>"
        },
        "status": "final",
        "subject": {
          "reference": "urn:uuid:a9eb0623-9075-4b10-a7cd-e58cf92eacc9",
          "display": "Maria Nohlmans"
        },
        "effectiveDateTime": "2018-01-03T11:02:39Z",
        "specimen": {
          "reference": "urn:uuid:47adf1a0-43d1-4f9e-9128-688cba841138"
        }
      }
    },
    {
      "fullUrl": "urn:uuid:2cb0cab1-209f-490c-b932-9ab04fb0c761",
      "resource": {
        "resourceType": "Observation",
        "id": "2cb0cab1-209f-490c-b932-9ab04fb0c761",
        "meta": {
          "profile": [
            "http://hl7.eu/fhir/laboratory/StructureDefinition/Observation-resultslab-eu-lab"
          ]
        },
        "performer": [
          {
            "display": "The Central European Lab"
          }
        ],
        "category": [
          {
            "coding": [
              {
                "system": "http://terminology.hl7.org/CodeSystem/observation-category",
                "code": "laboratory"
              }
            ]
          }
        ],
        "code": {
          "coding": [
            {
              "code": "3094-0",
              "system": "http://loinc.org",
              "display": "Urea nitrogen [Mass/volume] in Serum or Plasma"
            }
          ],
          "text": "Urea nitrogen [Mass/volume] in Serum or Plasma"
        },
        "valueQuantity": {
          "system": "http://unitsofmeasure.org",
          "value": 12.1,
          "unit": "mg/dL",
          "code": "mg/dL"
        },
        "referenceRange": [
          {
            "low": {
              "value": 7,
              "code": "mg/dL",
              "system": "http://unitsofmeasure.org"
            }
          },
          {
            "high": {
              "value": 20,
              "code": "mg/dL",
              "system": "http://unitsofmeasure.org"
            }
          }
        ],
        "text": {
          "status": "generated",
          "div": "<div xmlns=\"http://www.w3.org/1999/xhtml\"><table class=\"hl7__eu__lab__report\"><tr><th>Test</th><th>03-Jan-2018</th><th>Reference&#xA0;Range</th><th>Unit</th></tr><tr><td>Urea nitrogen [Mass/volume] in Serum or Plasma</td><td>12.1</td><td>7 - 20</td><td></td><td>mg/dL</td></tr></table></div>"
        },
        "status": "final",
        "subject": {
          "reference": "urn:uuid:a9eb0623-9075-4b10-a7cd-e58cf92eacc9",
          "display": "Maria Nohlmans"
        },
        "effectiveDateTime": "2018-01-03T11:02:39Z",
        "specimen": {
          "reference": "urn:uuid:47adf1a0-43d1-4f9e-9128-688cba841138"
        }
      }
    },
    {
      "fullUrl": "urn:uuid:842fc602-df49-4859-bc72-7faefe81460e",
      "resource": {
        "resourceType": "Observation",
        "id": "842fc602-df49-4859-bc72-7faefe81460e",
        "meta": {
          "profile": [
            "http://hl7.eu/fhir/laboratory/StructureDefinition/Observation-resultslab-eu-lab"
          ]
        },
        "performer": [
          {
            "display": "The Central European Lab"
          }
        ],
        "category": [
          {
            "coding": [
              {
                "system": "http://terminology.hl7.org/CodeSystem/observation-category",
                "code": "laboratory"
              }
            ]
          }
        ],
        "code": {
          "coding": [
            {
              "code": "2160-0",
              "system": "http://loinc.org",
              "display": "Creatinine [Mass/volume] in Serum or Plasma"
            }
          ],
          "text": "Creatinine [Mass/volume] in Serum or Plasma"
        },
        "valueQuantity": {
          "system": "http://unitsofmeasure.org",
          "value": 2.3,
          "unit": "mg/dL",
          "code": "mg/dL"
        },
        "referenceRange": [
          {
            "low": {
              "value": 0.6,
              "code": "mg/dL",
              "system": "http://unitsofmeasure.org"
            }
          },
          {
            "high": {
              "value": 1.3,
              "code": "mg/dL",
              "system": "http://unitsofmeasure.org"
            }
          }
        ],
        "interpretation": [
          {
            "coding": [
              {
                "code": "H",
                "system": "http://terminology.hl7.org/CodeSystem/v3-ObservationInterpretation",
                "display": "High"
              }
            ]
          }
        ],
        "text": {
          "status": "generated",
          "div": "<div xmlns=\"http://www.w3.org/1999/xhtml\"><table class=\"hl7__eu__lab__report\"><tr><th>Test</th><th>03-Jan-2018</th><th>Reference&#xA0;Range</th><th>Unit</th></tr><tr><td>Creatinine [Mass/volume] in Serum or Plasma</td><td>2.3</td><td>0.6 - 1.3</td><td>H</td><td>mg/dL</td></tr></table></div>"
        },
        "status": "final",
        "subject": {
          "reference": "urn:uuid:a9eb0623-9075-4b10-a7cd-e58cf92eacc9",
          "display": "Maria Nohlmans"
        },
        "effectiveDateTime": "2018-01-03T11:02:39Z",
        "specimen": {
          "reference": "urn:uuid:47adf1a0-43d1-4f9e-9128-688cba841138"
        }
      }
    },
    {
      "fullUrl": "urn:uuid:be122cbe-de2f-4df0-aa38-15cf5845483d",
      "resource": {
        "resourceType": "Observation",
        "id": "be122cbe-de2f-4df0-aa38-15cf5845483d",
        "meta": {
          "profile": [
            "http://hl7.eu/fhir/laboratory/StructureDefinition/Observation-resultslab-eu-lab"
          ]
        },
        "performer": [
          {
            "display": "The Central European Lab"
          }
        ],
        "category": [
          {
            "coding": [
              {
                "system": "http://terminology.hl7.org/CodeSystem/observation-category",
                "code": "laboratory"
              }
            ]
          }
        ],
        "code": {
          "coding": [
            {
              "code": "17861-6",
              "system": "http://loinc.org",
              "display": "Calcium [Mass/volume] in Serum or Plasma"
            }
          ],
          "text": "Calcium [Mass/volume] in Serum or Plasma"
        },
        "valueQuantity": {
          "system": "http://unitsofmeasure.org",
          "value": 9.7,
          "unit": "mg/dL",
          "code": "mg/dL"
        },
        "referenceRange": [
          {
            "low": {
              "value": 8.6,
              "code": "mg/dL",
              "system": "http://unitsofmeasure.org"
            }
          },
          {
            "high": {
              "value": 10.4,
              "code": "mg/dL",
              "system": "http://unitsofmeasure.org"
            }
          }
        ],
        "text": {
          "status": "generated",
          "div": "<div xmlns=\"http://www.w3.org/1999/xhtml\"><table class=\"hl7__eu__lab__report\"><tr><th>Test</th><th>03-Jan-2018</th><th>Reference&#xA0;Range</th><th>Unit</th></tr><tr><td>Calcium [Mass/volume] in Serum or Plasma</td><td>9.7</td><td>8.6 - 10.4</td><td></td><td>mg/dL</td></tr></table></div>"
        },
        "status": "final",
        "subject": {
          "reference": "urn:uuid:a9eb0623-9075-4b10-a7cd-e58cf92eacc9",
          "display": "Maria Nohlmans"
        },
        "effectiveDateTime": "2018-01-03T11:02:39Z",
        "specimen": {
          "reference": "urn:uuid:47adf1a0-43d1-4f9e-9128-688cba841138"
        }
      }
    },
    {
      "fullUrl": "urn:uuid:0685a55c-8e4f-4c6c-ab81-3e6324bf42cc",
      "resource": {
        "resourceType": "Observation",
        "id": "0685a55c-8e4f-4c6c-ab81-3e6324bf42cc",
        "meta": {
          "profile": [
            "http://hl7.eu/fhir/laboratory/StructureDefinition/Observation-resultslab-eu-lab"
          ]
        },
        "performer": [
          {
            "display": "The Central European Lab"
          }
        ],
        "category": [
          {
            "coding": [
              {
                "system": "http://terminology.hl7.org/CodeSystem/observation-category",
                "code": "laboratory"
              }
            ]
          }
        ],
        "code": {
          "coding": [
            {
              "code": "2951-2",
              "system": "http://loinc.org",
              "display": "Sodium [Moles/volume] in Serum or Plasma"
            }
          ],
          "text": "Sodium [Moles/volume] in Serum or Plasma"
        },
        "valueQuantity": {
          "system": "http://unitsofmeasure.org",
          "value": 138.1,
          "unit": "mmol/L",
          "code": "mmol/L"
        },
        "referenceRange": [
          {
            "low": {
              "value": 135,
              "code": "mmol/L",
              "system": "http://unitsofmeasure.org"
            }
          },
          {
            "high": {
              "value": 145,
              "code": "mmol/L",
              "system": "http://unitsofmeasure.org"
            }
          }
        ],
        "text": {
          "status": "generated",
          "div": "<div xmlns=\"http://www.w3.org/1999/xhtml\"><table class=\"hl7__eu__lab__report\"><tr><th>Test</th><th>03-Jan-2018</th><th>Reference&#xA0;Range</th><th>Unit</th></tr><tr><td>Sodium [Moles/volume] in Serum or Plasma</td><td>138.1</td><td>135 - 145</td><td></td><td>mmol/L</td></tr></table></div>"
        },
        "status": "final",
        "subject": {
          "reference": "urn:uuid:a9eb0623-9075-4b10-a7cd-e58cf92eacc9",
          "display": "Maria Nohlmans"
        },
        "effectiveDateTime": "2018-01-03T11:02:39Z",
        "specimen": {
          "reference": "urn:uuid:47adf1a0-43d1-4f9e-9128-688cba841138"
        }
      }
    },
    {
      "fullUrl": "urn:uuid:fa506a5e-a8e0-4f8e-9ab3-1ac51911b89c",
      "resource": {
        "resourceType": "Observation",
        "id": "fa506a5e-a8e0-4f8e-9ab3-1ac51911b89c",
        "meta": {
          "profile": [
            "http://hl7.eu/fhir/laboratory/StructureDefinition/Observation-resultslab-eu-lab"
          ]
        },
        "performer": [
          {
            "display": "The Central European Lab"
          }
        ],
        "category": [
          {
            "coding": [
              {
                "system": "http://terminology.hl7.org/CodeSystem/observation-category",
                "code": "laboratory"
              }
            ]
          }
        ],
        "code": {
          "coding": [
            {
              "code": "2823-3",
              "system": "http://loinc.org",
              "display": "Potassium [Moles/volume] in Serum or Plasma"
            }
          ],
          "text": "Potassium [Moles/volume] in Serum or Plasma"
        },
        "valueQuantity": {
          "system": "http://unitsofmeasure.org",
          "value": 5,
          "unit": "mmol/L",
          "code": "mmol/L"
        },
        "referenceRange": [
          {
            "low": {
              "value": 3.5,
              "code": "mmol/L",
              "system": "http://unitsofmeasure.org"
            }
          },
          {
            "high": {
              "value": 5.1,
              "code": "mmol/L",
              "system": "http://unitsofmeasure.org"
            }
          }
        ],
        "text": {
          "status": "generated",
          "div": "<div xmlns=\"http://www.w3.org/1999/xhtml\"><table class=\"hl7__eu__lab__report\"><tr><th>Test</th><th>03-Jan-2018</th><th>Reference&#xA0;Range</th><th>Unit</th></tr><tr><td>Potassium [Moles/volume] in Serum or Plasma</td><td>5.0</td><td>3.5 - 5.1</td><td></td><td>mmol/L</td></tr></table></div>"
        },
        "status": "final",
        "subject": {
          "reference": "urn:uuid:a9eb0623-9075-4b10-a7cd-e58cf92eacc9",
          "display": "Maria Nohlmans"
        },
        "effectiveDateTime": "2018-01-03T11:02:39Z",
        "specimen": {
          "reference": "urn:uuid:47adf1a0-43d1-4f9e-9128-688cba841138"
        }
      }
    },
    {
      "fullUrl": "urn:uuid:5032fe1a-7fcd-4310-a576-f3daeeffd65d",
      "resource": {
        "resourceType": "Observation",
        "id": "5032fe1a-7fcd-4310-a576-f3daeeffd65d",
        "meta": {
          "profile": [
            "http://hl7.eu/fhir/laboratory/StructureDefinition/Observation-resultslab-eu-lab"
          ]
        },
        "performer": [
          {
            "display": "The Central European Lab"
          }
        ],
        "category": [
          {
            "coding": [
              {
                "system": "http://terminology.hl7.org/CodeSystem/observation-category",
                "code": "laboratory"
              }
            ]
          }
        ],
        "code": {
          "coding": [
            {
              "code": "2075-0",
              "system": "http://loinc.org",
              "display": "Chloride [Moles/volume] in Serum or Plasma"
            }
          ],
          "text": "Chloride [Moles/volume] in Serum or Plasma"
        },
        "valueQuantity": {
          "system": "http://unitsofmeasure.org",
          "value": 109.4,
          "unit": "mmol/L",
          "code": "mmol/L"
        },
        "referenceRange": [
          {
            "low": {
              "value": 98,
              "code": "mmol/L",
              "system": "http://unitsofmeasure.org"
            }
          },
          {
            "high": {
              "value": 108,
              "code": "mmol/L",
              "system": "http://unitsofmeasure.org"
            }
          }
        ],
        "interpretation": [
          {
            "coding": [
              {
                "code": "H",
                "system": "http://terminology.hl7.org/CodeSystem/v3-ObservationInterpretation",
                "display": "High"
              }
            ]
          }
        ],
        "text": {
          "status": "generated",
          "div": "<div xmlns=\"http://www.w3.org/1999/xhtml\"><table class=\"hl7__eu__lab__report\"><tr><th>Test</th><th>03-Jan-2018</th><th>Reference&#xA0;Range</th><th>Unit</th></tr><tr><td>Chloride [Moles/volume] in Serum or Plasma</td><td>109.4</td><td>98 - 108</td><td>H</td><td>mmol/L</td></tr></table></div>"
        },
        "status": "final",
        "subject": {
          "reference": "urn:uuid:a9eb0623-9075-4b10-a7cd-e58cf92eacc9",
          "display": "Maria Nohlmans"
        },
        "effectiveDateTime": "2018-01-03T11:02:39Z",
        "specimen": {
          "reference": "urn:uuid:47adf1a0-43d1-4f9e-9128-688cba841138"
        }
      }
    },
    {
      "fullUrl": "urn:uuid:1cb3a119-90e7-4238-9d0d-2f37b4032a56",
      "resource": {
        "resourceType": "Observation",
        "id": "1cb3a119-90e7-4238-9d0d-2f37b4032a56",
        "meta": {
          "profile": [
            "http://hl7.eu/fhir/laboratory/StructureDefinition/Observation-resultslab-eu-lab"
          ]
        },
        "performer": [
          {
            "display": "The Central European Lab"
          }
        ],
        "category": [
          {
            "coding": [
              {
                "system": "http://terminology.hl7.org/CodeSystem/observation-category",
                "code": "laboratory"
              }
            ]
          }
        ],
        "code": {
          "coding": [
            {
              "code": "2028-9",
              "system": "http://loinc.org",
              "display": "Carbon dioxide, total [Moles/volume] in Serum or Plasma"
            }
          ],
          "text": "Carbon dioxide, total [Moles/volume] in Serum or Plasma"
        },
        "valueQuantity": {
          "system": "http://unitsofmeasure.org",
          "value": 23.4,
          "unit": "mmol/L",
          "code": "mmol/L"
        },
        "referenceRange": [
          {
            "low": {
              "value": 22,
              "code": "mmol/L",
              "system": "http://unitsofmeasure.org"
            }
          },
          {
            "high": {
              "value": 32,
              "code": "mmol/L",
              "system": "http://unitsofmeasure.org"
            }
          }
        ],
        "text": {
          "status": "generated",
          "div": "<div xmlns=\"http://www.w3.org/1999/xhtml\"><table class=\"hl7__eu__lab__report\"><tr><th>Test</th><th>03-Jan-2018</th><th>Reference&#xA0;Range</th><th>Unit</th></tr><tr><td>Carbon dioxide, total [Moles/volume] in Serum or Plasma</td><td>23.4</td><td>22 - 32</td><td></td><td>mmol/L</td></tr></table></div>"
        },
        "status": "final",
        "subject": {
          "reference": "urn:uuid:a9eb0623-9075-4b10-a7cd-e58cf92eacc9",
          "display": "Maria Nohlmans"
        },
        "effectiveDateTime": "2018-01-03T11:02:39Z",
        "specimen": {
          "reference": "urn:uuid:47adf1a0-43d1-4f9e-9128-688cba841138"
        }
      }
    },
    {
      "fullUrl": "urn:uuid:34d5359a-5498-4f00-a56c-1c19a8d0ab25",
      "resource": {
        "resourceType": "Observation",
        "id": "34d5359a-5498-4f00-a56c-1c19a8d0ab25",
        "meta": {
          "profile": [
            "http://hl7.eu/fhir/laboratory/StructureDefinition/Observation-resultslab-eu-lab"
          ]
        },
        "performer": [
          {
            "display": "The Central European Lab"
          }
        ],
        "category": [
          {
            "coding": [
              {
                "system": "http://terminology.hl7.org/CodeSystem/observation-category",
                "code": "laboratory"
              }
            ]
          }
        ],
        "code": {
          "coding": [
            {
              "code": "5767-9",
              "system": "http://loinc.org",
              "display": "Appearance of Urine"
            }
          ],
          "text": "Appearance of Urine"
        },
        "text": {
          "status": "generated",
          "div": "<div xmlns=\"http://www.w3.org/1999/xhtml\"><table class=\"hl7__eu__lab__report\"><tr><th>Test</th><th>03-Jan-2018</th><th>Reference&#xA0;Range</th><th>Unit</th></tr><tr><td>Appearance of Urine</td></tr></table></div>"
        },
        "status": "final",
        "subject": {
          "reference": "urn:uuid:a9eb0623-9075-4b10-a7cd-e58cf92eacc9",
          "display": "Maria Nohlmans"
        },
        "effectiveDateTime": "2018-01-03T11:02:39Z",
        "specimen": {
          "reference": "urn:uuid:cdc2b44d-e489-4433-b15d-52d498437f9a"
        }
      }
    },
    {
      "fullUrl": "urn:uuid:3f991e66-4476-4429-8d1a-6e0ed877151a",
      "resource": {
        "resourceType": "Observation",
        "id": "3f991e66-4476-4429-8d1a-6e0ed877151a",
        "meta": {
          "profile": [
            "http://hl7.eu/fhir/laboratory/StructureDefinition/Observation-resultslab-eu-lab"
          ]
        },
        "performer": [
          {
            "display": "The Central European Lab"
          }
        ],
        "category": [
          {
            "coding": [
              {
                "system": "http://terminology.hl7.org/CodeSystem/observation-category",
                "code": "laboratory"
              }
            ]
          }
        ],
        "code": {
          "coding": [
            {
              "code": "34533-0",
              "system": "http://loinc.org",
              "display": "Odor of Urine"
            }
          ],
          "text": "Odor of Urine"
        },
        "text": {
          "status": "generated",
          "div": "<div xmlns=\"http://www.w3.org/1999/xhtml\"><table class=\"hl7__eu__lab__report\"><tr><th>Test</th><th>03-Jan-2018</th><th>Reference&#xA0;Range</th><th>Unit</th></tr><tr><td>Odor of Urine</td></tr></table></div>"
        },
        "status": "final",
        "subject": {
          "reference": "urn:uuid:a9eb0623-9075-4b10-a7cd-e58cf92eacc9",
          "display": "Maria Nohlmans"
        },
        "effectiveDateTime": "2018-01-03T11:02:39Z",
        "specimen": {
          "reference": "urn:uuid:cdc2b44d-e489-4433-b15d-52d498437f9a"
        }
      }
    },
    {
      "fullUrl": "urn:uuid:5da9ceeb-38a8-4323-88b6-d3f551c7c619",
      "resource": {
        "resourceType": "Observation",
        "id": "5da9ceeb-38a8-4323-88b6-d3f551c7c619",
        "meta": {
          "profile": [
            "http://hl7.eu/fhir/laboratory/StructureDefinition/Observation-resultslab-eu-lab"
          ]
        },
        "performer": [
          {
            "display": "The Central European Lab"
          }
        ],
        "category": [
          {
            "coding": [
              {
                "system": "http://terminology.hl7.org/CodeSystem/observation-category",
                "code": "laboratory"
              }
            ]
          }
        ],
        "code": {
          "coding": [
            {
              "code": "32167-9",
              "system": "http://loinc.org",
              "display": "Clarity of Urine"
            }
          ],
          "text": "Clarity of Urine"
        },
        "text": {
          "status": "generated",
          "div": "<div xmlns=\"http://www.w3.org/1999/xhtml\"><table class=\"hl7__eu__lab__report\"><tr><th>Test</th><th>03-Jan-2018</th><th>Reference&#xA0;Range</th><th>Unit</th></tr><tr><td>Clarity of Urine</td></tr></table></div>"
        },
        "status": "final",
        "subject": {
          "reference": "urn:uuid:a9eb0623-9075-4b10-a7cd-e58cf92eacc9",
          "display": "Maria Nohlmans"
        },
        "effectiveDateTime": "2018-01-03T11:02:39Z",
        "specimen": {
          "reference": "urn:uuid:cdc2b44d-e489-4433-b15d-52d498437f9a"
        }
      }
    },
    {
      "fullUrl": "urn:uuid:06cf3ae9-9eac-4eff-9a18-a548a326fa43",
      "resource": {
        "resourceType": "Observation",
        "id": "06cf3ae9-9eac-4eff-9a18-a548a326fa43",
        "meta": {
          "profile": [
            "http://hl7.eu/fhir/laboratory/StructureDefinition/Observation-resultslab-eu-lab"
          ]
        },
        "performer": [
          {
            "display": "The Central European Lab"
          }
        ],
        "category": [
          {
            "coding": [
              {
                "system": "http://terminology.hl7.org/CodeSystem/observation-category",
                "code": "laboratory"
              }
            ]
          }
        ],
        "code": {
          "coding": [
            {
              "code": "5778-6",
              "system": "http://loinc.org",
              "display": "Color of Urine"
            }
          ],
          "text": "Color of Urine"
        },
        "text": {
          "status": "generated",
          "div": "<div xmlns=\"http://www.w3.org/1999/xhtml\"><table class=\"hl7__eu__lab__report\"><tr><th>Test</th><th>03-Jan-2018</th><th>Reference&#xA0;Range</th><th>Unit</th></tr><tr><td>Color of Urine</td></tr></table></div>"
        },
        "status": "final",
        "subject": {
          "reference": "urn:uuid:a9eb0623-9075-4b10-a7cd-e58cf92eacc9",
          "display": "Maria Nohlmans"
        },
        "effectiveDateTime": "2018-01-03T11:02:39Z",
        "specimen": {
          "reference": "urn:uuid:cdc2b44d-e489-4433-b15d-52d498437f9a"
        }
      }
    },
    {
      "fullUrl": "urn:uuid:5897aff3-6f9e-44b9-8bff-b7853757fe6c",
      "resource": {
        "resourceType": "Observation",
        "id": "5897aff3-6f9e-44b9-8bff-b7853757fe6c",
        "meta": {
          "profile": [
            "http://hl7.eu/fhir/laboratory/StructureDefinition/Observation-resultslab-eu-lab"
          ]
        },
        "performer": [
          {
            "display": "The Central European Lab"
          }
        ],
        "category": [
          {
            "coding": [
              {
                "system": "http://terminology.hl7.org/CodeSystem/observation-category",
                "code": "laboratory"
              }
            ]
          }
        ],
        "code": {
          "coding": [
            {
              "code": "5792-7",
              "system": "http://loinc.org",
              "display": "Glucose [Mass/volume] in Urine by Test strip"
            }
          ],
          "text": "Glucose [Mass/volume] in Urine by Test strip"
        },
        "valueQuantity": {
          "system": "http://unitsofmeasure.org",
          "value": 1.4,
          "unit": "mg/dL",
          "code": "mg/dL"
        },
        "referenceRange": [
          {
            "low": {
              "value": 0.8,
              "code": "mg/dL",
              "system": "http://unitsofmeasure.org"
            }
          },
          {
            "high": {
              "value": 0,
              "code": "mg/dL",
              "system": "http://unitsofmeasure.org"
            }
          }
        ],
        "interpretation": [
          {
            "coding": [
              {
                "code": "H",
                "system": "http://terminology.hl7.org/CodeSystem/v3-ObservationInterpretation",
                "display": "High"
              }
            ]
          }
        ],
        "text": {
          "status": "generated",
          "div": "<div xmlns=\"http://www.w3.org/1999/xhtml\"><table class=\"hl7__eu__lab__report\"><tr><th>Test</th><th>03-Jan-2018</th><th>Reference&#xA0;Range</th><th>Unit</th></tr><tr><td>Glucose [Mass/volume] in Urine by Test strip</td><td>1.4</td><td>0.8 - 0</td><td>H</td><td>mg/dL</td></tr></table></div>"
        },
        "status": "final",
        "subject": {
          "reference": "urn:uuid:a9eb0623-9075-4b10-a7cd-e58cf92eacc9",
          "display": "Maria Nohlmans"
        },
        "effectiveDateTime": "2018-01-03T11:02:39Z",
        "specimen": {
          "reference": "urn:uuid:cdc2b44d-e489-4433-b15d-52d498437f9a"
        }
      }
    },
    {
      "fullUrl": "urn:uuid:87e83f4a-7c6f-40d6-acc3-5834185b8db6",
      "resource": {
        "resourceType": "Observation",
        "id": "87e83f4a-7c6f-40d6-acc3-5834185b8db6",
        "meta": {
          "profile": [
            "http://hl7.eu/fhir/laboratory/StructureDefinition/Observation-resultslab-eu-lab"
          ]
        },
        "performer": [
          {
            "display": "The Central European Lab"
          }
        ],
        "category": [
          {
            "coding": [
              {
                "system": "http://terminology.hl7.org/CodeSystem/observation-category",
                "code": "laboratory"
              }
            ]
          }
        ],
        "code": {
          "coding": [
            {
              "code": "25428-4",
              "system": "http://loinc.org",
              "display": "Glucose [Presence] in Urine by Test strip"
            }
          ],
          "text": "Glucose [Presence] in Urine by Test strip"
        },
        "text": {
          "status": "generated",
          "div": "<div xmlns=\"http://www.w3.org/1999/xhtml\"><table class=\"hl7__eu__lab__report\"><tr><th>Test</th><th>03-Jan-2018</th><th>Reference&#xA0;Range</th><th>Unit</th></tr><tr><td>Glucose [Presence] in Urine by Test strip</td></tr></table></div>"
        },
        "status": "final",
        "subject": {
          "reference": "urn:uuid:a9eb0623-9075-4b10-a7cd-e58cf92eacc9",
          "display": "Maria Nohlmans"
        },
        "effectiveDateTime": "2018-01-03T11:02:39Z",
        "specimen": {
          "reference": "urn:uuid:cdc2b44d-e489-4433-b15d-52d498437f9a"
        }
      }
    },
    {
      "fullUrl": "urn:uuid:a17c5cf4-d86f-43dc-bf3c-1097117d8df8",
      "resource": {
        "resourceType": "Observation",
        "id": "a17c5cf4-d86f-43dc-bf3c-1097117d8df8",
        "meta": {
          "profile": [
            "http://hl7.eu/fhir/laboratory/StructureDefinition/Observation-resultslab-eu-lab"
          ]
        },
        "performer": [
          {
            "display": "The Central European Lab"
          }
        ],
        "category": [
          {
            "coding": [
              {
                "system": "http://terminology.hl7.org/CodeSystem/observation-category",
                "code": "laboratory"
              }
            ]
          }
        ],
        "code": {
          "coding": [
            {
              "code": "20505-4",
              "system": "http://loinc.org",
              "display": "Bilirubin.total [Mass/volume] in Urine by Test strip"
            }
          ],
          "text": "Bilirubin.total [Mass/volume] in Urine by Test strip"
        },
        "valueQuantity": {
          "system": "http://unitsofmeasure.org",
          "value": 0.8,
          "unit": "mg/dL",
          "code": "mg/dL"
        },
        "referenceRange": [
          {
            "low": {
              "value": 0,
              "code": "mg/dL",
              "system": "http://unitsofmeasure.org"
            }
          },
          {
            "high": {
              "value": 1.5,
              "code": "mg/dL",
              "system": "http://unitsofmeasure.org"
            }
          }
        ],
        "text": {
          "status": "generated",
          "div": "<div xmlns=\"http://www.w3.org/1999/xhtml\"><table class=\"hl7__eu__lab__report\"><tr><th>Test</th><th>03-Jan-2018</th><th>Reference&#xA0;Range</th><th>Unit</th></tr><tr><td>Bilirubin.total [Mass/volume] in Urine by Test strip</td><td>0.8</td><td>0 - 1.5</td><td></td><td>mg/dL</td></tr></table></div>"
        },
        "status": "final",
        "subject": {
          "reference": "urn:uuid:a9eb0623-9075-4b10-a7cd-e58cf92eacc9",
          "display": "Maria Nohlmans"
        },
        "effectiveDateTime": "2018-01-03T11:02:39Z",
        "specimen": {
          "reference": "urn:uuid:cdc2b44d-e489-4433-b15d-52d498437f9a"
        }
      }
    },
    {
      "fullUrl": "urn:uuid:c91d031f-0a02-49e4-ab08-93b6d70683a3",
      "resource": {
        "resourceType": "Observation",
        "id": "c91d031f-0a02-49e4-ab08-93b6d70683a3",
        "meta": {
          "profile": [
            "http://hl7.eu/fhir/laboratory/StructureDefinition/Observation-resultslab-eu-lab"
          ]
        },
        "performer": [
          {
            "display": "The Central European Lab"
          }
        ],
        "category": [
          {
            "coding": [
              {
                "system": "http://terminology.hl7.org/CodeSystem/observation-category",
                "code": "laboratory"
              }
            ]
          }
        ],
        "code": {
          "coding": [
            {
              "code": "5770-3",
              "system": "http://loinc.org",
              "display": "Bilirubin.total [Presence] in Urine by Test strip"
            }
          ],
          "text": "Bilirubin.total [Presence] in Urine by Test strip"
        },
        "text": {
          "status": "generated",
          "div": "<div xmlns=\"http://www.w3.org/1999/xhtml\"><table class=\"hl7__eu__lab__report\"><tr><th>Test</th><th>03-Jan-2018</th><th>Reference&#xA0;Range</th><th>Unit</th></tr><tr><td>Bilirubin.total [Presence] in Urine by Test strip</td></tr></table></div>"
        },
        "status": "final",
        "subject": {
          "reference": "urn:uuid:a9eb0623-9075-4b10-a7cd-e58cf92eacc9",
          "display": "Maria Nohlmans"
        },
        "effectiveDateTime": "2018-01-03T11:02:39Z",
        "specimen": {
          "reference": "urn:uuid:cdc2b44d-e489-4433-b15d-52d498437f9a"
        }
      }
    },
    {
      "fullUrl": "urn:uuid:ab6b52a9-e693-45ea-a9de-a15551fd4806",
      "resource": {
        "resourceType": "Observation",
        "id": "ab6b52a9-e693-45ea-a9de-a15551fd4806",
        "meta": {
          "profile": [
            "http://hl7.eu/fhir/laboratory/StructureDefinition/Observation-resultslab-eu-lab"
          ]
        },
        "performer": [
          {
            "display": "The Central European Lab"
          }
        ],
        "category": [
          {
            "coding": [
              {
                "system": "http://terminology.hl7.org/CodeSystem/observation-category",
                "code": "laboratory"
              }
            ]
          }
        ],
        "code": {
          "coding": [
            {
              "code": "5797-6",
              "system": "http://loinc.org",
              "display": "Ketones [Mass/volume] in Urine by Test strip"
            }
          ],
          "text": "Ketones [Mass/volume] in Urine by Test strip"
        },
        "valueQuantity": {
          "system": "http://unitsofmeasure.org",
          "value": 0.9,
          "unit": "mg/dL",
          "code": "mg/dL"
        },
        "referenceRange": [
          {
            "low": {
              "value": 0,
              "code": "mg/dL",
              "system": "http://unitsofmeasure.org"
            }
          },
          {
            "high": {
              "value": 8,
              "code": "mg/dL",
              "system": "http://unitsofmeasure.org"
            }
          }
        ],
        "text": {
          "status": "generated",
          "div": "<div xmlns=\"http://www.w3.org/1999/xhtml\"><table class=\"hl7__eu__lab__report\"><tr><th>Test</th><th>03-Jan-2018</th><th>Reference&#xA0;Range</th><th>Unit</th></tr><tr><td>Ketones [Mass/volume] in Urine by Test strip</td><td>0.9</td><td>0 - 8</td><td></td><td>mg/dL</td></tr></table></div>"
        },
        "status": "final",
        "subject": {
          "reference": "urn:uuid:a9eb0623-9075-4b10-a7cd-e58cf92eacc9",
          "display": "Maria Nohlmans"
        },
        "effectiveDateTime": "2018-01-03T11:02:39Z",
        "specimen": {
          "reference": "urn:uuid:cdc2b44d-e489-4433-b15d-52d498437f9a"
        }
      }
    },
    {
      "fullUrl": "urn:uuid:f72dafca-e4da-4f78-ae69-f9abbaa2202f",
      "resource": {
        "resourceType": "Observation",
        "id": "f72dafca-e4da-4f78-ae69-f9abbaa2202f",
        "meta": {
          "profile": [
            "http://hl7.eu/fhir/laboratory/StructureDefinition/Observation-resultslab-eu-lab"
          ]
        },
        "performer": [
          {
            "display": "The Central European Lab"
          }
        ],
        "category": [
          {
            "coding": [
              {
                "system": "http://terminology.hl7.org/CodeSystem/observation-category",
                "code": "laboratory"
              }
            ]
          }
        ],
        "code": {
          "coding": [
            {
              "code": "2514-8",
              "system": "http://loinc.org",
              "display": "Ketones [Presence] in Urine by Test strip"
            }
          ],
          "text": "Ketones [Presence] in Urine by Test strip"
        },
        "text": {
          "status": "generated",
          "div": "<div xmlns=\"http://www.w3.org/1999/xhtml\"><table class=\"hl7__eu__lab__report\"><tr><th>Test</th><th>03-Jan-2018</th><th>Reference&#xA0;Range</th><th>Unit</th></tr><tr><td>Ketones [Presence] in Urine by Test strip</td></tr></table></div>"
        },
        "status": "final",
        "subject": {
          "reference": "urn:uuid:a9eb0623-9075-4b10-a7cd-e58cf92eacc9",
          "display": "Maria Nohlmans"
        },
        "effectiveDateTime": "2018-01-03T11:02:39Z",
        "specimen": {
          "reference": "urn:uuid:cdc2b44d-e489-4433-b15d-52d498437f9a"
        }
      }
    },
    {
      "fullUrl": "urn:uuid:94a44db2-7c55-4d64-b527-2091a7164aab",
      "resource": {
        "resourceType": "Observation",
        "id": "94a44db2-7c55-4d64-b527-2091a7164aab",
        "meta": {
          "profile": [
            "http://hl7.eu/fhir/laboratory/StructureDefinition/Observation-resultslab-eu-lab"
          ]
        },
        "performer": [
          {
            "display": "The Central European Lab"
          }
        ],
        "category": [
          {
            "coding": [
              {
                "system": "http://terminology.hl7.org/CodeSystem/observation-category",
                "code": "laboratory"
              }
            ]
          }
        ],
        "code": {
          "coding": [
            {
              "code": "5811-5",
              "system": "http://loinc.org",
              "display": "Specific gravity of Urine by Test strip"
            }
          ],
          "text": "Specific gravity of Urine by Test strip"
        },
        "valueQuantity": {
          "system": "http://unitsofmeasure.org",
          "value": 1,
          "unit": "{nominal}",
          "code": "{nominal}"
        },
        "referenceRange": [
          {
            "low": {
              "value": 1.01,
              "code": "g/mL",
              "system": "http://unitsofmeasure.org"
            }
          },
          {
            "high": {
              "value": 1.03,
              "code": "g/mL",
              "system": "http://unitsofmeasure.org"
            }
          }
        ],
        "interpretation": [
          {
            "coding": [
              {
                "code": "L",
                "system": "http://terminology.hl7.org/CodeSystem/v3-ObservationInterpretation",
                "display": "Low"
              }
            ]
          }
        ],
        "text": {
          "status": "generated",
          "div": "<div xmlns=\"http://www.w3.org/1999/xhtml\"><table class=\"hl7__eu__lab__report\"><tr><th>Test</th><th>03-Jan-2018</th><th>Reference&#xA0;Range</th><th>Unit</th></tr><tr><td>Specific gravity of Urine by Test strip</td><td>1.0</td><td>1.01 - 1.03</td><td>L</td><td>{nominal}</td></tr></table></div>"
        },
        "status": "final",
        "subject": {
          "reference": "urn:uuid:a9eb0623-9075-4b10-a7cd-e58cf92eacc9",
          "display": "Maria Nohlmans"
        },
        "effectiveDateTime": "2018-01-03T11:02:39Z",
        "specimen": {
          "reference": "urn:uuid:cdc2b44d-e489-4433-b15d-52d498437f9a"
        }
      }
    },
    {
      "fullUrl": "urn:uuid:4da33067-3bae-493a-90da-f30680450bf2",
      "resource": {
        "resourceType": "Observation",
        "id": "4da33067-3bae-493a-90da-f30680450bf2",
        "meta": {
          "profile": [
            "http://hl7.eu/fhir/laboratory/StructureDefinition/Observation-resultslab-eu-lab"
          ]
        },
        "performer": [
          {
            "display": "The Central European Lab"
          }
        ],
        "category": [
          {
            "coding": [
              {
                "system": "http://terminology.hl7.org/CodeSystem/observation-category",
                "code": "laboratory"
              }
            ]
          }
        ],
        "code": {
          "coding": [
            {
              "code": "5803-2",
              "system": "http://loinc.org",
              "display": "pH of Urine by Test strip"
            }
          ],
          "text": "pH of Urine by Test strip"
        },
        "valueQuantity": {
          "system": "http://unitsofmeasure.org",
          "value": 5.7,
          "unit": "pH",
          "code": "pH"
        },
        "referenceRange": [
          {
            "low": {
              "value": 4.6,
              "code": "pH",
              "system": "http://unitsofmeasure.org"
            }
          },
          {
            "high": {
              "value": 7.5,
              "code": "pH",
              "system": "http://unitsofmeasure.org"
            }
          }
        ],
        "text": {
          "status": "generated",
          "div": "<div xmlns=\"http://www.w3.org/1999/xhtml\"><table class=\"hl7__eu__lab__report\"><tr><th>Test</th><th>03-Jan-2018</th><th>Reference&#xA0;Range</th><th>Unit</th></tr><tr><td>pH of Urine by Test strip</td><td>5.7</td><td>4.6 - 7.5</td><td></td><td>pH</td></tr></table></div>"
        },
        "status": "final",
        "subject": {
          "reference": "urn:uuid:a9eb0623-9075-4b10-a7cd-e58cf92eacc9",
          "display": "Maria Nohlmans"
        },
        "effectiveDateTime": "2018-01-03T11:02:39Z",
        "specimen": {
          "reference": "urn:uuid:cdc2b44d-e489-4433-b15d-52d498437f9a"
        }
      }
    },
    {
      "fullUrl": "urn:uuid:750c3832-0cb1-437a-98ab-3fe35578cb87",
      "resource": {
        "resourceType": "Observation",
        "id": "750c3832-0cb1-437a-98ab-3fe35578cb87",
        "meta": {
          "profile": [
            "http://hl7.eu/fhir/laboratory/StructureDefinition/Observation-resultslab-eu-lab"
          ]
        },
        "performer": [
          {
            "display": "The Central European Lab"
          }
        ],
        "category": [
          {
            "coding": [
              {
                "system": "http://terminology.hl7.org/CodeSystem/observation-category",
                "code": "laboratory"
              }
            ]
          }
        ],
        "code": {
          "coding": [
            {
              "code": "5804-0",
              "system": "http://loinc.org",
              "display": "Protein [Mass/volume] in Urine by Test strip"
            }
          ],
          "text": "Protein [Mass/volume] in Urine by Test strip"
        },
        "valueQuantity": {
          "system": "http://unitsofmeasure.org",
          "value": 278,
          "unit": "mg/dL",
          "code": "mg/dL"
        },
        "referenceRange": [
          {
            "low": {
              "value": 0,
              "code": "mg/dL",
              "system": "http://unitsofmeasure.org"
            }
          },
          {
            "high": {
              "value": 14,
              "code": "mg/dL",
              "system": "http://unitsofmeasure.org"
            }
          }
        ],
        "interpretation": [
          {
            "coding": [
              {
                "code": "H",
                "system": "http://terminology.hl7.org/CodeSystem/v3-ObservationInterpretation",
                "display": "High"
              }
            ]
          }
        ],
        "text": {
          "status": "generated",
          "div": "<div xmlns=\"http://www.w3.org/1999/xhtml\"><table class=\"hl7__eu__lab__report\"><tr><th>Test</th><th>03-Jan-2018</th><th>Reference&#xA0;Range</th><th>Unit</th></tr><tr><td>Protein [Mass/volume] in Urine by Test strip</td><td>278.0</td><td>0 - 14</td><td>H</td><td>mg/dL</td></tr></table></div>"
        },
        "status": "final",
        "subject": {
          "reference": "urn:uuid:a9eb0623-9075-4b10-a7cd-e58cf92eacc9",
          "display": "Maria Nohlmans"
        },
        "effectiveDateTime": "2018-01-03T11:02:39Z",
        "specimen": {
          "reference": "urn:uuid:cdc2b44d-e489-4433-b15d-52d498437f9a"
        }
      }
    },
    {
      "fullUrl": "urn:uuid:03a58228-098f-4a01-bda4-5de22662a836",
      "resource": {
        "resourceType": "Observation",
        "id": "03a58228-098f-4a01-bda4-5de22662a836",
        "meta": {
          "profile": [
            "http://hl7.eu/fhir/laboratory/StructureDefinition/Observation-resultslab-eu-lab"
          ]
        },
        "performer": [
          {
            "display": "The Central European Lab"
          }
        ],
        "category": [
          {
            "coding": [
              {
                "system": "http://terminology.hl7.org/CodeSystem/observation-category",
                "code": "laboratory"
              }
            ]
          }
        ],
        "code": {
          "coding": [
            {
              "code": "20454-5",
              "system": "http://loinc.org",
              "display": "Protein [Presence] in Urine by Test strip"
            }
          ],
          "text": "Protein [Presence] in Urine by Test strip"
        },
        "text": {
          "status": "generated",
          "div": "<div xmlns=\"http://www.w3.org/1999/xhtml\"><table class=\"hl7__eu__lab__report\"><tr><th>Test</th><th>03-Jan-2018</th><th>Reference&#xA0;Range</th><th>Unit</th></tr><tr><td>Protein [Presence] in Urine by Test strip</td></tr></table></div>"
        },
        "status": "final",
        "subject": {
          "reference": "urn:uuid:a9eb0623-9075-4b10-a7cd-e58cf92eacc9",
          "display": "Maria Nohlmans"
        },
        "effectiveDateTime": "2018-01-03T11:02:39Z",
        "specimen": {
          "reference": "urn:uuid:cdc2b44d-e489-4433-b15d-52d498437f9a"
        }
      }
    },
    {
      "fullUrl": "urn:uuid:77d24e23-3163-4b17-9b2c-3bc95afb6051",
      "resource": {
        "resourceType": "Observation",
        "id": "77d24e23-3163-4b17-9b2c-3bc95afb6051",
        "meta": {
          "profile": [
            "http://hl7.eu/fhir/laboratory/StructureDefinition/Observation-resultslab-eu-lab"
          ]
        },
        "performer": [
          {
            "display": "The Central European Lab"
          }
        ],
        "category": [
          {
            "coding": [
              {
                "system": "http://terminology.hl7.org/CodeSystem/observation-category",
                "code": "laboratory"
              }
            ]
          }
        ],
        "code": {
          "coding": [
            {
              "code": "5802-4",
              "system": "http://loinc.org",
              "display": "Nitrite [Presence] in Urine by Test strip"
            }
          ],
          "text": "Nitrite [Presence] in Urine by Test strip"
        },
        "text": {
          "status": "generated",
          "div": "<div xmlns=\"http://www.w3.org/1999/xhtml\"><table class=\"hl7__eu__lab__report\"><tr><th>Test</th><th>03-Jan-2018</th><th>Reference&#xA0;Range</th><th>Unit</th></tr><tr><td>Nitrite [Presence] in Urine by Test strip</td></tr></table></div>"
        },
        "status": "final",
        "subject": {
          "reference": "urn:uuid:a9eb0623-9075-4b10-a7cd-e58cf92eacc9",
          "display": "Maria Nohlmans"
        },
        "effectiveDateTime": "2018-01-03T11:02:39Z",
        "specimen": {
          "reference": "urn:uuid:cdc2b44d-e489-4433-b15d-52d498437f9a"
        }
      }
    },
    {
      "fullUrl": "urn:uuid:05964371-712e-4a54-953d-54ce65d21bb6",
      "resource": {
        "resourceType": "Observation",
        "id": "05964371-712e-4a54-953d-54ce65d21bb6",
        "meta": {
          "profile": [
            "http://hl7.eu/fhir/laboratory/StructureDefinition/Observation-resultslab-eu-lab"
          ]
        },
        "performer": [
          {
            "display": "The Central European Lab"
          }
        ],
        "category": [
          {
            "coding": [
              {
                "system": "http://terminology.hl7.org/CodeSystem/observation-category",
                "code": "laboratory"
              }
            ]
          }
        ],
        "code": {
          "coding": [
            {
              "code": "5794-3",
              "system": "http://loinc.org",
              "display": "Hemoglobin [Presence] in Urine by Test strip"
            }
          ],
          "text": "Hemoglobin [Presence] in Urine by Test strip"
        },
        "text": {
          "status": "generated",
          "div": "<div xmlns=\"http://www.w3.org/1999/xhtml\"><table class=\"hl7__eu__lab__report\"><tr><th>Test</th><th>03-Jan-2018</th><th>Reference&#xA0;Range</th><th>Unit</th></tr><tr><td>Hemoglobin [Presence] in Urine by Test strip</td></tr></table></div>"
        },
        "status": "final",
        "subject": {
          "reference": "urn:uuid:a9eb0623-9075-4b10-a7cd-e58cf92eacc9",
          "display": "Maria Nohlmans"
        },
        "effectiveDateTime": "2018-01-03T11:02:39Z",
        "specimen": {
          "reference": "urn:uuid:cdc2b44d-e489-4433-b15d-52d498437f9a"
        }
      }
    },
    {
      "fullUrl": "urn:uuid:db7b2414-6cd0-472e-8ed1-9deffc209780",
      "resource": {
        "resourceType": "Observation",
        "id": "db7b2414-6cd0-472e-8ed1-9deffc209780",
        "meta": {
          "profile": [
            "http://hl7.eu/fhir/laboratory/StructureDefinition/Observation-resultslab-eu-lab"
          ]
        },
        "performer": [
          {
            "display": "The Central European Lab"
          }
        ],
        "category": [
          {
            "coding": [
              {
                "system": "http://terminology.hl7.org/CodeSystem/observation-category",
                "code": "laboratory"
              }
            ]
          }
        ],
        "code": {
          "coding": [
            {
              "code": "5799-2",
              "system": "http://loinc.org",
              "display": "Leukocyte esterase [Presence] in Urine by Test strip"
            }
          ],
          "text": "Leukocyte esterase [Presence] in Urine by Test strip"
        },
        "text": {
          "status": "generated",
          "div": "<div xmlns=\"http://www.w3.org/1999/xhtml\"><table class=\"hl7__eu__lab__report\"><tr><th>Test</th><th>03-Jan-2018</th><th>Reference&#xA0;Range</th><th>Unit</th></tr><tr><td>Leukocyte esterase [Presence] in Urine by Test strip</td></tr></table></div>"
        },
        "status": "final",
        "subject": {
          "reference": "urn:uuid:a9eb0623-9075-4b10-a7cd-e58cf92eacc9",
          "display": "Maria Nohlmans"
        },
        "effectiveDateTime": "2018-01-03T11:02:39Z",
        "specimen": {
          "reference": "urn:uuid:cdc2b44d-e489-4433-b15d-52d498437f9a"
        }
      }
    },
    {
      "fullUrl": "urn:uuid:03b53232-6e7d-4ff4-a510-640e86a409be",
      "resource": {
        "resourceType": "Observation",
        "id": "03b53232-6e7d-4ff4-a510-640e86a409be",
        "meta": {
          "profile": [
            "http://hl7.eu/fhir/laboratory/StructureDefinition/Observation-resultslab-eu-lab"
          ]
        },
        "performer": [
          {
            "display": "The Central European Lab"
          }
        ],
        "category": [
          {
            "coding": [
              {
                "system": "http://terminology.hl7.org/CodeSystem/observation-category",
                "code": "laboratory"
              }
            ]
          }
        ],
        "code": {
          "coding": [
            {
              "code": "4548-4",
              "system": "http://loinc.org",
              "display": "Hemoglobin A1c/Hemoglobin.total in Blood"
            }
          ],
          "text": "Hemoglobin A1c/Hemoglobin.total in Blood"
        },
        "valueQuantity": {
          "system": "http://unitsofmeasure.org",
          "value": 3.1,
          "unit": "%",
          "code": "%"
        },
        "referenceRange": [
          {
            "low": {
              "value": 4.5,
              "code": "%",
              "system": "http://unitsofmeasure.org"
            }
          },
          {
            "high": {
              "value": 6.4,
              "code": "%",
              "system": "http://unitsofmeasure.org"
            }
          }
        ],
        "interpretation": [
          {
            "coding": [
              {
                "code": "L",
                "system": "http://terminology.hl7.org/CodeSystem/v3-ObservationInterpretation",
                "display": "Low"
              }
            ]
          }
        ],
        "text": {
          "status": "generated",
          "div": "<div xmlns=\"http://www.w3.org/1999/xhtml\"><table class=\"hl7__eu__lab__report\"><tr><th>Test</th><th>03-Jan-2018</th><th>Reference&#xA0;Range</th><th>Unit</th></tr><tr><td>Hemoglobin A1c/Hemoglobin.total in Blood</td><td>3.1</td><td>4.5 - 6.4</td><td>L</td><td>%</td></tr></table></div>"
        },
        "status": "final",
        "subject": {
          "reference": "urn:uuid:a9eb0623-9075-4b10-a7cd-e58cf92eacc9",
          "display": "Maria Nohlmans"
        },
        "effectiveDateTime": "2018-01-03T11:02:39Z",
        "specimen": {
          "reference": "urn:uuid:328e36e8-2f60-4d81-a3f4-ac376d8cbe18"
        }
      }
    },
    {
      "fullUrl": "urn:uuid:6390a218-3959-466d-8148-9e8e4ab27a77",
      "resource": {
        "resourceType": "Observation",
        "id": "6390a218-3959-466d-8148-9e8e4ab27a77",
        "meta": {
          "profile": [
            "http://hl7.eu/fhir/laboratory/StructureDefinition/Observation-resultslab-eu-lab"
          ]
        },
        "performer": [
          {
            "display": "The Central European Lab"
          }
        ],
        "category": [
          {
            "coding": [
              {
                "system": "http://terminology.hl7.org/CodeSystem/observation-category",
                "code": "laboratory"
              }
            ]
          }
        ],
        "code": {
          "coding": [
            {
              "code": "2339-0",
              "system": "http://loinc.org",
              "display": "Glucose [Mass/volume] in Blood"
            }
          ],
          "text": "Glucose [Mass/volume] in Blood"
        },
        "valueQuantity": {
          "system": "http://unitsofmeasure.org",
          "value": 90.5,
          "unit": "mg/dL",
          "code": "mg/dL"
        },
        "referenceRange": [
          {
            "low": {
              "value": 70,
              "code": "mg/dL",
              "system": "http://unitsofmeasure.org"
            }
          },
          {
            "high": {
              "value": 140,
              "code": "mg/dL",
              "system": "http://unitsofmeasure.org"
            }
          }
        ],
        "text": {
          "status": "generated",
          "div": "<div xmlns=\"http://www.w3.org/1999/xhtml\"><table class=\"hl7__eu__lab__report\"><tr><th>Test</th><th>03-Jan-2018</th><th>Reference&#xA0;Range</th><th>Unit</th></tr><tr><td>Glucose [Mass/volume] in Blood</td><td>90.5</td><td>70 - 140</td><td></td><td>mg/dL</td></tr></table></div>"
        },
        "status": "final",
        "subject": {
          "reference": "urn:uuid:a9eb0623-9075-4b10-a7cd-e58cf92eacc9",
          "display": "Maria Nohlmans"
        },
        "effectiveDateTime": "2018-01-03T11:02:39Z",
        "specimen": {
          "reference": "urn:uuid:328e36e8-2f60-4d81-a3f4-ac376d8cbe18"
        }
      }
    },
    {
      "fullUrl": "urn:uuid:5af495e9-6518-47b6-9271-e1c391ca7573",
      "resource": {
        "resourceType": "Observation",
        "id": "5af495e9-6518-47b6-9271-e1c391ca7573",
        "meta": {
          "profile": [
            "http://hl7.eu/fhir/laboratory/StructureDefinition/Observation-resultslab-eu-lab"
          ]
        },
        "performer": [
          {
            "display": "The Central European Lab"
          }
        ],
        "category": [
          {
            "coding": [
              {
                "system": "http://terminology.hl7.org/CodeSystem/observation-category",
                "code": "laboratory"
              }
            ]
          }
        ],
        "code": {
          "coding": [
            {
              "code": "6299-2",
              "system": "http://loinc.org",
              "display": "Urea nitrogen [Mass/volume] in Blood"
            }
          ],
          "text": "Urea nitrogen [Mass/volume] in Blood"
        },
        "valueQuantity": {
          "system": "http://unitsofmeasure.org",
          "value": 12.1,
          "unit": "mg/dL",
          "code": "mg/dL"
        },
        "referenceRange": [
          {
            "low": {
              "value": 7,
              "code": "mg/dL",
              "system": "http://unitsofmeasure.org"
            }
          },
          {
            "high": {
              "value": 30,
              "code": "mg/dL",
              "system": "http://unitsofmeasure.org"
            }
          }
        ],
        "text": {
          "status": "generated",
          "div": "<div xmlns=\"http://www.w3.org/1999/xhtml\"><table class=\"hl7__eu__lab__report\"><tr><th>Test</th><th>03-Jan-2018</th><th>Reference&#xA0;Range</th><th>Unit</th></tr><tr><td>Urea nitrogen [Mass/volume] in Blood</td><td>12.1</td><td>7 - 30</td><td></td><td>mg/dL</td></tr></table></div>"
        },
        "status": "final",
        "subject": {
          "reference": "urn:uuid:a9eb0623-9075-4b10-a7cd-e58cf92eacc9",
          "display": "Maria Nohlmans"
        },
        "effectiveDateTime": "2018-01-03T11:02:39Z",
        "specimen": {
          "reference": "urn:uuid:328e36e8-2f60-4d81-a3f4-ac376d8cbe18"
        }
      }
    },
    {
      "fullUrl": "urn:uuid:7b370a1a-783e-438e-a904-24cbe950c190",
      "resource": {
        "resourceType": "Observation",
        "id": "7b370a1a-783e-438e-a904-24cbe950c190",
        "meta": {
          "profile": [
            "http://hl7.eu/fhir/laboratory/StructureDefinition/Observation-resultslab-eu-lab"
          ]
        },
        "performer": [
          {
            "display": "The Central European Lab"
          }
        ],
        "category": [
          {
            "coding": [
              {
                "system": "http://terminology.hl7.org/CodeSystem/observation-category",
                "code": "laboratory"
              }
            ]
          }
        ],
        "code": {
          "coding": [
            {
              "code": "38483-4",
              "system": "http://loinc.org",
              "display": "Creatinine [Mass/volume] in Blood"
            }
          ],
          "text": "Creatinine [Mass/volume] in Blood"
        },
        "valueQuantity": {
          "system": "http://unitsofmeasure.org",
          "value": 16,
          "unit": "mg/dL",
          "code": "mg/dL"
        },
        "referenceRange": [
          {
            "low": {
              "value": 0.5,
              "code": "mg/dL",
              "system": "http://unitsofmeasure.org"
            }
          },
          {
            "high": {
              "value": 1.3,
              "code": "mg/dL",
              "system": "http://unitsofmeasure.org"
            }
          }
        ],
        "interpretation": [
          {
            "coding": [
              {
                "code": "H",
                "system": "http://terminology.hl7.org/CodeSystem/v3-ObservationInterpretation",
                "display": "High"
              }
            ]
          }
        ],
        "text": {
          "status": "generated",
          "div": "<div xmlns=\"http://www.w3.org/1999/xhtml\"><table class=\"hl7__eu__lab__report\"><tr><th>Test</th><th>03-Jan-2018</th><th>Reference&#xA0;Range</th><th>Unit</th></tr><tr><td>Creatinine [Mass/volume] in Blood</td><td>16.0</td><td>0.5 - 1.3</td><td>H</td><td>mg/dL</td></tr></table></div>"
        },
        "status": "final",
        "subject": {
          "reference": "urn:uuid:a9eb0623-9075-4b10-a7cd-e58cf92eacc9",
          "display": "Maria Nohlmans"
        },
        "effectiveDateTime": "2018-01-03T11:02:39Z",
        "specimen": {
          "reference": "urn:uuid:328e36e8-2f60-4d81-a3f4-ac376d8cbe18"
        }
      }
    },
    {
      "fullUrl": "urn:uuid:6a8c9b07-e28e-4ced-bbab-10a661e69bfe",
      "resource": {
        "resourceType": "Observation",
        "id": "6a8c9b07-e28e-4ced-bbab-10a661e69bfe",
        "meta": {
          "profile": [
            "http://hl7.eu/fhir/laboratory/StructureDefinition/Observation-resultslab-eu-lab"
          ]
        },
        "performer": [
          {
            "display": "The Central European Lab"
          }
        ],
        "category": [
          {
            "coding": [
              {
                "system": "http://terminology.hl7.org/CodeSystem/observation-category",
                "code": "laboratory"
              }
            ]
          }
        ],
        "code": {
          "coding": [
            {
              "code": "49765-1",
              "system": "http://loinc.org",
              "display": "Calcium [Mass/volume] in Blood"
            }
          ],
          "text": "Calcium [Mass/volume] in Blood"
        },
        "valueQuantity": {
          "system": "http://unitsofmeasure.org",
          "value": 9.7,
          "unit": "mg/dL",
          "code": "mg/dL"
        },
        "referenceRange": [
          {
            "low": {
              "value": 8.6,
              "code": "mg/dL",
              "system": "http://unitsofmeasure.org"
            }
          },
          {
            "high": {
              "value": 10.2,
              "code": "mg/dL",
              "system": "http://unitsofmeasure.org"
            }
          }
        ],
        "text": {
          "status": "generated",
          "div": "<div xmlns=\"http://www.w3.org/1999/xhtml\"><table class=\"hl7__eu__lab__report\"><tr><th>Test</th><th>03-Jan-2018</th><th>Reference&#xA0;Range</th><th>Unit</th></tr><tr><td>Calcium [Mass/volume] in Blood</td><td>9.7</td><td>8.6 - 10.2</td><td></td><td>mg/dL</td></tr></table></div>"
        },
        "status": "final",
        "subject": {
          "reference": "urn:uuid:a9eb0623-9075-4b10-a7cd-e58cf92eacc9",
          "display": "Maria Nohlmans"
        },
        "effectiveDateTime": "2018-01-03T11:02:39Z",
        "specimen": {
          "reference": "urn:uuid:328e36e8-2f60-4d81-a3f4-ac376d8cbe18"
        }
      }
    },
    {
      "fullUrl": "urn:uuid:8aea97a8-3de1-421c-91e0-5a7c2c25240e",
      "resource": {
        "resourceType": "Observation",
        "id": "8aea97a8-3de1-421c-91e0-5a7c2c25240e",
        "meta": {
          "profile": [
            "http://hl7.eu/fhir/laboratory/StructureDefinition/Observation-resultslab-eu-lab"
          ]
        },
        "performer": [
          {
            "display": "The Central European Lab"
          }
        ],
        "category": [
          {
            "coding": [
              {
                "system": "http://terminology.hl7.org/CodeSystem/observation-category",
                "code": "laboratory"
              }
            ]
          }
        ],
        "code": {
          "coding": [
            {
              "code": "2947-0",
              "system": "http://loinc.org",
              "display": "Sodium [Moles/volume] in Blood"
            }
          ],
          "text": "Sodium [Moles/volume] in Blood"
        },
        "valueQuantity": {
          "system": "http://unitsofmeasure.org",
          "value": 138.1,
          "unit": "mmol/L",
          "code": "mmol/L"
        },
        "referenceRange": [
          {
            "low": {
              "value": 135,
              "code": "mmol/L",
              "system": "http://unitsofmeasure.org"
            }
          },
          {
            "high": {
              "value": 145,
              "code": "mmol/L",
              "system": "http://unitsofmeasure.org"
            }
          }
        ],
        "text": {
          "status": "generated",
          "div": "<div xmlns=\"http://www.w3.org/1999/xhtml\"><table class=\"hl7__eu__lab__report\"><tr><th>Test</th><th>03-Jan-2018</th><th>Reference&#xA0;Range</th><th>Unit</th></tr><tr><td>Sodium [Moles/volume] in Blood</td><td>138.1</td><td>135 - 145</td><td></td><td>mmol/L</td></tr></table></div>"
        },
        "status": "final",
        "subject": {
          "reference": "urn:uuid:a9eb0623-9075-4b10-a7cd-e58cf92eacc9",
          "display": "Maria Nohlmans"
        },
        "effectiveDateTime": "2018-01-03T11:02:39Z",
        "specimen": {
          "reference": "urn:uuid:328e36e8-2f60-4d81-a3f4-ac376d8cbe18"
        }
      }
    },
    {
      "fullUrl": "urn:uuid:3b1863ca-7361-4539-972f-eee98faa5d5d",
      "resource": {
        "resourceType": "Observation",
        "id": "3b1863ca-7361-4539-972f-eee98faa5d5d",
        "meta": {
          "profile": [
            "http://hl7.eu/fhir/laboratory/StructureDefinition/Observation-resultslab-eu-lab"
          ]
        },
        "performer": [
          {
            "display": "The Central European Lab"
          }
        ],
        "category": [
          {
            "coding": [
              {
                "system": "http://terminology.hl7.org/CodeSystem/observation-category",
                "code": "laboratory"
              }
            ]
          }
        ],
        "code": {
          "coding": [
            {
              "code": "6298-4",
              "system": "http://loinc.org",
              "display": "Potassium [Moles/volume] in Blood"
            }
          ],
          "text": "Potassium [Moles/volume] in Blood"
        },
        "valueQuantity": {
          "system": "http://unitsofmeasure.org",
          "value": 5,
          "unit": "mmol/L",
          "code": "mmol/L"
        },
        "referenceRange": [
          {
            "low": {
              "value": 3.5,
              "code": "mmol/L",
              "system": "http://unitsofmeasure.org"
            }
          },
          {
            "high": {
              "value": 5.1,
              "code": "mmol/L",
              "system": "http://unitsofmeasure.org"
            }
          }
        ],
        "text": {
          "status": "generated",
          "div": "<div xmlns=\"http://www.w3.org/1999/xhtml\"><table class=\"hl7__eu__lab__report\"><tr><th>Test</th><th>03-Jan-2018</th><th>Reference&#xA0;Range</th><th>Unit</th></tr><tr><td>Potassium [Moles/volume] in Blood</td><td>5.0</td><td>3.5 - 5.1</td><td></td><td>mmol/L</td></tr></table></div>"
        },
        "status": "final",
        "subject": {
          "reference": "urn:uuid:a9eb0623-9075-4b10-a7cd-e58cf92eacc9",
          "display": "Maria Nohlmans"
        },
        "effectiveDateTime": "2018-01-03T11:02:39Z",
        "specimen": {
          "reference": "urn:uuid:328e36e8-2f60-4d81-a3f4-ac376d8cbe18"
        }
      }
    },
    {
      "fullUrl": "urn:uuid:a53c0637-7aba-4a4b-85bc-b7bdd291d86b",
      "resource": {
        "resourceType": "Observation",
        "id": "a53c0637-7aba-4a4b-85bc-b7bdd291d86b",
        "meta": {
          "profile": [
            "http://hl7.eu/fhir/laboratory/StructureDefinition/Observation-resultslab-eu-lab"
          ]
        },
        "performer": [
          {
            "display": "The Central European Lab"
          }
        ],
        "category": [
          {
            "coding": [
              {
                "system": "http://terminology.hl7.org/CodeSystem/observation-category",
                "code": "laboratory"
              }
            ]
          }
        ],
        "code": {
          "coding": [
            {
              "code": "2069-3",
              "system": "http://loinc.org",
              "display": "Chloride [Moles/volume] in Blood"
            }
          ],
          "text": "Chloride [Moles/volume] in Blood"
        },
        "valueQuantity": {
          "system": "http://unitsofmeasure.org",
          "value": 109.4,
          "unit": "mmol/L",
          "code": "mmol/L"
        },
        "referenceRange": [
          {
            "low": {
              "value": 98,
              "code": "mmol/L",
              "system": "http://unitsofmeasure.org"
            }
          },
          {
            "high": {
              "value": 114,
              "code": "mmol/L",
              "system": "http://unitsofmeasure.org"
            }
          }
        ],
        "text": {
          "status": "generated",
          "div": "<div xmlns=\"http://www.w3.org/1999/xhtml\"><table class=\"hl7__eu__lab__report\"><tr><th>Test</th><th>03-Jan-2018</th><th>Reference&#xA0;Range</th><th>Unit</th></tr><tr><td>Chloride [Moles/volume] in Blood</td><td>109.4</td><td>98 - 114</td><td></td><td>mmol/L</td></tr></table></div>"
        },
        "status": "final",
        "subject": {
          "reference": "urn:uuid:a9eb0623-9075-4b10-a7cd-e58cf92eacc9",
          "display": "Maria Nohlmans"
        },
        "effectiveDateTime": "2018-01-03T11:02:39Z",
        "specimen": {
          "reference": "urn:uuid:328e36e8-2f60-4d81-a3f4-ac376d8cbe18"
        }
      }
    },
    {
      "fullUrl": "urn:uuid:ab2ba85e-ead1-460b-98ce-8f6ea5608c85",
      "resource": {
        "resourceType": "Observation",
        "id": "ab2ba85e-ead1-460b-98ce-8f6ea5608c85",
        "meta": {
          "profile": [
            "http://hl7.eu/fhir/laboratory/StructureDefinition/Observation-resultslab-eu-lab"
          ]
        },
        "performer": [
          {
            "display": "The Central European Lab"
          }
        ],
        "category": [
          {
            "coding": [
              {
                "system": "http://terminology.hl7.org/CodeSystem/observation-category",
                "code": "laboratory"
              }
            ]
          }
        ],
        "code": {
          "coding": [
            {
              "code": "20565-8",
              "system": "http://loinc.org",
              "display": "Carbon dioxide, total [Moles/volume] in Blood"
            }
          ],
          "text": "Carbon dioxide, total [Moles/volume] in Blood"
        },
        "valueQuantity": {
          "system": "http://unitsofmeasure.org",
          "value": 23.4,
          "unit": "mmol/L",
          "code": "mmol/L"
        },
        "referenceRange": [
          {
            "low": {
              "value": 22,
              "code": "mmol/L",
              "system": "http://unitsofmeasure.org"
            }
          },
          {
            "high": {
              "value": 32,
              "code": "mmol/L",
              "system": "http://unitsofmeasure.org"
            }
          }
        ],
        "text": {
          "status": "generated",
          "div": "<div xmlns=\"http://www.w3.org/1999/xhtml\"><table class=\"hl7__eu__lab__report\"><tr><th>Test</th><th>03-Jan-2018</th><th>Reference&#xA0;Range</th><th>Unit</th></tr><tr><td>Carbon dioxide, total [Moles/volume] in Blood</td><td>23.4</td><td>22 - 32</td><td></td><td>mmol/L</td></tr></table></div>"
        },
        "status": "final",
        "subject": {
          "reference": "urn:uuid:a9eb0623-9075-4b10-a7cd-e58cf92eacc9",
          "display": "Maria Nohlmans"
        },
        "effectiveDateTime": "2018-01-03T11:02:39Z",
        "specimen": {
          "reference": "urn:uuid:328e36e8-2f60-4d81-a3f4-ac376d8cbe18"
        }
      }
    },
    {
      "fullUrl": "urn:uuid:979cec91-b6ab-4115-b3cf-940912f875f1",
      "resource": {
        "resourceType": "Device",
        "id": "979cec91-b6ab-4115-b3cf-940912f875f1",
        "deviceName": [
          {
            "name": "SYNDERAI Synthetic Generator",
            "type": "manufacturer-name"
          }
        ],
        "version": [
          {
            "value": "5.0"
          }
        ],
        "text": {
          "status": "generated",
          "div": "<div xmlns=\"http://www.w3.org/1999/xhtml\">SYNDERAI Synthetic Generator v5.0</div>"
        },
        "status": "active\"",
        "distinctIdentifier": "synderai-generator-50",
        "manufacturer": "SYNDERAI Project"
      }
    },
    {
      "fullUrl": "urn:uuid:9b513594-bcbd-4a78-a88b-d25fc8c6ed8f",
      "resource": {
        "resourceType": "Provenance",
        "id": "9b513594-bcbd-4a78-a88b-d25fc8c6ed8f",
        "target": [
          {
            "reference": "Patient/a9eb0623-9075-4b10-a7cd-e58cf92eacc9"
          },
          {
            "reference": "Bundle/a3ecdc6e-d8ce-4cb9-99aa-ff32e796199f"
          },
          {
            "reference": "Composition/5a16dfbf-7e5d-418d-84b2-dddc03ff42ef"
          },
          {
            "reference": "PractitionerRole/4eef61a3-5ee9-4163-8879-f56c64f6b597"
          },
          {
            "reference": "Practitioner/a3ee5920-885f-4968-80e3-0490f9c97863"
          },
          {
            "reference": "PractitionerRole/72553dfc-ff35-47f8-b44b-201a5837682d"
          },
          {
            "reference": "Organization/40edfa9b-97e2-466d-8526-b2000677edb9"
          }
        ],
        "activity": {
          "text": "Synthetic Example Data Generation"
        },
        "policy": [
          "https://synderai.net/synderai-synthetic-data-policy"
        ],
        "agent": [
          {
            "type": {
              "text": "author"
            },
            "who": {
              "reference": "Device/979cec91-b6ab-4115-b3cf-940912f875f1"
            }
          }
        ],
        "reason": [
          {
            "text": "Interoperability Testing and Training (non-clinical use)"
          }
        ],
        "text": {
          "status": "generated",
          "div": "<div xmlns=\"http://www.w3.org/1999/xhtml\">Provenance for SYNDERAI Synthetic Example Data Resource</div>"
        },
        "recorded": "2018-01-03T12:02:39Z"
      }
    },
    {
      "fullUrl": "urn:uuid:4eef61a3-5ee9-4163-8879-f56c64f6b597",
      "resource": {
        "resourceType": "PractitionerRole",
        "id": "4eef61a3-5ee9-4163-8879-f56c64f6b597",
        "meta": {
          "profile": [
            "http://hl7.eu/fhir/base/StructureDefinition/practitionerRole-eu"
          ]
        },
        "text": {
          "status": "generated",
          "div": "<div xmlns=\"http://www.w3.org/1999/xhtml\">Laboratory Role Id: 4eef61a3-5ee9-4163-8879-f56c64f6b597</div>"
        },
        "practitioner": {
          "reference": "urn:uuid:a3ee5920-885f-4968-80e3-0490f9c97863"
        }
      }
    },
    {
      "fullUrl": "urn:uuid:a3ee5920-885f-4968-80e3-0490f9c97863",
      "resource": {
        "resourceType": "Practitioner",
        "id": "a3ee5920-885f-4968-80e3-0490f9c97863",
        "meta": {
          "profile": [
            "http://hl7.eu/fhir/base/StructureDefinition/practitioner-eu"
          ]
        },
        "identifier": [
          {
            "assigner": {
              "display": "HL7 Europe"
            },
            "system": "urn:oid:2.16.840.1.113883.2.51.999",
            "value": "ca32f5df-44e7-4853-9bc0-3728bae5f335"
          }
        ],
        "name": [
          {
            "prefix": [
              "dr"
            ],
            "given": [
              "Ex"
            ],
            "family": "Ample"
          }
        ],
        "address": [
          {
            "line": [
              "Laboratoire Central Européenne",
              "Boulevard du Jardin Botanique 32"
            ],
            "postalCode": "1000",
            "city": "Brussels",
            "country": "Belgium"
          }
        ],
        "text": {
          "status": "generated",
          "div": "<div xmlns=\"http://www.w3.org/1999/xhtml\">Laboratory: Laboratoire Central Européenne, 1000 Brussels, Belgium</div>"
        }
      }
    }
  ],
  "type": "document",
  "timestamp": "2018-01-03T12:02:39Z"
}
